File: plugins/Raman/MatchingLibrary/calcium carbonate.csv
wavenumber,intensity
405.4,26.5200
407.9,1.4200
410.5,27.3300
413.0,42.9000
415.5,37.3000
418.0,41.3200
420.6,29.3700
423.1,14.9000
425.6,40.0000
428.1,20.4800
430.6,53.1400
433.1,47.0100
435.7,25.0600
438.2,53.8100
440.7,42.6800
443.2,48.6200
445.7,48.2600
448.2,54.8300
450.8,63.2700
453.3,62.9200
455.8,67.5900
458.3,54.7200
460.8,62.5300
463.3,78.4500
465.8,61.9100
468.3,67.8400
470.8,47.6400
473.3,60.4300
475.8,63.8800
478.3,72.3000
480.8,76.3600
483.3,77.3400
485.8,90.0500
488.3,95.3400
490.8,86.4700
493.3,86.8400
495.8,83.5500
498.3,89.4700
500.8,64.1400
503.3,49.8900
505.8,60.1300
508.3,36.7900
510.8,18.3900
513.2,33.5300
515.7,33.4400
518.2,21.2100
520.7,9.0100
523.2,7.1600
525.7,0.0000
528.2,17.2500
530.6,13.0000
533.1,13.5600
535.6,5.5300
538.1,24.6000
540.6,5.0700
543.1,0.0000
545.5,6.7300
548.0,25.5300
550.5,1.8000
553.0,14.6000
555.4,5.8700
557.9,32.9600
560.4,21.2700
562.9,9.0100
565.3,0.0000
567.8,8.5900
570.3,9.0900
572.7,3.0900
575.2,2.4200
577.7,21.2700
580.1,14.6800
582.6,8.7100
585.1,5.7000
587.5,16.8200
590.0,21.4500
592.4,0.8300
594.9,29.0300
597.4,28.4500
599.8,22.6100
602.3,40.7700
604.7,33.1800
607.2,22.7000
609.6,39.6400
612.1,29.1800
614.5,23.9800
617.0,18.7900
619.4,23.4900
621.9,13.6700
624.3,17.8000
626.8,14.3800
629.2,18.5000
631.7,0.6500
634.1,7.1600
636.6,11.3500
639.0,6.3200
641.4,5.9000
643.9,15.8400
646.3,11.4000
648.8,9.2700
651.2,18.6200
653.6,15.9200
656.1,10.7600
658.5,0.8700
660.9,0.0000
663.4,13.4900
665.8,11.3300
668.2,16.3300
670.7,0.0000
673.1,1.7900
675.5,0.0000
677.9,7.7100
680.4,7.4500
682.8,12.8800
685.2,0.0000
687.6,10.4500
690.1,3.7200
692.5,0.0000
694.9,5.7200
697.3,5.9400
699.7,24.9900
702.1,28.8000
704.6,84.4200
707.0,175.9800
709.4,456.9500
711.8,1562.51
714.2,2837.13
716.6,1844.44
719.0,783.1500
721.4,317.9600
723.8,126.1300
726.2,57.1100
728.7,26.2200
731.1,21.6300
733.5,19.3000
735.9,0.0000
738.3,4.8000
740.7,0.0000
743.1,0.0000
745.5,0.0000
747.9,0.0000
750.2,3.9800
752.6,17.4200
755.0,11.4200
757.4,5.9900
759.8,0.5600
762.2,0.0000
764.6,1.8100
767.0,13.3900
769.4,17.7000
771.8,26.3600
774.1,27.8400
776.5,26.5600
778.9,19.7700
781.3,33.9400
783.7,33.2100
786.0,34.1500
788.4,19.1300
790.8,39.8600
793.2,41.3500
795.6,32.4000
797.9,51.4600
800.3,37.5800
802.7,27.0000
805.0,21.3800
807.4,44.7900
809.8,37.5300
812.2,38.4800
814.5,25.7600
816.9,18.5200
819.2,22.7600
821.6,28.6400
824.0,29.6100
826.3,29.4900
828.7,30.4500
831.1,17.8000
833.4,26.4000
835.8,21.3900
838.1,29.4400
840.5,18.4500
842.8,33.0300
845.2,19.3400
847.5,19.2400
849.9,15.8800
852.2,0.0400
854.6,19.5000
856.9,9.6500
859.3,23.6700
861.6,7.3000
864.0,4.4900
866.3,12.5400
868.6,3.2500
871.0,0.0000
873.3,6.8400
875.7,14.8300
878.0,1.7200
880.3,8.0800
882.7,9.0400
885.0,8.3800
887.3,2.8600
889.7,7.6000
892.0,2.6300
894.3,2.5200
896.7,0.0000
899.0,11.1100
901.3,5.7900
903.6,6.4000
906.0,4.3200
908.3,9.2500
910.6,22.7900
912.9,4.5600
915.2,12.7200
917.6,13.8800
919.9,3.2000
922.2,11.9000
924.5,18.4400
926.8,16.9200
929.1,18.6200
931.4,16.0300
933.8,27.4000
936.1,11.9200
938.4,15.7800
940.7,16.4100
943.0,18.1300
945.3,12.8600
947.6,8.6700
949.9,9.3200
952.2,22.8400
954.5,24.0300
956.8,5.3600
959.1,0.0000
961.4,20.2100
963.7,14.5700
966.0,7.3200
968.3,17.7600
970.5,4.0800
972.8,17.2100
975.1,22.3000
977.4,10.7700
979.7,13.7200
982.0,12.8600
984.3,14.6200
986.6,0.3100
988.8,7.4700
991.1,1.7700
993.4,5.1900
995.7,0.0000
998.0,6.5000
1000.2,8.6700
1002.5,18.7100
1004.8,15.1900
1007.0,5.7800
1009.3,14.0500
1011.6,10.5300
1013.9,16.1300
1016.1,12.6200
1018.4,31.0800
1020.7,19.0000
1022.9,13.8800
1025.2,9.3100
1027.5,6.3400
1029.7,0.0000
1032.0,2.8400
1034.2,0.1600
1036.5,13.0500
1038.7,1.8600
1041.0,1.9800
1043.2,11.9900
1045.5,0.0000
1047.8,0.0000
1050.0,0.0000
1052.2,0.0000
1054.5,0.0000
1056.8,4.0400
1059.0,0.0000
1061.2,0.0000
1063.5,0.0000
1065.7,30.9900
1068.0,99.1000
1070.2,82.3600
1072.4,38.2200
1074.7,37.8400
1076.9,150.6700
1079.2,296.8200
1081.4,738.3000
1083.6,2480.71
1085.8,11767.5
1088.1,23763
1090.3,14200.5
1092.5,5217.27
1094.8,1522.75
1097.0,455.2900
1099.2,169.7100
1101.4,81.7900
1103.6,22.1800
1105.9,4.3600
1108.1,0.0000
1110.3,0.0000
1112.5,0.0000
1114.7,0.0000
1116.9,1.9700
1119.2,0.0000
1121.4,0.0000
1123.6,0.0000
1125.8,0.0000
1128.0,0.0000
1130.2,0.0000
1132.4,0.0000
1134.6,16.8500
1136.8,23.1400
1139.0,0.0000
1141.2,20.5200
1143.4,7.4700
1145.6,31.5300
1147.8,31.1800
1150.0,59.0900
1152.2,45.1900
1154.4,34.0100
1156.6,44.5800
1158.8,74.7400
1161.0,75.5500
1163.2,67.1200
1165.3,41.8100
1167.5,70.8000
1169.7,69.2900
1171.9,80.3200
1174.1,88.6500
1176.2,83.3400
1178.4,87.3200
1180.6,103.3300
1182.8,121.0000
1185.0,137.0500
1187.1,131.2300
1189.3,153.3400
1191.5,159.5900
1193.7,162.5700
1195.8,165.0100
1198.0,171.2900
1200.2,196.2600
1202.3,171.2700
1204.5,200.6700
1206.7,214.1700
1208.8,233.7400
1211.0,215.3500
1213.1,225.5900
1215.3,254.5900
1217.5,241.7200
1219.6,232.1500
1221.8,249.0800
1223.9,266.5900
1226.1,273.6300
1228.2,273.4900
1230.4,248.4400
1232.5,276.5500
1234.7,254.2600
1236.8,296.8500
1239.0,298.4200
1241.1,296.6800
1243.2,329.9500
1245.4,332.1300
1247.5,372.7100
1249.7,374.9400
1251.8,397.2400
1253.9,394.4900
1256.1,401.2300
1258.2,407.9800
1260.3,415.3100
1262.5,408.1200
1264.6,437.8700
1266.7,407.1800
1268.8,410.0800
1271.0,428.1400
1273.1,441.1800
1275.2,439.0900
1277.3,435.8800
1279.5,450.1100
1281.6,442.9700
1283.7,493.3100
1285.8,416.2900
1287.9,462.1900
1290.0,488.4000
1292.2,464.3600
1294.3,477.6200
1296.4,497.1400
1298.5,460.6000
1300.6,488.1000
1302.7,473.6500
1304.8,473.9600
1306.9,471.4300
1309.0,449.5600
1311.1,443.6100
1313.2,426.8300
1315.3,414.0200
1317.4,398.3400
1319.5,363.2200
1321.6,362.3500
1323.7,328.3000
1325.8,319.9700
1327.9,317.3700
1330.0,277.4700
1332.1,271.4000
1334.2,257.2700
1336.2,210.3200
1338.3,236.4600
1340.4,198.6400
1342.5,150.3700
1344.6,169.0400
1346.7,144.3800
1348.7,152.1000
1350.8,135.5000
1352.9,84.6600
1355.0,63.3300
1357.0,68.7000
1359.1,49.6600
1361.2,55.0500
1363.2,46.8100
1365.3,41.2500
1367.4,38.6000
1369.4,5.3200
1371.5,22.0300
1373.6,23.5500
1375.6,6.5700
1377.7,24.5300
1379.8,0.0000
1381.8,29.0900
1383.9,13.2700
1385.9,0.0000
1388.0,17.4900
1390.0,14.5600
1392.1,16.3500
1394.1,0.0000
1396.2,15.8600
1398.2,27.2100
1400.3,0.0000
1402.3,1.4800
1404.4,24.5800
1406.4,0.0000
1408.4,7.8400
1410.5,6.7600
1412.5,8.6900
1414.6,36.3700
1416.6,17.3600
1418.6,10.9100
1420.7,5.6700
1422.7,15.4200
1424.7,32.4300
1426.8,44.0600
1428.8,49.6800
1430.8,60.7600
1432.8,116.0500
1434.9,270.2300
1436.9,541.2600
1438.9,551.8000
1440.9,273.5300
1443.0,132.7900
1445.0,88.0200
1447.0,21.7900
1449.0,41.5600
1451.0,28.9600
1453.0,16.9400
1455.0,4.2800
1457.0,12.9200
1459.0,26.5000
1461.1,28.4200
1463.1,27.2700
1465.1,48.3400
1467.1,20.0300
1469.1,28.1600
1471.1,35.0700
1473.1,7.8800
1475.1,21.6200
1477.1,17.9900
1479.1,9.9900
1481.1,47.6500
1483.1,5.8700
1485.0,21.7800
1487.0,45.2400
1489.0,43.6800
1491.0,29.5600
1493.0,29.2400
1495.0,58.5200
1497.0,43.7300
1499.0,48.4900
1500.9,55.7800
1502.9,32.0700
1504.9,42.5400
1506.9,45.4200
1508.8,49.5700
1510.8,29.5500
1512.8,30.5100
1514.8,28.9200
1516.7,40.7600
1518.7,28.9400
1520.7,53.6400
1522.7,45.0100
1524.6,38.9300
1526.6,48.9400
1528.5,55.1100
1530.5,53.5500
1532.5,44.2200
1534.4,49.1200
1536.4,52.7400
1538.3,5.0300
1540.3,38.3800
1542.2,41.2000
1544.2,72.0900
1546.2,31.1700
1548.1,14.3500
1550.0,30.9200
1552.0,32.4300
1554.0,32.6300
1555.9,30.8500
1557.8,30.3900
1559.8,41.8200
1561.7,17.5500
1563.7,40.2600
1565.6,38.4700
1567.5,32.6900
1569.5,35.5500
1571.4,31.0800
1573.3,41.3000
1575.3,23.4400
1577.2,32.3300
1579.1,38.0200
1581.1,26.3800
1583.0,13.3500
1584.9,33.3300
1586.8,65.5300
1588.8,38.9700
1590.7,26.5400
1592.6,8.6500
1594.5,52.0800
1596.4,47.2800
1598.3,45.8800
1600.3,32.8500
1602.2,34.1500
1604.1,50.5300
1606.0,43.6100
1607.9,43.5300
1609.8,47.5900
1611.7,32.3300
1613.6,66.1000
1615.5,39.0400
1617.4,54.8800
1619.3,40.9000
1621.2,56.0900
1623.1,44.8400
1625.0,25.1600
1626.9,34.8000
1628.8,33.9400
1630.7,42.9100
1632.6,73.7100
1634.5,72.1900
1636.4,53.0300
1638.3,78.3300
1640.2,51.3000
1642.1,46.1600
1643.9,43.8500
1645.8,37.9600
1647.7,66.2800
1649.6,45.3900
1651.5,48.0400
1653.3,44.2400
1655.2,63.4100
1657.1,77.6000
1659.0,26.9500
1660.8,54.1200
1662.7,45.2000
1664.6,63.7800
1666.5,72.9900
1668.3,21.1000
1670.2,47.0200
1672.0,43.0800
1673.9,46.4300
1675.8,23.4100
1677.6,59.7700
1679.5,5.7700
1681.4,37.6400
1683.2,36.4000
1685.1,39.5800
1686.9,27.9300
1688.8,28.1200
1690.6,32.7600
1692.5,40.3900
1694.3,33.1100
1696.2,9.3200
1698.0,8.6700
1699.9,37.3100
1701.7,19.3800
1703.5,14.9500
1705.4,30.1400
1707.2,27.2100
1709.1,11.3600
1710.9,18.2400
1712.8,19.0400
1714.6,0.0000
1716.4,6.7900
1718.2,22.7900
1720.1,28.8600
1721.9,35.7200
1723.7,21.0200
1725.6,0.0000
1727.4,16.4400
1729.2,2.5700
1731.0,19.9700
1732.8,2.4200
1734.7,0.0000
1736.5,18.2700
1738.3,12.4900
1740.1,9.8200
1741.9,46.4400
1743.8,48.5500
1745.6,99.5900
1747.4,204.6200
1749.2,330.6700
1751.0,362.7400
1752.8,315.3800
1754.6,241.5000
1756.4,116.9800
1758.2,73.6100
1760.0,89.4200
1761.8,60.2700
1763.6,54.3600
1765.4,25.0100
1767.2,32.7400
1769.0,55.1000
1770.8,44.2400
1772.6,32.5100
1774.4,19.8900
1776.2,43.9600
1778.0,33.7200
1779.8,52.9800
1781.5,39.4000
1783.3,42.2400
1785.1,21.9500
1786.9,33.8500
1788.7,32.5200
1790.5,36.1600
1792.2,48.9700
1794.0,55.9800
1795.8,49.6100
1797.5,58.3100
1799.3,47.7000
1801.1,66.5200
1802.9,49.1000
1804.6,49.3700
1806.4,41.9900
1808.2,53.2700
1809.9,23.7000
1811.7,17.8900
1813.5,31.7200
1815.2,41.3700
1817.0,2.9700
1818.7,33.5900
1820.5,17.7200
1822.2,17.3400
1824.0,29.9500
1825.8,27.8300
1827.5,31.7900
1829.3,32.2500
1831.0,31.8300
1832.8,55.9500
1834.5,59.0700
1836.2,19.9200
1838.0,41.4800
1839.7,24.2000
1841.5,23.6700
1843.2,34.6800
1845.0,38.6100
1846.7,38.0700
1848.4,37.5200
1850.2,48.6100
1851.9,12.9900
1853.6,43.8700
1855.4,36.0400
1857.1,25.4500
1858.8,22.9600
1860.5,28.6300
1862.3,22.4700
1864.0,22.6500
1865.7,38.3900
1867.4,34.0000
1869.2,41.5300
1870.9,23.2600
1872.6,27.0800
1874.3,11.4400
1876.0,26.3600
1877.7,21.7900
1879.5,24.6500
1881.2,0.0000
1882.9,32.1900
1884.6,28.4100
1886.3,18.0100
1888.0,27.3800
1889.7,27.3100
1891.4,0.0000
1893.1,15.9100
1894.8,19.7500
1896.5,14.9900
1898.2,12.1200
1899.9,20.7500
1901.6,14.9600
1903.3,22.6600
1905.0,3.2800
1906.7,0.0000
1908.4,26.8500
1910.1,18.4500
1911.8,38.3300
1913.4,4.4300
1915.1,30.2500
1916.8,20.7500
1918.5,20.0800
1920.2,28.3000
1921.8,5.8200
1923.5,5.0800
1925.2,23.0200
1926.9,37.7600
1928.6,9.4500
1930.2,12.1100
1931.9,19.8200
1933.6,6.3700
1935.2,0.0000
1936.9,11.6900
1938.6,10.3000
1940.2,23.1600
1941.9,15.6400
1943.6,8.0800
1945.2,24.1000
1946.9,13.4300
1948.5,4.7600
1950.2,13.6300
1951.9,17.3500
1953.5,15.8900
1955.2,22.7600
1956.8,20.2400
1958.5,17.7100
1960.1,0.0000
1961.8,16.5300
1963.4,30.6500
1965.1,28.9500
1966.7,34.6700
1968.4,36.1600
1970.0,21.6400
1971.6,14.5300
1973.3,8.4500
1974.9,0.1900
1976.6,10.2300
1978.2,11.6700
1979.8,5.5200
1981.5,24.3300
1983.1,0.0000
1984.7,28.1200
1986.4,7.4300
1988.0,15.1900
1989.6,11.9800
1991.2,26.4100
1992.9,19.8800
1994.5,9.9800
1996.1,31.1900
1997.7,16.8000
1999.3,18.0000
2001.0,20.3100
2002.6,42.8900
2004.2,29.4900
2005.8,34.1100
2007.4,28.5500
2009.0,10.4400
2010.6,13.9900
2012.2,30.2300
2013.9,36.2400
2015.5,8.9400
2017.1,16.0600
2018.7,23.2200
2020.3,15.3500
2021.9,20.2100
2023.5,29.7600
2025.1,14.8200
2026.7,17.3600
2028.3,17.5300
2029.9,22.3700
2031.5,0.0000
2033.0,33.1900
2034.6,29.6700
2036.2,9.4600
2037.8,34.5200
2039.4,28.5700
2041.0,0.0000
2042.6,17.6300
2044.2,27.1300
2045.7,30.6200
2047.3,14.7100
2048.9,16.9600
2050.5,13.1300
2052.1,19.0600
2053.6,18.8800
2055.2,26.0900
2056.8,24.6900
2058.3,20.8100
2059.9,29.3900
2061.5,26.8900
2063.1,18.1200
2064.6,35.6000
2066.2,21.7800
2067.8,29.2800
2069.3,34.3000
2070.9,22.8800
2072.4,17.5800
2074.0,17.1800
2075.6,33.3800
2077.1,41.9800
2078.7,13.3800
2080.2,2.6500
2081.8,13.8200
2083.3,13.3900
2084.9,24.6600
2086.4,35.9800
2088.0,0.0000
2089.5,24.3700
2091.1,14.3900
2092.6,21.4900
2094.1,39.2100
2095.7,21.2200
2097.2,0.0000
2098.8,28.7400
2100.3,13.0200
2101.8,29.4100
2103.4,23.0300
2104.9,38.1900
2106.4,6.0900
2108.0,26.7300
2109.5,8.0100
2111.0,28.7800
2112.6,29.1300
2114.1,30.8600
2115.6,0.9300
2117.1,17.8700
2118.7,26.6100
2120.2,14.5600
2121.7,23.3400
2123.2,2.8100
2124.7,38.5300
2126.2,36.5000
2127.8,10.4700
2129.3,22.4800
2130.8,11.8600
2132.3,13.9800
2133.8,31.8200
2135.3,46.9000
2136.8,18.9900
2138.3,26.9200
2139.8,33.4500
2141.3,9.5900
2142.8,27.7300
2144.3,45.9800
2145.8,20.4800
2147.3,34.4100
2148.8,23.4300
2150.3,28.6000
2151.8,50.0900
2153.3,40.5300
2154.8,42.8300
2156.3,0.0000
2157.8,63.8100
2159.3,24.0000
2160.8,23.1300
2162.2,32.8400
2163.7,9.2500
2165.2,41.7900
2166.7,4.3500
2168.2,28.3300
2169.6,15.6100
2171.1,8.9600
2172.6,31.6300
2174.1,28.0900
2175.6,29.1900
2177.0,36.5300
2178.5,62.6800
2180.0,37.2100
2181.4,24.1700
2182.9,33.1500
2184.4,24.7600
2185.8,9.9600
2187.3,36.5000
2188.8,26.4400
2190.2,21.1100
2191.7,35.0600
2193.1,24.8900
2194.6,11.4600
2196.1,0.0000
2197.5,33.3100
2199.0,27.9700
2200.4,40.6300
2201.9,38.5600
2203.3,21.6300
2204.8,19.4800
2206.2,15.6500
2207.7,15.1200
2209.1,24.6200
2210.6,29.1400
2212.0,28.6400
2213.4,41.6400
2214.9,17.4700
2216.3,25.4100
2217.8,16.2100
2219.2,22.1800
2220.6,48.7600
2222.1,29.0700
2223.5,14.4300
2224.9,49.9000
2226.4,19.5900
2227.8,41.3600
2229.2,12.5700
2230.7,30.9500
2232.1,49.4400
2233.5,0.9700
2234.9,16.0400
2236.3,38.3100
2237.8,19.7300
2239.2,13.5400
2240.6,14.4800
2242.0,24.4300
2243.4,16.3800
2244.8,37.2700
2246.3,21.9300
2247.7,13.7800
2249.1,53.1600
2250.5,48.7300
2251.9,11.1100
2253.3,10.2000
2254.7,25.7600
2256.1,20.7400
2257.5,38.0900
2258.9,10.6100
2260.3,41.1900
2261.7,22.9600
2263.1,40.5500
2264.5,20.3000
2265.9,37.9800
2267.3,38.5700
2268.7,41.0800
2270.1,45.5300
2271.5,26.8400
2272.9,58.3900
2274.3,31.8500
2275.7,32.4300
2277.1,17.3600
2278.4,29.6700
2279.8,34.1900
2281.2,26.8800
2282.6,27.4500
2284.0,34.0000
2285.3,32.6000
2286.7,27.1900
2288.1,51.8900
2289.5,62.6500
2290.8,39.0700
2292.2,45.7900
2293.6,40.3300
2295.0,20.6100
2296.3,62.4100
2297.7,36.5500
2299.1,16.7000
2300.4,0.0000
2301.8,24.1100
2303.2,43.3500
2304.5,31.2900
2305.9,35.9700
2307.2,28.0300
2308.6,36.9700
2310.0,41.7200
2311.3,52.9000
2312.7,27.7900
2314.0,38.9800
2315.4,45.9400
2316.7,27.0200
2318.1,38.3300
2319.4,36.6600
2320.8,30.6100
2322.1,2.6100
2323.5,46.9900
2324.8,40.9200
2326.2,14.8700
2327.5,33.0900
2328.8,20.2200
2330.2,47.5500
2331.5,66.0900
2332.8,73.4800
2334.2,15.3200
2335.5,27.1400
2336.8,34.4800
2338.2,44.1600
2339.5,21.7900
2340.8,31.4900
2342.2,0.0000
2343.5,18.3800
2344.8,25.3500
2346.2,0.0000
2347.5,10.2900
2348.8,2.4200
2350.1,0.0000
2351.4,19.1800
2352.1,23.2700