File: plugins/Raman/MatchingLibrary/hydrogen peroxide.csv
wavenumber,intensity
405.4,450.1000
407.9,480.2600
410.5,566.4000
413.0,610.1000
415.5,657.6800
418.0,700.8100
420.6,742.6900
423.1,821.6200
425.6,877.5400
428.1,1010.47
430.6,974.1500
433.1,1047.23
435.7,1056.9
438.2,1157.2
440.7,1172.06
443.2,1259.61
445.7,1208.42
448.2,1263.27
450.8,1225.72
453.3,1275.69
455.8,1326.93
458.3,1375.05
460.8,1239.38
463.3,1312.15
465.8,1305.06
468.3,1290.05
470.8,1263.4
473.3,1271.77
475.8,1236.22
478.3,1390.5
480.8,1284.65
483.3,1538.9
485.8,1650.69
488.3,1710.57
490.8,1767.98
493.3,1624.94
495.8,1647
498.3,1402.94
500.8,1214.77
503.3,1089.62
505.8,839.6500
508.3,722.2700
510.8,568.1400
513.2,474.1900
515.7,243.1700
518.2,161.0600
520.7,79.0500
523.2,31.1900
525.7,0.0000
528.2,0.0000
530.6,47.3000
533.1,0.0000
535.6,0.0000
538.1,11.7200
540.6,0.0000
543.1,0.0000
545.5,18.5600
548.0,67.5600
550.5,7.1000
553.0,18.9300
555.4,91.4200
557.9,25.3600
560.4,21.3600
562.9,7.2900
565.3,26.2600
567.8,0.0000
570.3,71.3700
572.7,0.0000
575.2,9.4100
577.7,0.0000
580.1,40.8000
582.6,64.7400
585.1,114.0600
587.5,142.7600
590.0,127.9800
592.4,111.5600
594.9,223.1800
597.4,254.9400
599.8,321.2800
602.3,375.8700
604.7,334.0200
607.2,322.7000
609.6,380.8900
612.1,232.2300
614.5,308.6200
617.0,279.7000
619.4,159.1400
621.9,180.5100
624.3,164.8200
626.8,101.1700
629.2,53.3500
631.7,56.0000
634.1,95.1200
636.6,0.0000
639.0,0.0000
641.4,4.9700
643.9,9.5500
646.3,15.7200
648.8,27.5700
651.2,33.0400
653.6,56.3300
656.1,47.5800
658.5,38.3400
660.9,0.0000
663.4,107.6000
665.8,49.2400
668.2,62.3200
670.7,32.7100
673.1,39.0800
675.5,40.9500
677.9,76.9800
680.4,51.1100
682.8,53.7200
685.2,34.9100
687.6,97.2700
690.1,78.6500
692.5,65.7800
694.9,48.4700
697.3,69.0700
699.7,16.3600
702.1,73.0200
704.6,0.0000
707.0,4.3400
709.4,0.0000
711.8,36.3800
714.2,86.7700
716.6,56.0900
719.0,36.1600
721.4,88.0400
723.8,11.6800
726.2,64.1600
728.7,0.0000
731.1,65.2400
733.5,68.1500
735.9,43.2000
738.3,50.1200
740.7,5.8100
743.1,0.0000
745.5,82.2200
747.9,24.6300
750.2,43.2900
752.6,13.6500
755.0,14.6100
757.4,32.5900
759.8,17.6600
762.2,0.0000
764.6,0.0000
767.0,0.0000
769.4,20.8500
771.8,49.9400
774.1,134.2500
776.5,155.5800
778.9,170.2900
781.3,185.0300
783.7,276.3300
786.0,243.7100
788.4,265.6200
790.8,207.8100
793.2,249.5700
795.6,216.6200
797.9,240.8300
800.3,170.1300
802.7,225.6500
805.0,179.7600
807.4,175.0400
809.8,122.7200
812.2,120.8300
814.5,139.7600
816.9,20.4000
819.2,23.5800
821.6,89.6000
824.0,77.5300
826.3,24.4500
828.7,44.3900
831.1,0.0000
833.4,2.6500
835.8,0.0000
838.1,0.0000
840.5,0.0000
842.8,0.0000
845.2,0.0000
847.5,0.0000
849.9,0.0000
852.2,42.5500
854.6,98.7300
856.9,248.0100
859.3,619.6400
861.6,1191.78
864.0,2043.74
866.3,3451.5
868.6,5594.81
871.0,8894.04
873.3,13154.3
875.7,17224
878.0,18986.8
880.3,17397
882.7,13787.3
885.0,9813.74
887.3,6509.85
889.7,4208.03
892.0,2582.39
894.3,1456.37
896.7,796.6100
899.0,335.7100
901.3,34.2700
903.6,30.5600
906.0,0.0000
908.3,0.0000
910.6,0.0000
912.9,0.0000
915.2,0.0000
917.6,0.0000
919.9,0.0000
922.2,0.0000
924.5,0.0000
926.8,0.0000
929.1,11.3000
931.4,9.1500
933.8,0.0000
936.1,0.0000
938.4,43.1600
940.7,0.0000
943.0,20.7200
945.3,0.0000
947.6,33.2800
949.9,20.9600
952.2,0.0000
954.5,30.0800
956.8,19.6300
959.1,40.3200
961.4,33.8600
963.7,0.0000
966.0,0.0000
968.3,8.1800
970.5,61.8700
972.8,20.5200
975.1,0.0000
977.4,59.4900
979.7,0.0000
982.0,0.0000
984.3,0.0800
986.6,31.3700
988.8,35.9900
991.1,46.6200
993.4,0.0000
995.7,18.9000
998.0,0.0000
1000.2,12.0400
1002.5,35.3100
1004.8,53.3000
1007.0,25.6400
1009.3,51.4600
1011.6,24.0600
1013.9,53.2900
1016.1,39.6700
1018.4,18.0300
1020.7,75.2000
1022.9,0.0000
1025.2,31.8200
1027.5,63.1300
1029.7,72.9000
1032.0,50.9500
1034.2,56.3700
1036.5,53.7700
1038.7,92.4800
1041.0,58.8300
1043.2,106.7100
1045.5,61.8300
1047.8,124.7900
1050.0,108.3800
1052.2,98.4400
1054.5,61.6700
1056.8,53.9100
1059.0,90.1800
1061.2,89.9800
1063.5,109.1400
1065.7,136.3800
1068.0,98.1100
1070.2,129.7000
1072.4,148.4300
1074.7,26.3600
1076.9,84.3200
1079.2,107.9000
1081.4,94.4100
1083.6,64.8000
1085.8,56.1700
1088.1,63.7100
1090.3,69.1200
1092.5,67.5500
1094.8,74.6200
1097.0,27.4300
1099.2,33.0100
1101.4,13.6600
1103.6,92.9800
1105.9,15.4300
1108.1,69.5300
1110.3,41.7100
1112.5,19.8200
1114.7,0.0000
1116.9,66.1800
1119.2,25.4700
1121.4,0.0000
1123.6,22.6300
1125.8,0.0000
1128.0,1.9000
1130.2,50.0200
1132.4,28.9100
1134.6,8.3400
1136.8,33.8300
1139.0,0.0000
1141.2,60.0600
1143.4,26.4000
1145.6,66.1100
1147.8,55.7200
1150.0,3.5300
1152.2,12.5300
1154.4,65.0200
1156.6,25.1600
1158.8,80.4700
1161.0,0.0000
1163.2,35.5300
1165.3,62.5900
1167.5,26.4900
1169.7,42.1700
1171.9,72.6100
1174.1,74.1800
1176.2,5.3500
1178.4,97.0400
1180.6,32.5700
1182.8,123.3200
1185.0,52.8100
1187.1,104.3100
1189.3,86.4000
1191.5,54.8700
1193.7,77.0500
1195.8,32.3700
1198.0,49.6700
1200.2,61.5200
1202.3,63.5100
1204.5,34.2100
1206.7,32.3900
1208.8,41.5900
1211.0,97.0800
1213.1,30.9100
1215.3,97.5300
1217.5,10.9200
1219.6,31.8300
1221.8,30.7000
1223.9,44.5200
1226.1,8.6100
1228.2,38.8200
1230.4,63.5500
1232.5,78.3600
1234.7,73.8200
1236.8,73.1700
1239.0,25.3700
1241.1,32.5000
1243.2,18.5400
1245.4,70.7700
1247.5,71.8800
1249.7,54.0900
1251.8,67.5000
1253.9,7.3300
1256.1,80.3800
1258.2,37.6900
1260.3,27.3600
1262.5,58.9800
1264.6,55.9700
1266.7,13.7600
1268.8,0.0000
1271.0,78.8100
1273.1,0.0000
1275.2,69.8000
1277.3,17.7500
1279.5,38.2100
1281.6,60.9900
1283.7,68.0500
1285.8,77.9700
1287.9,80.0200
1290.0,69.8000
1292.2,71.0200
1294.3,40.0100
1296.4,32.7500
1298.5,28.3200
1300.6,15.4100
1302.7,57.5400
1304.8,57.1500
1306.9,29.5000
1309.0,66.5100
1311.1,51.6100
1313.2,66.9100
1315.3,103.9400
1317.4,39.9900
1319.5,68.5200
1321.6,89.1100
1323.7,98.3000
1325.8,18.1500
1327.9,74.3600
1330.0,83.0500
1332.1,63.0500
1334.2,49.9200
1336.2,0.0000
1338.3,81.0700
1340.4,79.3800
1342.5,100.2100
1344.6,37.9100
1346.7,47.2200
1348.7,69.8800
1350.8,36.4000
1352.9,31.8700
1355.0,34.3200
1357.0,53.6500
1359.1,55.0100
1361.2,62.2100
1363.2,63.9000
1365.3,60.0600
1367.4,20.0300
1369.4,55.3600
1371.5,54.5000
1373.6,50.1400
1375.6,0.0000
1377.7,67.2500
1379.8,36.4700
1381.8,69.7700
1383.9,59.5800
1385.9,68.8500
1388.0,11.4700
1390.0,0.8500
1392.1,59.7000
1394.1,19.8200
1396.2,0.0000
1398.2,17.6800
1400.3,27.6600
1402.3,11.5200
1404.4,2.5200
1406.4,32.5200
1408.4,19.0500
1410.5,0.0000
1412.5,51.2000
1414.6,29.9000
1416.6,4.9700
1418.6,0.0000
1420.7,18.3000
1422.7,9.8800
1424.7,47.6200
1426.8,92.1100
1428.8,22.0300
1430.8,94.4500
1432.8,61.0400
1434.9,104.4100
1436.9,136.9800
1438.9,68.8300
1440.9,141.0000
1443.0,120.2100
1445.0,74.4000
1447.0,123.1000
1449.0,97.9900
1451.0,136.4700
1453.0,157.3000
1455.0,137.7200
1457.0,141.4400
1459.0,83.7000
1461.1,118.1800
1463.1,107.1600
1465.1,168.9600
1467.1,150.5800
1469.1,132.8000
1471.1,125.5200
1473.1,149.2700
1475.1,130.2300
1477.1,134.1700
1479.1,128.7900
1481.1,75.3900
1483.1,122.4300
1485.0,110.1900
1487.0,81.0300
1489.0,10.4100
1491.0,0.0000
1493.0,77.7200
1495.0,0.0000
1497.0,27.4100
1499.0,8.6300
1500.9,62.8500
1502.9,6.1100
1504.9,0.0000
1506.9,26.3000
1508.8,0.0000
1510.8,0.0000
1512.8,18.1600
1514.8,41.6700
1516.7,52.9300
1518.7,0.0000
1520.7,5.9800
1522.7,0.0000
1524.6,27.7800
1526.6,31.6300
1528.5,23.7900
1530.5,0.0000
1532.5,35.8400
1534.4,0.0000
1536.4,3.2900
1538.3,0.0000
1540.3,62.2900
1542.2,0.0000
1544.2,0.0000
1546.2,8.4600
1548.1,0.0000
1550.0,64.4300
1552.0,89.5100
1554.0,0.3100
1555.9,62.9000
1557.8,67.5100
1559.8,0.0000
1561.7,0.0000
1563.7,18.1200
1565.6,16.9800
1567.5,0.0000
1569.5,0.0000
1571.4,0.0000
1573.3,0.0000
1575.3,0.0000
1577.2,3.4400
1579.1,14.0200
1581.1,5.4600
1583.0,44.9200
1584.9,42.5400
1586.8,97.0000
1588.8,135.5300
1590.7,210.6200
1592.6,281.7500
1594.5,328.6800
1596.4,435.0000
1598.3,487.7600
1600.3,537.2500
1602.2,606.0500
1604.1,737.4400
1606.0,741.5200
1607.9,857.0200
1609.8,999.0800
1611.7,998.7100
1613.6,1140.75
1615.5,1237.53
1617.4,1365.84
1619.3,1412.56
1621.2,1494.92
1623.1,1521.07
1625.0,1649.95
1626.9,1662.41
1628.8,1804.55
1630.7,1877.65
1632.6,1837.05
1634.5,1825.87
1636.4,1926.14
1638.3,1857.06
1640.2,1915.9
1642.1,1929.52
1643.9,1912.6
1645.8,1909.12
1647.7,1872.79
1649.6,1934.92
1651.5,1962.16
1653.3,1861.12
1655.2,1825.05
1657.1,1818.34
1659.0,1734.43
1660.8,1647.3
1662.7,1598.17
1664.6,1565.52
1666.5,1447.74
1668.3,1322.95
1670.2,1363.87
1672.0,1274.92
1673.9,1282.19
1675.8,1125.26
1677.6,1039.69
1679.5,974.3700
1681.4,906.5600
1683.2,938.8900
1685.1,847.7600
1686.9,711.0400
1688.8,627.2400
1690.6,581.7800
1692.5,459.3300
1694.3,376.7200
1696.2,382.8000
1698.0,284.6600
1699.9,232.6800
1701.7,169.6200
1703.5,133.5400
1705.4,111.0700
1707.2,94.9700
1709.1,14.5200
1710.9,49.3800
1712.8,26.3200
1714.6,36.1200
1716.4,36.4500
1718.2,25.5200
1720.1,11.0700
1721.9,2.9200
1723.7,0.0000
1725.6,17.4900
1727.4,0.0000
1729.2,0.0000
1731.0,0.0000
1732.8,0.0000
1734.7,0.3900
1736.5,34.9500
1738.3,0.0000
1740.1,12.2500
1741.9,8.5800
1743.8,15.0100
1745.6,63.1500
1747.4,43.3600
1749.2,1.9500
1751.0,50.7700
1752.8,0.0000
1754.6,27.9000
1756.4,0.0000
1758.2,29.7700
1760.0,0.0000
1761.8,16.3100
1763.6,2.2400
1765.4,33.2900
1767.2,15.0800
1769.0,14.5600
1770.8,90.0400
1772.6,0.0000
1774.4,41.1000
1776.2,26.4800
1778.0,15.8200
1779.8,30.3200
1781.5,0.0000
1783.3,0.0000
1785.1,49.5000
1786.9,9.1400
1788.7,0.0000
1790.5,0.0000
1792.2,0.0000
1794.0,24.8700
1795.8,55.8800
1797.5,38.3400
1799.3,61.8600
1801.1,0.0000
1802.9,57.4500
1804.6,11.5300
1806.4,0.0000
1808.2,16.4500
1809.9,0.4400
1811.7,0.0000
1813.5,13.3200
1815.2,27.7100
1817.0,6.9200
1818.7,0.0000
1820.5,45.2800
1822.2,51.9100
1824.0,25.6200
1825.8,36.5400
1827.5,56.2100
1829.3,33.1800
1831.0,83.5100
1832.8,1.6600
1834.5,35.5700
1836.2,21.1800
1838.0,0.0000
1839.7,48.6400
1841.5,23.4600
1843.2,49.7000
1845.0,83.1700
1846.7,33.7500
1848.4,87.8800
1850.2,10.4000
1851.9,40.7500
1853.6,30.1000
1855.4,35.6500
1857.1,33.0600
1858.8,39.5300
1860.5,23.2700
1862.3,49.7800
1864.0,13.3400
1865.7,35.2300
1867.4,0.0000
1869.2,49.1800
1870.9,21.0100
1872.6,30.7000
1874.3,43.2100
1876.0,2.8800
1877.7,26.9400
1879.5,21.2400
1881.2,63.2100
1882.9,48.1600
1884.6,50.9000
1886.3,46.0900
1888.0,9.4100
1889.7,4.0500
1891.4,25.6400
1893.1,28.3100
1894.8,37.0300
1896.5,0.0000
1898.2,44.1700
1899.9,9.5600
1901.6,21.0000
1903.3,13.1900
1905.0,19.8600
1906.7,50.8100
1908.4,70.2600
1910.1,90.9800
1911.8,51.4400
1913.4,37.1700
1915.1,1.2300
1916.8,32.1700
1918.5,55.3700
1920.2,40.3200
1921.8,86.8800
1923.5,59.1500
1925.2,40.2400
1926.9,30.2500
1928.6,22.7500
1930.2,45.8800
1931.9,49.0100
1933.6,8.7900
1935.2,129.2000
1936.9,45.4000
1938.6,0.0000
1940.2,77.9600
1941.9,70.9100
1943.6,73.0600
1945.2,44.4300
1946.9,30.0900
1948.5,62.1300
1950.2,3.2800
1951.9,80.3800
1953.5,0.0000
1955.2,28.7800
1956.8,66.2900
1958.5,28.5700
1960.1,41.1100
1961.8,54.7900
1963.4,80.1900
1965.1,88.8000
1966.7,38.0400
1968.4,33.8600
1970.0,33.9600
1971.6,60.8300
1973.3,93.2400
1974.9,25.8100
1976.6,33.5400
1978.2,53.2900
1979.8,1.6900
1981.5,18.5800
1983.1,52.0200
1984.7,47.4200
1986.4,43.9600
1988.0,62.5000
1989.6,71.2600
1991.2,38.0800
1992.9,34.5900
1994.5,39.9800
1996.1,54.3200
1997.7,81.0400
1999.3,43.0300
2001.0,4.8400
2002.6,98.5600
2004.2,30.3900
2005.8,24.0700
2007.4,55.1500
2009.0,0.0000
2010.6,24.0600
2012.2,58.5500
2013.9,50.8300
2015.5,93.6600
2017.1,35.7400
2018.7,61.1300
2020.3,65.8300
2021.9,58.9700
2023.5,109.1900
2025.1,68.5900
2026.7,53.5600
2028.3,58.4600
2029.9,48.0900
2031.5,37.7000
2033.0,48.6000
2034.6,76.6300
2036.2,33.8200
2037.8,82.7500
2039.4,79.2800
2041.0,10.9700
2042.6,57.8000
2044.2,52.9900
2045.7,53.0100
2047.3,53.0400
2048.9,77.4500
2050.5,104.4500
2052.1,5.5200
2053.6,7.2800
2055.2,66.4200
2056.8,67.8800
2058.3,61.9300
2059.9,6.2900
2061.5,84.2100
2063.1,134.0700
2064.6,71.7400
2066.2,103.2400
2067.8,129.8800
2069.3,85.9500
2070.9,126.6400
2072.4,83.7300
2074.0,82.6200
2075.6,113.4300
2077.1,67.5700
2078.7,110.0800
2080.2,114.2000
2081.8,120.9200
2083.3,60.3100
2084.9,139.7000
2086.4,94.4400
2088.0,102.5000
2089.5,50.3300
2091.1,116.6400
2092.6,74.4000
2094.1,132.3700
2095.7,134.9800
2097.2,85.7100
2098.8,145.5100
2100.3,132.0700
2101.8,70.2300
2103.4,52.4200
2104.9,77.6600
2106.4,169.3500
2108.0,79.6800
2109.5,73.8600
2111.0,50.2400
2112.6,92.1800
2114.1,130.2400
2115.6,110.6500
2117.1,164.1400
2118.7,127.8700
2120.2,103.8800
2121.7,135.4700
2123.2,196.5900
2124.7,147.2900
2126.2,73.7600
2127.8,115.4400
2129.3,148.8600
2130.8,141.1900
2132.3,113.4100
2133.8,105.4100
2135.3,104.4900
2136.8,80.5400
2138.3,125.5600
2139.8,100.0200
2141.3,82.9800
2142.8,22.2100
2144.3,84.2500
2145.8,127.6200
2147.3,149.1900
2148.8,50.2200
2150.3,191.1200
2151.8,144.8500
2153.3,133.8800
2154.8,81.1100
2156.3,141.4700
2157.8,89.7900
2159.3,136.9200
2160.8,80.2900
2162.2,120.0200
2163.7,164.5000
2165.2,116.4000
2166.7,83.2200
2168.2,55.9000
2169.6,128.0900
2171.1,92.7800
2172.6,171.5300
2174.1,60.1000
2175.6,103.3800
2177.0,72.0300
2178.5,159.3300
2180.0,104.4100
2181.4,97.9900
2182.9,121.4800
2184.4,111.8000
2185.8,154.4400
2187.3,130.3500
2188.8,91.6800
2190.2,65.5300
2191.7,119.6200
2193.1,56.1800
2194.6,3.6100
2196.1,38.7300
2197.5,82.1700
2199.0,55.5500
2200.4,40.1800
2201.9,85.5100
2203.3,55.1800
2204.8,64.3300
2206.2,40.2700
2207.7,139.2700
2209.1,41.6500
2210.6,89.2200
2212.0,111.8000
2213.4,72.0400
2214.9,133.5300
2216.3,76.5000
2217.8,0.0000
2219.2,125.7000
2220.6,41.5700
2222.1,58.3200
2223.5,104.4500
2224.9,15.7800
2226.4,0.0000
2227.8,50.5000
2229.2,159.0600
2230.7,50.7800
2232.1,43.7800
2233.5,66.6800
2234.9,52.4600
2236.3,30.9800
2237.8,53.8500
2239.2,146.5600
2240.6,0.0000
2242.0,68.3200
2243.4,78.0900
2244.8,105.9800
2246.3,34.0200
2247.7,72.7900
2249.1,5.6200
2250.5,30.3200
2251.9,103.0200
2253.3,28.2900
2254.7,106.9200
2256.1,3.4200
2257.5,74.7500
2258.9,69.7100
2260.3,68.3400
2261.7,4.6700
2263.1,82.8800
2264.5,74.2400
2265.9,44.5300
2267.3,12.6500
2268.7,91.7000
2270.1,82.7300
2271.5,15.7300
2272.9,2.4400
2274.3,63.1000
2275.7,38.3100
2277.1,50.4600
2278.4,44.9700
2279.8,0.0000
2281.2,111.3500
2282.6,0.0000
2284.0,84.4100
2285.3,30.2600
2286.7,25.7900
2288.1,81.5400
2289.5,77.1200
2290.8,26.0700
2292.2,66.0100
2293.6,136.7500
2295.0,54.5600
2296.3,103.0900
2297.7,108.6600
2299.1,65.3100
2300.4,136.3200
2301.8,89.1800
2303.2,98.0100
2304.5,73.3400
2305.9,58.9500
2307.2,0.1200
2308.6,25.4900
2310.0,9.1300
2311.3,43.1700
2312.7,43.1900
2314.0,62.4800
2315.4,0.0000
2316.7,102.0000
2318.1,94.0400
2319.4,28.4600
2320.8,55.3700
2322.1,14.5200
2323.5,54.9300
2324.8,76.6700
2326.2,80.8000
2327.5,147.1600
2328.8,104.6500
2330.2,283.4000
2331.5,436.4300
2332.8,401.1200
2334.2,168.6800
2335.5,50.3400
2336.8,13.1400
2338.2,59.2700
2339.5,20.7800
2340.8,0.0000
2342.2,60.4100
2343.5,23.0400
2344.8,12.6000
2346.2,32.1400
2347.5,51.8000
2348.8,43.3700
2350.1,4.1600
2351.4,6.4400
2352.1,36.6000