File: plugins/Raman/MatchingLibrary/785X/1-butanol.csv
ENLIGHTEN Version,4.1.22
Measurement ID,20250220-195505-609214-WP-01977
Serial Number,WP-01977
Model,WP-785X-F13-R-ILC
Detector,S16011-1106
Label,1-butanol
Declared Match,
Declared Score,0
Scan Averaging,2
Boxcar,0
Technique,Raman
Baseline Correction Algo,AirPLS
ROI Pixel Start,47
ROI Pixel End,2047
ROI Start Line,0
ROI Stop Line,63
CCD C4,1.38617e-12
Slit Width,25
Cropped,True
Interpolated,False
Wavenumber Correction,-0.100481
Raman Intensity Corrected,True
Deconvolved,True
Region,
High Gain Mode,False
Laser Power mW,
Electrical Dark Correction,False
Battery %,
Device ID,<DeviceID USB:0x24aa:0x1000:0:1>
FW Version,10.0.0.10
FPGA Version,035-001
BLE Version,
Prefix,enlighten
Suffix,
Preset,
Auto-Raman,True
Session Count,0
Plugin Name,
Integration Time,752
Timestamp,2025-02-20 19:55:05.609214
Note,
Temperature,0
CCD C0,793.274
CCD C1,0.153259
CCD C2,1.40788e-05
CCD C3,-1.132e-08
CCD Offset,0
CCD Gain,1.9
CCD Offset Odd,0
CCD Gain Odd,1.9
Laser Wavelength,785.032
Laser Enable,False
Laser Power %,0
Laser Temperature,0
Pixel Count,2048

Pixel,Wavelength,Wavenumber,Processed,Raw,Dark
0,793.27,132.25,NA,1054.00,1022.00
2,793.58,137.12,NA,1091.00,1060.00
4,793.89,141.99,NA,1073.50,1028.00
6,794.19,146.86,NA,1082.50,1027.50
8,794.50,151.72,NA,1099.00,1048.50
10,794.81,156.58,NA,1097.50,1049.50
12,795.12,161.44,NA,1071.00,1017.00
14,795.42,166.30,NA,1074.00,1020.00
16,795.73,171.16,NA,1085.50,1017.00
18,796.04,176.01,NA,1111.00,1063.50
20,796.35,180.86,NA,1118.50,1064.50
22,796.65,185.71,NA,1154.00,1090.50
24,796.96,190.56,NA,1115.00,1048.00
26,797.27,195.41,NA,1155.50,1083.50
28,797.58,200.25,NA,1138.50,1068.00
30,797.88,205.09,NA,1114.00,1035.50
32,798.19,209.93,NA,1116.50,1042.00
34,798.50,214.77,NA,1125.00,1052.00
36,798.81,219.60,NA,1129.00,1043.00
38,799.12,224.43,NA,1190.50,1049.00
40,799.43,229.27,NA,1430.00,1082.50
42,799.74,234.09,NA,2274.00,1062.50
44,800.04,238.92,NA,3639.00,1109.00
46,800.35,243.75,NA,4154.00,1058.00
48,800.66,248.57,290.49,4350.50,1085.50
50,800.97,253.39,356.21,4422.00,1089.00
52,801.28,258.21,443.94,4568.00,1094.00
54,801.59,263.02,535.53,4652.50,1087.00
56,801.90,267.83,637.80,4747.50,1060.00
58,802.21,272.65,744.52,4874.50,1089.00
60,802.52,277.46,766.01,4874.00,1081.00
62,802.83,282.26,710.31,4831.00,1103.50
64,803.14,287.07,547.57,4632.50,1100.50
66,803.45,291.87,417.28,4430.50,1094.00
68,803.76,296.67,340.13,4307.00,1107.50
70,804.07,301.47,179.57,4072.50,1078.00
72,804.38,306.26,82.91,3919.50,1061.00
74,804.69,311.06,0.00,3777.50,1077.00
76,805.00,315.85,0.00,3738.50,1062.50
78,805.31,320.64,45.69,3829.50,1073.50
80,805.62,325.42,131.57,3976.50,1099.50
82,805.93,330.21,344.31,4264.50,1083.50
84,806.24,334.99,730.13,4796.50,1040.00
86,806.55,339.77,1451.28,5864.50,1064.50
88,806.86,344.55,2742.61,7527.00,1098.00
90,807.17,349.32,4194.62,9227.00,1069.00
92,807.48,354.10,4959.66,10159.00,1071.00
94,807.80,358.87,4536.28,9762.50,1095.00
96,808.11,363.63,3613.79,8654.50,1079.00
98,808.42,368.40,2614.38,7339.00,1060.00
100,808.73,373.16,1929.67,6362.00,1055.00
102,809.04,377.93,1525.43,5852.00,1040.50
104,809.35,382.68,1557.55,6196.00,1057.00
106,809.66,387.44,2778.24,8470.50,1075.00
108,809.98,392.19,7069.22,13908.50,1058.00
110,810.29,396.95,12719.04,19118.50,1089.50
112,810.60,401.70,10250.17,17021.50,1062.50
114,810.91,406.44,4363.77,10691.50,1072.00
116,811.22,411.19,1709.70,6567.50,1088.50
118,811.54,415.93,883.11,4875.00,1084.50
120,811.85,420.67,581.08,4213.00,1055.00
122,812.16,425.41,436.30,3970.00,1061.00
124,812.47,430.14,427.41,3951.00,1071.00
126,812.79,434.87,554.58,4122.00,1048.00
128,813.10,439.60,889.78,4650.50,1042.50
130,813.41,444.33,1618.26,5658.50,1061.50
132,813.72,449.06,2541.79,6749.00,1044.50
134,814.04,453.78,2980.67,7270.00,1069.50
136,814.35,458.50,2506.84,6728.50,1036.00
138,814.66,463.22,1787.42,5820.50,1033.50
140,814.98,467.93,1292.50,5143.00,1049.00
142,815.29,472.65,1119.73,4921.50,1055.00
144,815.60,477.36,1433.75,5404.50,1060.00
146,815.92,482.06,2385.85,6569.00,1035.00
148,816.23,486.77,3359.05,7624.50,1080.00
150,816.54,491.47,3051.13,7344.50,1090.00
152,816.86,496.17,2024.11,6145.50,1040.50
154,817.17,500.87,1473.24,5434.00,1065.00
156,817.48,505.57,1660.25,5646.50,1052.00
158,817.80,510.26,2507.90,6629.00,1038.00
160,818.11,514.95,3340.27,7482.50,1067.50
162,818.42,519.64,2850.01,6900.50,1073.00
164,818.74,524.32,1650.20,5417.00,1064.50
166,819.05,529.00,805.94,4150.00,1080.50
168,819.37,533.68,402.67,3387.00,1056.00
170,819.68,538.36,189.75,2996.50,1078.50
172,819.99,543.04,100.09,2794.00,1075.00
174,820.31,547.71,40.00,2642.00,1054.00
176,820.62,552.38,3.71,2538.50,1034.50
178,820.94,557.05,0.00,2497.00,1054.00
180,821.25,561.71,0.00,2411.50,1020.00
182,821.57,566.37,0.00,2394.50,1032.50
184,821.88,571.03,0.00,2412.50,1053.50
186,822.20,575.69,0.00,2378.50,1060.50
188,822.51,580.34,0.00,2368.00,1052.00
190,822.83,584.99,0.00,2388.50,1058.00
192,823.14,589.64,0.00,2375.50,1057.00
194,823.46,594.29,0.00,2367.00,1054.00
196,823.77,598.93,0.00,2364.00,1052.00
198,824.09,603.57,2.61,2364.00,1026.50
200,824.40,608.21,52.55,2425.00,1040.00
202,824.72,612.85,0.96,2391.50,1068.50
204,825.03,617.48,0.00,2367.00,1057.00
206,825.35,622.11,0.00,2391.50,1077.00
208,825.66,626.74,13.26,2418.00,1074.00
210,825.98,631.36,19.65,2384.00,1032.50
212,826.29,635.99,32.52,2433.50,1056.00
214,826.61,640.61,6.73,2386.50,1042.50
216,826.92,645.22,6.79,2379.00,1033.50
218,827.24,649.84,6.91,2375.50,1022.00
220,827.56,654.45,18.20,2440.50,1070.00
222,827.87,659.06,0.68,2412.50,1055.00
224,828.19,663.67,0.00,2405.00,1053.00
226,828.50,668.27,17.01,2498.00,1108.00
228,828.82,672.87,0.00,2424.50,1056.00
230,829.13,677.47,18.38,2442.50,1029.50
232,829.45,682.06,0.00,2449.50,1058.50
234,829.77,686.66,0.00,2451.50,1073.00
236,830.08,691.25,2.52,2463.50,1039.00
238,830.40,695.83,0.00,2450.00,1043.50
240,830.72,700.42,0.00,2495.00,1044.00
242,831.03,705.00,0.00,2429.50,989.50
244,831.35,709.58,0.00,2535.00,1041.00
246,831.66,714.15,0.00,2520.00,993.00
248,831.98,718.73,0.00,2632.50,1043.50
250,832.30,723.30,0.12,2688.50,1035.50
252,832.61,727.87,39.66,2892.50,1058.00
254,832.93,732.43,215.24,3135.00,997.00
256,833.25,736.99,506.66,3644.00,1063.00
258,833.56,741.55,681.41,3941.50,1037.00
260,833.88,746.11,748.42,4114.50,1044.00
262,834.20,750.66,767.47,4160.00,1047.50
264,834.51,755.22,567.08,3972.00,1061.00
266,834.83,759.76,427.77,3797.50,1054.00
268,835.15,764.31,367.86,3729.00,1057.00
270,835.47,768.85,385.36,3760.50,1018.00
272,835.78,773.39,452.58,3955.00,1042.00
274,836.10,777.93,603.54,4291.00,1035.00
276,836.42,782.46,936.94,4891.50,1044.50
278,836.73,787.00,1474.48,5698.50,1033.00
280,837.05,791.52,1832.08,6441.00,1030.50
282,837.37,796.05,2173.13,7580.00,1059.00
284,837.69,800.57,3412.99,10316.50,1038.00
286,838.00,805.09,7406.38,16124.00,1041.00
288,838.32,809.61,12368.37,21820.00,1056.00
290,838.64,814.13,10113.19,21143.50,1074.00
292,838.95,818.64,8267.38,20934.00,1047.50
294,839.27,823.15,15153.18,30197.00,1040.00
296,839.59,827.65,24819.16,39097.50,1067.00
298,839.91,832.15,16902.86,31486.00,1035.00
300,840.22,836.65,7305.04,19317.00,1089.50
302,840.54,841.15,5687.83,15228.50,1034.00
304,840.86,845.65,7580.79,16091.50,1098.00
306,841.18,850.14,7504.65,15393.00,1060.00
308,841.50,854.63,4451.79,11831.50,1126.50
310,841.81,859.11,2221.00,8416.50,1041.00
312,842.13,863.60,1526.50,7194.50,1059.00
314,842.45,868.07,1867.73,7905.50,1037.00
316,842.77,872.55,3513.32,10624.00,1065.50
318,843.08,877.03,6778.56,14516.00,1084.50
320,843.40,881.50,7310.73,15086.00,1025.50
322,843.72,885.97,4113.84,11818.50,1064.00
324,844.04,890.43,2443.24,9603.50,1028.50
326,844.36,894.89,3400.11,10915.50,1033.00
328,844.67,899.35,6379.58,14033.50,1070.00
330,844.99,903.81,6504.38,13918.50,1031.00
332,845.31,908.26,2997.05,10016.50,1056.00
334,845.63,912.71,969.22,6736.50,1060.50
336,845.95,917.16,263.34,5251.50,1062.50
338,846.27,921.61,54.40,5128.00,1465.00
340,846.58,926.05,73.48,4753.50,1039.00
342,846.90,930.49,260.47,5223.00,1060.00
344,847.22,934.92,897.84,6412.50,1050.50
346,847.54,939.36,2333.66,8555.50,1011.50
348,847.86,943.79,3771.53,10777.50,1028.50
350,848.18,948.21,4744.08,12484.50,1040.00
352,848.49,952.64,5607.37,13926.50,1046.50
354,848.81,957.06,5629.42,14383.00,1016.00
356,849.13,961.48,6282.77,15352.50,1071.00
358,849.45,965.89,7404.30,16094.50,1073.00
360,849.77,970.31,5771.03,13851.50,1052.50
362,850.09,974.71,2780.99,9955.50,1051.00
364,850.40,979.12,1301.15,7442.50,1073.00
366,850.72,983.52,1072.07,6794.00,1090.50
368,851.04,987.92,1537.98,7131.00,1021.50
370,851.36,992.32,1993.62,7581.50,1022.00
372,851.68,996.72,1488.85,7195.50,1045.50
374,852.00,1001.11,1185.75,6966.50,1023.00
376,852.32,1005.50,1818.25,7854.50,1008.50
378,852.63,1009.88,2948.59,9258.00,1083.50
380,852.95,1014.26,3090.56,9832.00,1055.00
382,853.27,1018.64,2952.59,10574.00,1073.50
384,853.59,1023.02,4734.97,13717.50,1042.00
386,853.91,1027.39,9403.62,19187.00,1026.50
388,854.23,1031.76,10661.30,20771.50,1029.50
390,854.55,1036.13,7113.99,17500.00,1039.00
392,854.87,1040.49,5949.60,16017.50,1034.00
394,855.18,1044.86,7592.43,17788.00,1052.00
396,855.50,1049.21,9470.63,20062.50,1051.00
398,855.82,1053.57,9652.05,20736.00,1062.00
400,856.14,1057.92,9522.40,20881.50,1045.00
402,856.46,1062.27,9569.27,21133.00,1041.00
404,856.78,1066.62,9842.70,21455.50,1010.50
406,857.10,1070.96,10947.08,22429.50,1026.00
408,857.42,1075.30,10227.15,21151.00,1069.00
410,857.74,1079.64,7738.70,17716.50,1039.00
412,858.06,1083.97,5372.35,14095.50,1027.50
414,858.37,1088.30,3789.47,11439.50,1020.00
416,858.69,1092.63,3042.67,10177.00,1021.00
418,859.01,1096.95,3073.44,10251.00,1006.50
420,859.33,1101.27,3977.40,11952.00,1037.00
422,859.65,1105.59,5989.89,15271.50,1029.50
424,859.97,1109.91,9461.19,19799.00,1024.00
426,860.29,1114.22,11431.60,21998.50,1030.50
428,860.61,1118.53,9188.50,19566.50,1023.00
430,860.93,1122.84,6014.86,15395.00,1033.00
432,861.25,1127.14,4459.79,12662.00,1060.00
434,861.56,1131.44,3831.49,11176.50,1025.50
436,861.88,1135.74,3358.34,10167.50,1030.50
438,862.20,1140.03,2761.50,9140.50,1049.50
440,862.52,1144.32,1929.16,7865.50,1041.00
442,862.84,1148.61,1152.30,6665.50,1052.00
444,863.16,1152.89,634.12,5757.50,1029.50
446,863.48,1157.17,308.80,5154.00,1034.50
448,863.80,1161.45,117.49,4846.00,1031.00
450,864.12,1165.73,4.05,4647.00,1045.50
452,864.44,1170.00,0.00,4520.50,1029.00
454,864.76,1174.27,0.00,4505.50,1039.00
456,865.07,1178.53,0.00,4489.50,1013.00
458,865.39,1182.80,0.00,4592.00,1042.00
460,865.71,1187.06,0.00,4699.50,1033.00
462,866.03,1191.31,47.43,4987.50,1042.00
464,866.35,1195.57,262.07,5262.00,1030.50
466,866.67,1199.82,543.58,5796.50,1057.00
468,866.99,1204.06,858.36,6340.50,1041.00
470,867.31,1208.31,1237.31,7021.00,1057.00
472,867.63,1212.55,1655.68,7694.00,1039.50
474,867.95,1216.79,2120.94,8356.50,1014.00
476,868.27,1221.02,2321.70,8699.00,1044.50
478,868.58,1225.25,2166.22,8521.50,1008.50
480,868.90,1229.48,1821.39,8186.00,1046.50
482,869.22,1233.71,1676.24,8100.50,1065.50
484,869.54,1237.93,1807.52,8387.50,1083.50
486,869.86,1242.15,2382.83,9271.50,1041.00
488,870.18,1246.36,3150.92,10410.50,1015.50
490,870.50,1250.58,4066.51,11628.00,1048.00
492,870.82,1254.79,4299.63,11959.00,1089.00
494,871.14,1258.99,3664.19,11238.00,1050.00
496,871.46,1263.20,2796.86,10164.50,1057.00
498,871.78,1267.40,2300.36,9401.50,1027.50
500,872.10,1271.59,2342.64,9450.00,1026.50
502,872.41,1275.79,2723.40,10137.00,1028.50
504,872.73,1279.98,3502.69,11655.00,1037.00
506,873.05,1284.17,4979.55,14566.00,1070.00
508,873.37,1288.35,8052.70,19731.00,988.50
510,873.69,1292.53,13551.66,27360.50,1022.00
512,874.01,1296.71,18941.55,33818.00,1028.50
514,874.33,1300.88,18631.04,33860.00,1015.00
516,874.65,1305.06,14762.95,29265.00,1036.00
518,874.97,1309.22,10605.78,23348.50,1021.50
520,875.29,1313.39,7193.04,18147.50,1045.00
522,875.60,1317.55,5357.95,14980.00,1051.00
524,875.92,1321.71,4441.95,13187.00,1040.50
526,876.24,1325.87,3830.57,12158.00,1061.00
528,876.56,1330.02,3391.59,11456.50,1022.50
530,876.88,1334.17,3328.38,11352.50,1058.00
532,877.20,1338.32,3331.48,11238.00,1014.00
534,877.52,1342.46,3344.39,11228.00,1009.50
536,877.84,1346.60,3149.96,11068.00,1052.50
538,878.16,1350.73,3033.35,10898.50,1028.50
540,878.47,1354.87,2946.94,10811.00,1041.00
542,878.79,1359.00,2923.80,10841.50,1035.00
544,879.11,1363.13,3161.60,11147.50,1041.00
546,879.43,1367.25,3443.07,11480.00,1022.00
548,879.75,1371.37,3278.01,11386.00,1026.50
550,880.07,1375.49,3291.96,11442.00,1021.00
552,880.39,1379.60,3416.16,11555.50,1044.50
554,880.71,1383.71,3251.39,11337.00,1030.00
556,881.03,1387.82,3018.47,11095.50,1024.00
558,881.34,1391.93,2872.60,10911.50,998.00
560,881.66,1396.03,2962.00,11079.00,1030.00
562,881.98,1400.13,3157.43,11391.50,1045.00
564,882.30,1404.22,3395.00,11786.50,1047.50
566,882.62,1408.31,3719.36,12305.00,1024.50
568,882.94,1412.40,4176.38,13099.50,1046.50
570,883.26,1416.49,4792.99,14158.00,1030.50
572,883.57,1420.57,5612.27,15775.50,1062.50
574,883.89,1424.65,7256.17,18666.00,1019.00
576,884.21,1428.73,10605.97,23653.00,1058.00
578,884.53,1432.80,15409.18,30008.00,1069.50
580,884.85,1436.87,18512.05,34737.00,1033.50
582,885.17,1440.93,20250.42,38146.00,1022.00
584,885.49,1445.00,23313.28,42207.50,1027.50
586,885.80,1449.06,25349.59,44505.50,1017.00
588,886.12,1453.11,24389.91,43597.00,1063.50
590,886.44,1457.17,22349.22,40989.50,1041.00
592,886.76,1461.22,20199.87,37804.00,1044.50
594,887.08,1465.26,17989.10,34525.50,1064.50
596,887.40,1469.31,16021.79,31572.00,1012.00
598,887.71,1473.35,14407.12,29098.00,1023.50
600,888.03,1477.38,13396.56,27196.50,1034.00
602,888.35,1481.42,12125.65,24995.50,1061.00
604,888.67,1485.45,9996.09,21990.00,1044.00
606,888.99,1489.48,7507.56,18586.00,1023.50
608,889.31,1493.50,5559.67,15765.50,1045.50
610,889.62,1497.52,4279.59,13728.00,1038.00
612,889.94,1501.54,3398.09,12274.00,1004.00
614,890.26,1505.56,2686.65,11201.00,1028.50
616,890.58,1509.57,2204.52,10469.00,1029.50
618,890.90,1513.57,1789.82,9835.00,1021.00
620,891.21,1517.58,1500.66,9421.50,1032.00
622,891.53,1521.58,1285.15,9102.50,1028.50
624,891.85,1525.58,1042.90,8751.50,1035.00
626,892.17,1529.57,860.70,8506.50,1043.00
628,892.49,1533.57,656.60,8236.00,1052.00
630,892.80,1537.56,504.30,8004.00,1021.50
632,893.12,1541.54,354.86,7806.00,1011.50
634,893.44,1545.52,201.04,7599.00,1038.00
636,893.76,1549.50,92.05,7344.50,999.00
638,894.07,1553.48,32.26,7259.00,1054.00
640,894.39,1557.45,0.00,7054.00,1023.00
642,894.71,1561.42,26.78,7026.00,1034.00
644,895.03,1565.39,0.00,6802.50,1001.50
646,895.34,1569.35,0.00,6813.50,1053.00
648,895.66,1573.31,0.00,6674.50,1010.50
650,895.98,1577.26,4.60,6639.50,1020.00
652,896.30,1581.22,0.00,6513.00,1002.00
654,896.61,1585.17,14.29,6513.00,1026.50
656,896.93,1589.11,0.00,6443.50,1045.00
658,897.25,1593.06,4.46,6362.50,1011.00
660,897.57,1597.00,0.00,6307.00,1024.00
662,897.88,1600.93,3.17,6298.50,1031.00
664,898.20,1604.87,69.81,6322.50,1030.50
666,898.52,1608.80,147.46,6303.00,1012.00
668,898.84,1612.72,76.69,6180.00,996.00
670,899.15,1616.65,69.08,6169.50,1051.00
672,899.47,1620.57,56.67,6061.00,1008.50
674,899.79,1624.49,47.59,6005.50,1025.50
676,900.10,1628.40,52.69,5951.00,1022.00
678,900.42,1632.31,43.73,5918.00,1042.50
680,900.74,1636.22,39.70,5806.50,992.50
682,901.05,1640.12,49.77,5840.00,1062.50
684,901.37,1644.02,97.22,5801.50,1016.00
686,901.69,1647.92,91.44,5769.00,1043.50
688,902.00,1651.82,88.36,5712.00,1023.00
690,902.32,1655.71,205.08,5774.00,1011.50
692,902.64,1659.60,152.89,5661.50,1010.50
694,902.95,1663.48,200.74,5708.00,1038.00
696,903.27,1667.36,210.38,5637.00,1017.00
698,903.59,1671.24,177.79,5598.00,1055.00
700,903.90,1675.11,166.72,5517.00,1039.00
702,904.22,1678.99,239.44,5497.00,987.50
704,904.54,1682.85,234.82,5534.50,1078.50
706,904.85,1686.72,226.30,5419.00,1007.50
708,905.17,1690.58,267.73,5427.00,1020.00
710,905.49,1694.44,294.03,5381.50,1009.50
712,905.80,1698.29,316.55,5380.50,1023.00
714,906.12,1702.15,334.09,5355.00,1027.00
716,906.43,1706.00,279.72,5250.50,1040.50
718,906.75,1709.84,244.82,5177.50,1059.00
720,907.07,1713.68,208.89,5038.00,1014.00
722,907.38,1717.52,177.78,4956.50,1030.50
724,907.70,1721.36,180.56,4895.50,1026.00
726,908.01,1725.19,119.08,4782.00,1029.50
728,908.33,1729.02,83.13,4706.50,1039.50
730,908.65,1732.85,60.46,4609.00,1029.50
732,908.96,1736.67,76.64,4592.00,1048.50
734,909.28,1740.49,50.13,4480.00,1020.00
736,909.59,1744.30,82.25,4498.50,1047.50
738,909.91,1748.12,57.38,4402.00,1025.50
740,910.22,1751.93,28.04,4332.00,1042.00
742,910.54,1755.73,48.07,4350.00,1095.00
744,910.85,1759.54,28.15,4260.00,1049.50
746,911.17,1763.34,0.00,4084.00,1017.00
748,911.49,1767.13,0.00,4089.00,1030.50
750,911.80,1770.93,0.00,4008.00,1001.00
752,912.12,1774.72,0.00,4021.50,1035.00
754,912.43,1778.50,0.00,3915.00,998.00
756,912.75,1782.29,0.28,3932.00,1009.50
758,913.06,1786.07,15.39,3915.00,998.00
760,913.38,1789.84,72.82,3951.00,1021.00
762,913.69,1793.62,22.00,3893.50,1040.00
764,914.01,1797.39,18.49,3853.00,1032.00
766,914.32,1801.15,2.30,3783.00,1013.00
768,914.64,1804.92,26.59,3792.00,1013.00
770,914.95,1808.68,5.05,3746.00,1032.50
772,915.26,1812.44,41.26,3757.50,1040.00
774,915.58,1816.19,18.41,3690.00,1002.50
776,915.89,1819.94,0.00,3643.50,1029.50
778,916.21,1823.69,39.02,3677.50,1029.00
780,916.52,1827.43,89.27,3720.50,1070.50
782,916.84,1831.17,47.51,3598.00,1005.50
784,917.15,1834.91,72.51,3601.00,1002.00
786,917.47,1838.64,32.34,3551.00,1032.00
788,917.78,1842.38,78.40,3566.50,1025.50
790,918.09,1846.10,113.89,3561.00,1014.00
792,918.41,1849.83,70.46,3512.50,1027.50
794,918.72,1853.55,95.38,3480.50,997.00
796,919.04,1857.27,109.03,3484.00,1015.00
798,919.35,1860.98,92.86,3445.00,1016.00
800,919.66,1864.69,118.18,3449.00,1026.50
802,919.98,1868.40,132.84,3439.50,1025.00
804,920.29,1872.11,134.20,3423.50,1030.50
806,920.60,1875.81,209.38,3459.50,1013.00
808,920.92,1879.51,205.29,3416.00,1006.50
810,921.23,1883.20,208.22,3410.00,1022.00
812,921.55,1886.90,221.00,3378.50,996.00
814,921.86,1890.58,185.55,3358.00,1041.50
816,922.17,1894.27,222.09,3371.00,1042.00
818,922.49,1897.95,203.98,3310.00,1036.00
820,922.80,1901.63,220.23,3278.00,1010.00
822,923.11,1905.31,205.37,3242.00,1015.00
824,923.42,1908.98,194.08,3212.50,1024.50
826,923.74,1912.65,192.31,3201.50,1040.50
828,924.05,1916.31,186.00,3137.50,1014.00
830,924.36,1919.98,201.24,3121.50,1012.50
832,924.68,1923.64,201.27,3090.00,1007.50
834,924.99,1927.29,205.64,3079.50,1011.00
836,925.30,1930.94,182.86,3008.00,991.50
838,925.61,1934.59,202.12,3029.00,1022.00
840,925.93,1938.24,202.67,2991.00,1011.00
842,926.24,1941.88,178.97,2953.50,1027.00
844,926.55,1945.52,204.41,2937.50,1006.50
846,926.86,1949.16,161.28,2888.00,1024.50
848,927.18,1952.79,193.92,2865.50,1000.00
850,927.49,1956.42,202.60,2849.00,1003.50
852,927.80,1960.05,147.16,2889.00,1119.00
854,928.11,1963.67,167.73,2791.50,1024.50
856,928.42,1967.29,173.86,2778.00,1035.00
858,928.74,1970.91,152.68,2712.50,1020.00
860,929.05,1974.52,145.10,2674.50,1016.00
862,929.36,1978.13,143.88,2641.50,1009.50
864,929.67,1981.74,100.83,2583.50,1020.50
866,929.98,1985.35,98.48,2555.50,1021.00
868,930.29,1988.95,84.11,2522.50,1029.50
870,930.61,1992.54,51.84,2445.00,1007.50
872,930.92,1996.14,45.62,2428.50,1018.00
874,931.23,1999.73,26.70,2385.00,1023.50
876,931.54,2003.32,48.97,2384.50,1026.50
878,931.85,2006.90,55.33,2364.00,1018.00
880,932.16,2010.48,30.95,2312.00,1011.00
882,932.47,2014.06,45.61,2291.00,1004.50
884,932.78,2017.63,59.45,2283.50,1021.00
886,933.09,2021.21,34.58,2254.00,1022.00
888,933.41,2024.77,3.62,2212.00,1037.00
890,933.72,2028.34,11.10,2222.50,1059.00
892,934.03,2031.90,0.00,2144.00,1033.00
894,934.34,2035.46,21.17,2152.50,1029.00
896,934.65,2039.01,9.02,2095.00,1005.50
898,934.96,2042.57,6.31,2115.50,1042.50
900,935.27,2046.11,0.00,2107.00,1064.50
902,935.58,2049.66,0.00,2020.50,995.00
904,935.89,2053.20,21.25,2044.50,1018.00
906,936.20,2056.74,22.47,2028.00,1014.50
908,936.51,2060.28,20.03,2009.00,1018.00
910,936.82,2063.81,27.33,2024.00,1036.00
912,937.13,2067.34,0.14,1967.00,1028.50
914,937.44,2070.86,0.99,1943.00,1019.00
916,937.75,2074.39,22.58,1927.50,1001.50
918,938.06,2077.91,0.00,1899.00,1013.00
920,938.37,2081.42,1.56,1897.00,1023.50
922,938.68,2084.94,2.21,1871.00,1011.00
924,938.99,2088.45,0.00,1849.50,1016.00
926,939.30,2091.95,15.12,1879.50,1036.00
928,939.60,2095.46,57.14,1864.00,1010.00
930,939.91,2098.96,11.40,1868.50,1051.50
932,940.22,2102.45,0.00,1815.50,1034.00
934,940.53,2105.95,26.44,1794.00,994.00
936,940.84,2109.44,0.00,1764.00,1020.00
938,941.15,2112.92,19.05,1799.50,1025.00
940,941.46,2116.41,0.00,1753.00,1013.00
942,941.77,2119.89,0.00,1760.00,1038.00
944,942.07,2123.37,0.01,1746.00,1019.00
946,942.38,2126.84,0.00,1752.50,1044.50
948,942.69,2130.31,0.00,1749.00,1038.00
950,943.00,2133.78,0.00,1730.50,1019.00
952,943.31,2137.24,10.61,1748.00,1023.50
954,943.62,2140.70,38.57,1764.50,1026.50
956,943.92,2144.16,10.22,1737.50,1020.00
958,944.23,2147.62,16.71,1747.00,1029.50
960,944.54,2151.07,16.63,1755.50,1041.50
962,944.85,2154.52,13.15,1776.50,1058.00
964,945.16,2157.96,9.42,1749.00,1040.00
966,945.46,2161.40,41.45,1768.00,1038.00
968,945.77,2164.84,48.46,1710.00,981.00
970,946.08,2168.28,55.58,1759.50,1022.00
972,946.39,2171.71,51.89,1750.00,1016.00
974,946.69,2175.14,85.61,1790.50,1020.00
976,947.00,2178.57,128.99,1821.00,1016.50
978,947.31,2181.99,172.77,1827.00,997.00
980,947.61,2185.41,224.47,1898.50,1029.50
982,947.92,2188.82,235.56,1898.50,1023.00
984,948.23,2192.24,239.58,1885.50,999.00
986,948.53,2195.65,224.12,1897.00,1023.00
988,948.84,2199.05,253.94,1865.50,977.00
990,949.15,2202.46,282.50,1928.50,1022.00
992,949.45,2205.86,250.77,1901.00,1028.00
994,949.76,2209.25,257.36,1867.50,997.00
996,950.07,2212.65,181.90,1833.50,1017.00
998,950.37,2216.04,132.37,1773.00,999.00
1000,950.68,2219.43,149.10,1798.50,1020.00
1002,950.98,2222.81,124.32,1780.50,1030.50
1004,951.29,2226.19,136.32,1759.50,1003.00
1006,951.60,2229.57,99.35,1715.00,992.50
1008,951.90,2232.94,95.39,1714.50,998.00
1010,952.21,2236.32,116.07,1738.50,1008.50
1012,952.51,2239.68,98.33,1736.50,1026.00
1014,952.82,2243.05,100.24,1694.50,985.50
1016,953.12,2246.41,74.11,1737.50,1053.00
1018,953.43,2249.77,97.86,1774.50,1070.50
1020,953.73,2253.12,98.66,1748.00,1045.50
1022,954.04,2256.48,89.53,1678.00,987.50
1024,954.34,2259.83,141.83,1770.00,1046.50
1026,954.65,2263.17,153.26,1731.00,1004.00
1028,954.95,2266.51,128.05,1734.50,1020.50
1030,955.26,2269.85,124.10,1763.50,1053.00
1032,955.56,2273.19,151.71,1754.50,1031.50
1034,955.87,2276.52,191.51,1777.50,1033.00
1036,956.17,2279.85,160.97,1776.50,1050.00
1038,956.48,2283.18,135.46,1698.00,993.50
1040,956.78,2286.50,168.53,1714.50,994.50
1042,957.08,2289.82,144.22,1691.00,992.50
1044,957.39,2293.14,126.49,1711.00,1024.00
1046,957.69,2296.45,88.39,1652.00,1000.00
1048,957.99,2299.76,90.25,1693.00,1049.50
1050,958.30,2303.07,84.09,1660.50,1026.00
1052,958.60,2306.38,35.26,1621.50,1021.00
1054,958.91,2309.68,12.35,1601.00,1020.00
1056,959.21,2312.98,4.86,1577.50,1007.00
1058,959.51,2316.27,20.28,1595.00,1009.50
1060,959.82,2319.56,23.82,1628.50,1049.00
1062,960.12,2322.85,68.09,1602.50,998.00
1064,960.42,2326.14,71.26,1600.50,1000.00
1066,960.72,2329.42,86.00,1627.50,1019.00
1068,961.03,2332.70,37.53,1618.00,1037.00
1070,961.33,2335.97,29.97,1604.00,1024.50
1072,961.63,2339.25,12.63,1567.50,1014.00
1074,961.93,2342.52,57.65,1594.50,1019.00
1076,962.24,2345.78,26.44,1572.00,1015.00
1078,962.54,2349.05,0.00,1563.00,1033.00
1080,962.84,2352.31,24.89,1565.50,1011.50
1082,963.14,2355.56,7.30,1547.50,1008.50
1084,963.45,2358.82,15.23,1555.00,1014.00
1086,963.75,2362.07,32.59,1576.00,1027.50
1088,964.05,2365.32,7.91,1593.50,1058.00
1090,964.35,2368.56,0.00,1549.00,1024.50
1092,964.65,2371.80,29.02,1583.00,1041.00
1094,964.95,2375.04,0.00,1538.00,1032.00
1096,965.25,2378.27,0.00,1520.00,1004.00
1098,965.56,2381.51,3.75,1565.50,1027.50
1100,965.86,2384.73,11.41,1564.50,1022.00
1102,966.16,2387.96,63.34,1596.00,1013.50
1104,966.46,2391.18,88.48,1644.50,1045.00
1106,966.76,2394.40,112.40,1641.50,1020.00
1108,967.06,2397.62,145.33,1688.50,1037.00
1110,967.36,2400.83,169.98,1672.00,1005.00
1112,967.66,2404.04,217.61,1755.00,1060.00
1114,967.96,2407.25,260.27,1722.00,996.00
1116,968.26,2410.45,232.55,1736.50,1016.00
1118,968.56,2413.65,201.93,1718.50,1014.00
1120,968.86,2416.85,241.17,1783.00,1054.00
1122,969.16,2420.04,230.14,1741.00,1020.00
1124,969.46,2423.23,270.30,1762.00,1008.50
1126,969.76,2426.42,246.34,1768.00,1026.50
1128,970.06,2429.60,286.69,1762.00,997.00
1130,970.36,2432.79,304.61,1781.00,1009.50
1132,970.66,2435.96,312.66,1784.00,1009.50
1134,970.96,2439.14,270.39,1767.00,1012.00
1136,971.26,2442.31,193.14,1755.50,1043.00
1138,971.56,2445.48,216.06,1748.50,1027.00
1140,971.86,2448.65,158.61,1697.00,1008.50
1142,972.16,2451.81,68.76,1676.50,1040.00
1144,972.45,2454.97,41.95,1644.50,1027.00
1146,972.75,2458.13,30.58,1645.50,1023.00
1148,973.05,2461.28,0.00,1598.50,1018.00
1150,973.35,2464.43,0.88,1627.50,1028.00
1152,973.65,2467.58,0.00,1618.50,1030.50
1154,973.95,2470.72,0.92,1619.00,1013.00
1156,974.24,2473.86,1.36,1627.00,1014.00
1158,974.54,2477.00,0.00,1602.50,999.50
1160,974.84,2480.13,16.61,1679.00,1041.00
1162,975.14,2483.27,49.89,1674.50,1009.50
1164,975.43,2486.40,89.88,1689.50,999.00
1166,975.73,2489.52,73.02,1706.00,1014.00
1168,976.03,2492.64,50.33,1698.00,1011.00
1170,976.33,2495.76,59.61,1734.00,1038.00
1172,976.62,2498.88,48.67,1708.00,1006.50
1174,976.92,2501.99,10.87,1731.00,1044.00
1176,977.22,2505.10,54.63,1752.00,1027.50
1178,977.51,2508.21,41.95,1733.00,1014.00
1180,977.81,2511.31,51.22,1754.00,1021.00
1182,978.11,2514.41,78.42,1767.00,1015.00
1184,978.40,2517.51,80.77,1777.00,1023.00
1186,978.70,2520.61,97.73,1791.50,1025.50
1188,979.00,2523.70,85.94,1808.00,1035.00
1190,979.29,2526.79,0.38,1749.00,1017.00
1192,979.59,2529.87,1.93,1776.50,1028.50
1194,979.88,2532.95,0.00,1746.00,1003.00
1196,980.18,2536.03,0.00,1763.00,1036.00
1198,980.48,2539.11,0.00,1804.00,1046.50
1200,980.77,2542.18,1.66,1810.00,1024.00
1202,981.07,2545.25,0.00,1847.00,1054.00
1204,981.36,2548.32,28.07,1865.50,1026.50
1206,981.66,2551.38,81.56,1931.50,1043.00
1208,981.95,2554.44,159.60,1950.50,1019.00
1210,982.25,2557.50,157.98,2009.00,1059.00
1212,982.54,2560.56,134.84,2017.50,1047.50
1214,982.84,2563.61,168.67,2067.00,1054.50
1216,983.13,2566.66,228.96,2098.50,1043.00
1218,983.43,2569.70,353.19,2180.00,1048.50
1220,983.72,2572.74,441.14,2244.50,1049.50
1222,984.01,2575.78,537.96,2303.50,1042.00
1224,984.31,2578.82,674.10,2348.50,1006.00
1226,984.60,2581.85,784.66,2443.50,1029.50
1228,984.90,2584.88,848.79,2470.50,1014.00
1230,985.19,2587.91,991.08,2550.00,1021.00
1232,985.48,2590.93,945.68,2558.50,1042.00
1234,985.78,2593.96,864.86,2537.50,1042.00
1236,986.07,2596.97,776.11,2512.00,1039.00
1238,986.36,2599.99,640.23,2496.00,1067.50
1240,986.66,2603.00,555.65,2458.00,1060.00
1242,986.95,2606.01,486.15,2420.50,1062.00
1244,987.24,2609.01,444.45,2377.50,1043.00
1246,987.54,2612.02,288.80,2277.50,987.50
1248,987.83,2615.02,78.77,2276.50,1059.00
1250,988.12,2618.01,24.00,2255.00,1055.00
1252,988.41,2621.01,1.74,2227.50,1041.00
1254,988.71,2624.00,0.00,2204.50,1021.00
1256,989.00,2626.99,0.00,2243.50,1044.00
1258,989.29,2629.97,15.92,2275.00,1042.50
1260,989.58,2632.95,0.00,2287.00,1046.50
1262,989.87,2635.93,0.00,2292.00,1054.00
1264,990.16,2638.91,0.00,2269.00,1023.50
1266,990.46,2641.88,0.00,2327.00,1047.50
1268,990.75,2644.85,0.00,2377.00,1078.00
1270,991.04,2647.81,0.00,2399.00,1036.00
1272,991.33,2650.78,12.59,2492.00,1042.00
1274,991.62,2653.74,133.96,2573.00,1034.00
1276,991.91,2656.70,324.61,2658.00,1031.00
1278,992.20,2659.65,608.92,2818.50,1047.50
1280,992.49,2662.60,675.33,2859.50,1029.50
1282,992.78,2665.55,778.96,2973.50,1064.50
1284,993.07,2668.50,801.58,3022.00,1063.50
1286,993.36,2671.44,626.51,2997.50,1064.50
1288,993.65,2674.38,563.40,3025.50,1072.00
1290,993.94,2677.31,544.58,3028.50,1047.50
1292,994.23,2680.25,724.19,3138.50,1052.00
1294,994.52,2683.18,884.38,3211.50,1044.00
1296,994.81,2686.10,1091.55,3309.50,1047.50
1298,995.10,2689.03,1342.39,3418.00,1039.00
1300,995.39,2691.95,1335.12,3440.50,1028.50
1302,995.68,2694.87,1214.54,3484.00,1070.00
1304,995.97,2697.78,1045.26,3472.00,1078.00
1306,996.26,2700.70,1158.14,3505.00,1021.00
1308,996.55,2703.61,1423.77,3688.50,1055.00
1310,996.84,2706.51,1784.00,3887.50,1059.00
1312,997.13,2709.42,2470.86,4202.50,1060.00
1314,997.41,2712.32,3510.29,4595.50,1063.50
1316,997.70,2715.21,4754.74,4994.00,1041.00
1318,997.99,2718.11,5780.31,5374.00,1047.00
1320,998.28,2721.00,6166.45,5596.00,1035.00
1322,998.57,2723.89,6164.82,5772.00,1078.50
1324,998.86,2726.77,6740.58,6001.50,1021.50
1326,999.14,2729.66,7885.40,6406.50,1052.50
1328,999.43,2732.54,9345.37,6814.00,1058.00
1330,999.72,2735.41,10521.64,7125.50,1045.50
1332,1000.01,2738.29,10091.61,7021.00,1076.00
1334,1000.29,2741.16,8882.35,6631.50,1046.50
1336,1000.58,2744.03,7486.25,6157.00,1030.00
1338,1000.87,2746.89,5929.95,5672.00,1068.00
1340,1001.15,2749.75,4303.01,5103.50,1046.50
1342,1001.44,2752.61,3035.11,4658.50,1052.50
1344,1001.73,2755.47,2225.69,4320.50,1028.50
1346,1002.01,2758.32,1649.52,4107.50,1044.50
1348,1002.30,2761.17,1149.09,3950.00,1076.00
1350,1002.59,2764.02,756.90,3828.00,1078.00
1352,1002.87,2766.86,310.61,3689.00,1047.50
1354,1003.16,2769.70,34.23,3595.50,1043.00
1356,1003.44,2772.54,0.00,3539.00,1026.50
1358,1003.73,2775.38,0.00,3554.50,1039.00
1360,1004.01,2778.21,0.00,3508.00,1022.00
1362,1004.30,2781.04,0.00,3562.00,1046.50
1364,1004.58,2783.87,0.00,3544.00,1031.00
1366,1004.87,2786.69,0.00,3614.00,1007.50
1368,1005.15,2789.51,0.00,3768.00,1051.50
1370,1005.44,2792.33,0.00,3864.00,1076.00
1372,1005.72,2795.14,0.00,3935.00,1067.50
1374,1006.01,2797.95,0.00,4124.50,1075.00
1376,1006.29,2800.76,0.00,4255.50,1031.50
1378,1006.58,2803.57,0.25,4498.00,1086.50
1380,1006.86,2806.37,40.60,4670.50,1030.50
1382,1007.14,2809.17,301.96,4914.00,1044.50
1384,1007.43,2811.97,961.23,5191.50,1037.00
1386,1007.71,2814.77,2143.18,5540.00,1028.50
1388,1008.00,2817.56,3292.17,5846.50,1031.50
1390,1008.28,2820.35,4619.61,6257.50,1061.00
1392,1008.56,2823.13,6198.08,6689.50,1030.50
1394,1008.85,2825.91,8109.86,7278.00,1058.00
1396,1009.13,2828.69,10009.11,7839.50,1048.00
1398,1009.41,2831.47,12283.04,8559.50,1071.50
1400,1009.69,2834.24,14999.62,9314.00,1024.00
1402,1009.98,2837.02,18689.50,10354.50,1043.50
1404,1010.26,2839.78,23144.12,11535.50,1072.00
1406,1010.54,2842.55,27747.04,12685.50,1029.50
1408,1010.82,2845.31,31649.49,13846.00,1047.50
1410,1011.11,2848.07,34621.49,14955.00,1075.00
1412,1011.39,2850.83,38724.00,16452.50,1076.00
1414,1011.67,2853.58,45900.21,18674.50,1050.50
1416,1011.95,2856.33,58382.82,22056.50,1058.00
1418,1012.23,2859.08,75566.40,26188.50,1061.00
1420,1012.51,2861.83,95155.73,30733.00,1039.00
1422,1012.80,2864.57,109508.31,34415.00,1095.00
1424,1013.08,2867.31,117497.19,36850.00,1089.00
1426,1013.36,2870.04,125974.29,39075.00,1083.50
1428,1013.64,2872.78,137081.98,41078.50,1054.50
1430,1013.92,2875.51,146416.59,42509.50,1098.50
1432,1014.20,2878.24,142013.49,41295.00,1063.00
1434,1014.48,2880.96,128623.68,38547.00,1051.00
1436,1014.76,2883.68,116392.71,35815.00,1038.00
1438,1015.04,2886.40,109325.88,33871.50,1046.50
1440,1015.32,2889.12,106048.34,32686.00,1080.00
1442,1015.60,2891.83,105260.09,32112.50,1043.50
1444,1015.88,2894.54,106821.36,32238.00,1074.00
1446,1016.16,2897.25,111246.12,32900.50,1028.50
1448,1016.44,2899.96,118138.08,34116.50,1069.50
1450,1016.72,2902.66,124993.69,35250.50,1058.00
1452,1017.00,2905.36,128861.93,35813.50,1084.00
1454,1017.28,2908.06,130430.81,35906.50,1051.50
1456,1017.55,2910.75,128432.61,35241.00,1075.00
1458,1017.83,2913.44,125656.06,34306.00,1031.00
1460,1018.11,2916.13,120761.58,32991.50,1064.00
1462,1018.39,2918.81,113917.14,31324.50,1072.00
1464,1018.67,2921.49,106869.02,29719.00,1060.50
1466,1018.95,2924.17,100788.07,28405.00,1069.00
1468,1019.22,2926.85,97862.30,27679.50,1071.00
1470,1019.50,2929.52,100548.07,27844.00,1030.00
1472,1019.78,2932.20,107358.00,28527.50,1032.00
1474,1020.06,2934.86,115226.41,29278.00,1049.50
1476,1020.33,2937.53,116521.63,29010.50,1087.00
1478,1020.61,2940.19,107908.62,27250.50,1063.00
1480,1020.89,2942.85,94063.60,24721.00,1077.00
1482,1021.17,2945.51,81106.77,22145.50,1056.00
1484,1021.44,2948.16,71882.97,20097.00,1062.50
1486,1021.72,2950.81,66385.66,18690.50,1055.00
1488,1022.00,2953.46,63617.19,17840.00,1079.00
1490,1022.27,2956.11,63270.14,17383.50,1051.00
1492,1022.55,2958.75,64662.55,17290.50,1078.50
1494,1022.82,2961.39,65403.41,17010.50,1060.50
1496,1023.10,2964.03,64426.87,16514.00,1088.00
1498,1023.38,2966.66,60099.60,15493.50,1060.00
1500,1023.65,2969.29,52042.18,13976.50,1073.00
1502,1023.93,2971.92,42648.75,12232.00,1092.00
1504,1024.20,2974.55,34550.01,10602.50,1063.50
1506,1024.48,2977.17,27557.40,9111.00,1054.00
1508,1024.75,2979.79,22492.61,7961.50,1032.00
1510,1025.03,2982.41,18327.55,7048.50,1053.00
1512,1025.30,2985.02,14713.54,6235.50,1037.00
1514,1025.58,2987.63,11876.65,5627.50,1053.00
1516,1025.85,2990.24,9518.47,5081.50,1030.50
1518,1026.13,2992.85,7859.62,4740.00,1064.50
1520,1026.40,2995.45,6112.23,4354.50,1058.00
1522,1026.68,2998.05,4653.80,4038.50,1050.50
1524,1026.95,3000.65,3411.84,3807.50,1077.00
1526,1027.22,3003.25,2314.90,3548.50,1052.50
1528,1027.50,3005.84,1558.80,3358.00,1035.00
1530,1027.77,3008.43,903.30,3238.00,1059.00
1532,1028.04,3011.02,414.22,3111.00,1061.00
1534,1028.32,3013.60,51.28,2919.50,1056.00
1536,1028.59,3016.18,0.00,2810.00,1062.50
1538,1028.86,3018.76,101.88,2685.00,995.00
1540,1029.14,3021.34,0.00,2618.50,1057.00
1542,1029.41,3023.91,0.00,2524.50,1038.00
1544,1029.68,3026.48,0.00,2439.00,1020.00
1546,1029.95,3029.05,0.00,2378.00,1049.00
1548,1030.22,3031.61,0.00,2276.00,1036.00
1550,1030.50,3034.17,0.00,2226.50,1030.50
1552,1030.77,3036.73,0.00,2193.50,1041.00
1554,1031.04,3039.29,0.00,2155.00,1051.50
1556,1031.31,3041.84,0.00,2053.50,1007.50
1558,1031.58,3044.39,0.00,2082.00,1079.50
1560,1031.85,3046.94,0.00,2040.00,1076.00
1562,1032.13,3049.49,0.00,1952.00,1035.00
1564,1032.40,3052.03,0.00,1968.00,1072.00
1566,1032.67,3054.57,0.00,1893.00,1034.00
1568,1032.94,3057.11,0.28,1938.00,1088.00
1570,1033.21,3059.64,0.00,1834.00,1014.50
1572,1033.48,3062.18,106.26,1872.00,1062.50
1574,1033.75,3064.70,0.00,1809.00,1062.00
1576,1034.02,3067.23,253.77,1844.00,1069.00
1578,1034.29,3069.75,0.00,1728.00,1022.50
1580,1034.56,3072.28,0.00,1761.50,1062.00
1582,1034.83,3074.79,23.47,1706.00,1016.00
1584,1035.10,3077.31,10.28,1735.50,1067.00
1586,1035.37,3079.82,95.60,1697.50,1034.50
1588,1035.64,3082.33,19.06,1723.00,1083.50
1590,1035.91,3084.84,0.00,1675.00,1070.50
1592,1036.17,3087.34,14.42,1647.50,1037.00
1594,1036.44,3089.85,39.42,1691.50,1089.50
1596,1036.71,3092.35,0.00,1614.50,1040.00
1598,1036.98,3094.84,0.00,1592.00,1029.50
1600,1037.25,3097.34,0.00,1589.50,1021.00
1602,1037.52,3099.83,18.24,1606.50,1042.50
1604,1037.78,3102.32,42.81,1612.50,1052.00
1606,1038.05,3104.80,31.89,1630.50,1075.00
1608,1038.32,3107.29,10.06,1595.00,1051.00
1610,1038.59,3109.77,138.25,1591.00,1039.00
1612,1038.85,3112.24,87.76,1571.50,1033.50
1614,1039.12,3114.72,68.08,1599.00,1065.50
1616,1039.39,3117.19,0.00,1535.50,1020.00
1618,1039.66,3119.66,0.00,1567.50,1067.50
1620,1039.92,3122.13,142.96,1587.50,1065.50
1622,1040.19,3124.59,0.00,1555.50,1057.50
1624,1040.45,3127.05,63.21,1542.00,1032.00
1626,1040.72,3129.51,5.37,1562.00,1065.50
1628,1040.99,3131.97,162.28,1588.50,1067.50
1630,1041.25,3134.42,247.07,1597.00,1081.00
1632,1041.52,3136.87,417.28,1552.50,1024.50
1634,1041.78,3139.32,330.63,1572.50,1054.00
1636,1042.05,3141.77,347.75,1652.00,1135.50
1638,1042.32,3144.21,516.94,1571.00,1042.00
1640,1042.58,3146.65,630.51,1618.50,1083.50
1642,1042.85,3149.09,656.38,1583.00,1049.50
1644,1043.11,3151.52,556.38,1573.00,1054.00
1646,1043.38,3153.96,557.69,1583.50,1068.50
1648,1043.64,3156.39,795.18,1582.50,1044.00
1650,1043.90,3158.81,714.97,1588.50,1062.50
1652,1044.17,3161.24,809.47,1614.50,1085.50
1654,1044.43,3163.66,1220.72,1600.50,1039.00
1656,1044.70,3166.08,1321.92,1663.50,1100.00
1658,1044.96,3168.49,1547.91,1635.00,1051.50
1660,1045.22,3170.91,1425.67,1617.50,1048.50
1662,1045.49,3173.32,1492.61,1623.50,1052.00
1664,1045.75,3175.73,1704.73,1648.00,1059.50
1666,1046.01,3178.13,1770.89,1633.00,1042.00
1668,1046.28,3180.54,1992.81,1679.50,1074.00
1670,1046.54,3182.94,2262.55,1690.00,1068.50
1672,1046.80,3185.34,2267.93,1670.50,1055.00
1674,1047.07,3187.73,2179.65,1647.00,1043.50
1676,1047.33,3190.12,2517.32,1686.50,1056.00
1678,1047.59,3192.51,2807.30,1715.00,1064.50
1680,1047.85,3194.90,2817.21,1732.50,1089.00
1682,1048.11,3197.29,3037.42,1732.00,1075.00
1684,1048.38,3199.67,2958.14,1718.50,1072.00
1686,1048.64,3202.05,3043.23,1734.50,1082.00
1688,1048.90,3204.43,3121.40,1715.50,1062.50
1690,1049.16,3206.80,3382.50,1718.50,1054.00
1692,1049.42,3209.17,3659.83,1746.00,1067.50
1694,1049.68,3211.54,3843.59,1736.50,1047.50
1696,1049.94,3213.91,4011.50,1751.50,1053.00
1698,1050.20,3216.27,3998.04,1758.50,1068.50
1700,1050.46,3218.63,3973.53,1768.00,1087.50
1702,1050.72,3220.99,4246.60,1768.00,1069.50
1704,1050.98,3223.35,4188.18,1768.00,1077.50
1706,1051.24,3225.70,4390.77,1762.00,1060.00
1708,1051.50,3228.05,4477.38,1734.00,1036.00
1710,1051.76,3230.40,4618.60,1781.00,1084.50
1712,1052.02,3232.75,5055.61,1790.00,1065.00
1714,1052.28,3235.09,4646.97,1777.00,1083.50
1716,1052.54,3237.43,4705.56,1756.50,1062.00
1718,1052.80,3239.77,5143.54,1766.00,1049.50
1720,1053.06,3242.11,5417.81,1782.00,1056.00
1722,1053.32,3244.44,5191.00,1747.00,1044.00
1724,1053.58,3246.77,5548.43,1815.50,1091.00
1726,1053.84,3249.10,5484.56,1773.50,1061.00
1728,1054.10,3251.42,5587.49,1778.50,1064.50
1730,1054.35,3253.75,5585.91,1765.00,1057.00
1732,1054.61,3256.07,5661.39,1787.50,1083.00
1734,1054.87,3258.39,6138.04,1783.00,1056.00
1736,1055.13,3260.70,6127.35,1770.00,1052.50
1738,1055.38,3263.01,6035.19,1767.00,1059.00
1740,1055.64,3265.32,5907.35,1762.50,1065.50
1742,1055.90,3267.63,6107.05,1745.00,1040.50
1744,1056.16,3269.94,6207.70,1795.50,1094.50
1746,1056.41,3272.24,6174.10,1787.00,1098.00
1748,1056.67,3274.54,6132.56,1755.00,1076.00
1750,1056.93,3276.84,6095.11,1745.00,1074.00
1752,1057.18,3279.13,6364.98,1728.00,1043.50
1754,1057.44,3281.42,6038.45,1703.50,1045.00
1756,1057.69,3283.71,6110.04,1716.50,1060.50
1758,1057.95,3286.00,6383.59,1754.50,1091.00
1760,1058.21,3288.28,6144.86,1684.00,1045.50
1762,1058.46,3290.57,6619.30,1746.00,1085.50
1764,1058.72,3292.85,6507.12,1715.00,1065.50
1766,1058.97,3295.12,6478.88,1689.00,1043.50
1768,1059.23,3297.40,6269.67,1675.50,1048.00
1770,1059.48,3299.67,6662.46,1719.50,1077.00
1772,1059.74,3301.94,6417.47,1650.00,1030.50
1774,1059.99,3304.21,6521.59,1689.00,1070.00
1776,1060.25,3306.47,6545.22,1703.50,1090.00
1778,1060.50,3308.73,6217.79,1650.00,1061.00
1780,1060.76,3310.99,6283.84,1647.50,1058.00
1782,1061.01,3313.25,6088.49,1636.00,1062.00
1784,1061.26,3315.50,6564.92,1651.50,1058.00
1786,1061.52,3317.76,6500.84,1651.00,1070.00
1788,1061.77,3320.01,6352.76,1657.00,1092.00
1790,1062.02,3322.25,6623.30,1615.00,1040.00
1792,1062.28,3324.50,6290.37,1615.00,1059.00
1794,1062.53,3326.74,6053.68,1580.00,1040.00
1796,1062.78,3328.98,6703.75,1619.00,1054.00
1798,1063.04,3331.22,6590.66,1612.00,1064.50
1800,1063.29,3333.45,6647.01,1596.00,1052.00
1802,1063.54,3335.68,7067.26,1612.00,1048.00
1804,1063.79,3337.91,6320.37,1603.50,1079.00
1806,1064.05,3340.14,6189.44,1622.50,1110.00
1808,1064.30,3342.36,6590.41,1561.00,1037.00
1810,1064.55,3344.59,6648.55,1593.50,1074.00
1812,1064.80,3346.81,6207.67,1556.00,1061.50
1814,1065.05,3349.02,6456.80,1544.50,1040.00
1816,1065.30,3351.24,6186.70,1569.50,1082.50
1818,1065.55,3353.45,6377.57,1547.50,1059.00
1820,1065.81,3355.66,6267.36,1588.50,1112.00
1822,1066.06,3357.87,6189.74,1523.50,1054.00
1824,1066.31,3360.07,6007.01,1493.50,1036.00
1826,1066.56,3362.27,6434.60,1536.50,1066.00
1828,1066.81,3364.47,6267.14,1500.00,1043.00
1830,1067.06,3366.67,6430.21,1514.50,1053.00
1832,1067.31,3368.87,5957.66,1499.50,1062.50
1834,1067.56,3371.06,6544.47,1469.00,1013.50
1836,1067.81,3373.25,6510.69,1467.00,1019.50
1838,1068.06,3375.44,5854.27,1457.50,1040.00
1840,1068.31,3377.62,6106.74,1465.00,1038.00
1842,1068.56,3379.81,6074.47,1452.50,1031.50
1844,1068.80,3381.99,5824.57,1496.50,1093.00
1846,1069.05,3384.16,6308.20,1482.00,1064.50
1848,1069.30,3386.34,6046.11,1454.50,1050.50
1850,1069.55,3388.51,5937.92,1437.00,1040.00
1852,1069.80,3390.68,5656.56,1437.50,1056.00
1854,1070.05,3392.85,6318.51,1512.00,1108.50
1856,1070.30,3395.02,5180.28,1413.00,1058.00
1858,1070.54,3397.18,5814.18,1404.00,1029.00
1860,1070.79,3399.34,6212.12,1435.50,1049.00
1862,1071.04,3401.50,5573.46,1403.50,1043.50
1864,1071.29,3403.66,5466.48,1376.50,1025.00
1866,1071.53,3405.81,5623.71,1407.00,1057.00
1868,1071.78,3407.96,5905.17,1396.50,1041.50
1870,1072.03,3410.11,5432.43,1396.50,1058.00
1872,1072.27,3412.26,5103.14,1390.00,1061.00
1874,1072.52,3414.40,4807.79,1368.00,1051.50
1876,1072.77,3416.54,5136.96,1354.00,1033.00
1878,1073.01,3418.68,5750.37,1403.00,1070.00
1880,1073.26,3420.82,5526.45,1325.00,1005.00
1882,1073.51,3422.96,5699.61,1378.50,1053.00
1884,1073.75,3425.09,4642.82,1349.00,1059.00
1886,1074.00,3427.22,5028.10,1326.50,1026.50
1888,1074.24,3429.35,5006.33,1372.00,1078.50
1890,1074.49,3431.47,5054.05,1324.00,1033.00
1892,1074.73,3433.59,4996.09,1307.50,1019.00
1894,1074.98,3435.71,4802.40,1361.50,1079.00
1896,1075.22,3437.83,4368.59,1322.50,1056.00
1898,1075.47,3439.95,4716.40,1332.00,1059.00
1900,1075.71,3442.06,4719.05,1340.50,1074.00
1902,1075.96,3444.17,5248.75,1328.50,1051.00
1904,1076.20,3446.28,4446.09,1240.00,987.50
1906,1076.44,3448.38,4182.28,1339.00,1094.00
1908,1076.69,3450.49,4165.06,1320.50,1078.50
1910,1076.93,3452.59,4585.32,1302.00,1052.00
1912,1077.17,3454.69,4267.26,1282.00,1043.00
1914,1077.42,3456.79,3777.66,1283.00,1058.00
1916,1077.66,3458.88,4042.15,1266.00,1036.00
1918,1077.90,3460.97,4435.29,1278.00,1043.50
1920,1078.15,3463.06,4772.20,1307.50,1068.50
1922,1078.39,3465.15,3976.72,1263.00,1045.50
1924,1078.63,3467.23,4064.63,1228.50,1007.50
1926,1078.87,3469.32,3677.03,1276.00,1068.00
1928,1079.12,3471.40,3793.80,1245.00,1038.00
1930,1079.36,3473.47,4027.47,1315.50,1106.00
1932,1079.60,3475.55,3686.41,1227.00,1029.00
1934,1079.84,3477.62,3533.55,1263.00,1070.50
1936,1080.08,3479.69,3651.78,1230.50,1035.00
1938,1080.33,3481.76,2500.44,1197.50,1032.00
1940,1080.57,3483.83,3062.85,1230.50,1051.00
1942,1080.81,3485.89,3047.70,1230.50,1054.00
1944,1081.05,3487.95,2688.22,1240.00,1076.00
1946,1081.29,3490.01,3320.26,1233.50,1057.00
1948,1081.53,3492.07,2941.77,1204.00,1039.00
1950,1081.77,3494.12,3389.02,1207.00,1032.50
1952,1082.01,3496.18,2753.60,1225.00,1067.00
1954,1082.25,3498.23,2816.12,1191.00,1033.00
1956,1082.49,3500.27,2594.14,1206.00,1054.00
1958,1082.73,3502.32,2961.69,1185.00,1024.50
1960,1082.97,3504.36,2820.55,1212.00,1057.00
1962,1083.21,3506.40,3395.35,1188.00,1024.00
1964,1083.45,3508.44,2779.96,1155.00,1008.00
1966,1083.69,3510.48,2971.30,1228.50,1078.50
1968,1083.93,3512.51,2688.79,1198.50,1054.50
1970,1084.16,3514.54,2051.12,1178.50,1048.50
1972,1084.40,3516.57,1961.50,1169.00,1041.50
1974,1084.64,3518.60,1352.14,1155.50,1043.00
1976,1084.88,3520.62,2118.42,1202.50,1075.00
1978,1085.12,3522.65,1904.15,1199.50,1078.50
1980,1085.36,3524.67,2130.51,1176.00,1051.50
1982,1085.59,3526.68,2159.29,1153.50,1029.50
1984,1085.83,3528.70,2034.22,1188.00,1068.00
1986,1086.07,3530.71,1983.81,1159.00,1041.50
1988,1086.31,3532.72,1575.17,1165.00,1057.00
1990,1086.54,3534.73,1471.90,1137.00,1032.50
1992,1086.78,3536.74,1810.78,1189.50,1080.00
1994,1087.02,3538.74,1457.18,1162.50,1060.00
1996,1087.25,3540.74,1432.20,1126.00,1023.00
1998,1087.49,3542.74,504.76,1149.00,1065.50
2000,1087.73,3544.74,1564.64,1147.00,1043.50
2002,1087.96,3546.74,1204.38,1144.50,1050.50
2004,1088.20,3548.73,1747.17,1177.00,1074.00
2006,1088.43,3550.72,2180.09,1150.00,1039.00
2008,1088.67,3552.71,1183.91,1132.00,1040.50
2010,1088.90,3554.69,1666.10,1114.00,1015.00
2012,1089.14,3556.68,1719.00,1150.50,1052.00
2014,1089.38,3558.66,981.00,1114.00,1029.50
2016,1089.61,3560.64,1571.56,1120.50,1026.50
2018,1089.84,3562.62,1529.03,1157.50,1065.50
2020,1090.08,3564.59,834.64,1114.00,1035.00
2022,1090.31,3566.56,2470.25,1127.50,1022.50
2024,1090.55,3568.53,1620.77,1111.00,1019.50
2026,1090.78,3570.50,985.28,1092.00,1012.00
2028,1091.02,3572.47,1387.17,1093.00,1008.50
2030,1091.25,3574.43,1468.88,1099.50,1014.00
2032,1091.48,3576.39,585.34,1059.50,986.50
2034,1091.72,3578.35,485.76,1070.00,997.00
2036,1091.95,3580.31,121.06,1093.00,1029.50
2038,1092.18,3582.26,243.99,1053.00,988.50
2040,1092.42,3584.22,686.47,1058.00,989.50
2042,1092.65,3586.17,895.02,1064.50,995.00
2044,1092.88,3588.12,987.18,1065.50,991.00
2046,1093.11,3590.06,0.00,1045.00,986.50
2047,1093.23,3591.03,84.75,1041.00,974.50