File: plugins/Raman/MatchingLibrary/785X/2-butanol.csv
ENLIGHTEN Version,4.1.22
Measurement ID,20250220-200309-358603-WP-01977
Serial Number,WP-01977
Model,WP-785X-F13-R-ILC
Detector,S16011-1106
Label,2-butanol
Declared Match,
Declared Score,0
Scan Averaging,2
Boxcar,0
Technique,Raman
Baseline Correction Algo,AirPLS
ROI Pixel Start,47
ROI Pixel End,2047
ROI Start Line,0
ROI Stop Line,63
CCD C4,1.38617e-12
Slit Width,25
Cropped,True
Interpolated,False
Wavenumber Correction,-0.100481
Raman Intensity Corrected,True
Deconvolved,True
Region,
High Gain Mode,False
Laser Power mW,
Electrical Dark Correction,False
Battery %,
Device ID,<DeviceID USB:0x24aa:0x1000:0:1>
FW Version,10.0.0.10
FPGA Version,035-001
BLE Version,
Prefix,enlighten
Suffix,
Preset,
Auto-Raman,True
Session Count,0
Plugin Name,
Integration Time,573
Timestamp,2025-02-20 20:03:09.358603
Note,
Temperature,0
CCD C0,793.274
CCD C1,0.153259
CCD C2,1.40788e-05
CCD C3,-1.132e-08
CCD Offset,0
CCD Gain,1.9
CCD Offset Odd,0
CCD Gain Odd,1.9
Laser Wavelength,785.032
Laser Enable,False
Laser Power %,0
Laser Temperature,0
Pixel Count,2048

Pixel,Wavelength,Wavenumber,Processed,Raw,Dark
0,793.27,132.25,NA,998.00,966.00
2,793.58,137.12,NA,1030.50,985.00
4,793.89,141.99,NA,1013.00,988.00
6,794.19,146.86,NA,1011.50,989.00
8,794.50,151.72,NA,1028.50,995.00
10,794.81,156.58,NA,1038.00,1002.50
12,795.12,161.44,NA,1009.50,975.50
14,795.42,166.30,NA,1016.50,976.00
16,795.73,171.16,NA,1017.00,987.50
18,796.04,176.01,NA,1047.50,1009.50
20,796.35,180.86,NA,1048.50,998.00
22,796.65,185.71,NA,1079.00,1030.00
24,796.96,190.56,NA,1047.50,995.00
26,797.27,195.41,NA,1071.50,1029.50
28,797.58,200.25,NA,1070.00,1015.00
30,797.88,205.09,NA,1048.50,990.50
32,798.19,209.93,NA,1043.50,996.00
34,798.50,214.77,NA,1057.00,1000.00
36,798.81,219.60,NA,1053.00,997.00
38,799.12,224.43,NA,1100.50,995.00
40,799.43,229.27,NA,1275.50,1021.00
42,799.74,234.09,NA,1897.00,1006.50
44,800.04,238.92,NA,2914.50,1045.50
46,800.35,243.75,NA,3374.00,1007.00
48,800.66,248.57,372.54,3597.00,1023.00
50,800.97,253.39,644.70,3826.50,1027.50
52,801.28,258.21,733.99,4005.00,1028.50
54,801.59,263.02,902.36,4193.00,1027.50
56,801.90,267.83,1065.53,4341.50,1020.00
58,802.21,272.65,1191.59,4450.50,1021.00
60,802.52,277.46,1100.22,4314.50,1017.00
62,802.83,282.26,966.72,4139.00,1038.00
64,803.14,287.07,684.72,3783.00,1042.50
66,803.45,291.87,417.21,3413.50,1037.00
68,803.76,296.67,241.93,3135.50,1032.00
70,804.07,301.47,121.36,2932.00,1022.00
72,804.38,306.26,38.40,2779.50,1011.50
74,804.69,311.06,0.96,2688.50,1017.00
76,805.00,315.85,0.01,2639.00,1009.00
78,805.31,320.64,0.00,2566.00,1021.00
80,805.62,325.42,0.00,2580.50,1029.50
82,805.93,330.21,0.00,2527.50,1023.00
84,806.24,334.99,0.00,2509.50,991.50
86,806.55,339.77,0.02,2572.00,1017.00
88,806.86,344.55,7.50,2612.50,1029.00
90,807.17,349.32,45.37,2630.00,1017.00
92,807.48,354.10,114.99,2725.50,1012.00
94,807.80,358.87,203.60,2896.50,1039.00
96,808.11,363.63,356.11,3112.00,1017.00
98,808.42,368.40,612.80,3513.50,1011.50
100,808.73,373.16,1112.51,4295.50,1004.00
102,809.04,377.93,2182.52,5611.50,1002.00
104,809.35,382.68,3184.03,6698.00,1006.50
106,809.66,387.44,2964.68,6579.00,1010.50
108,809.98,392.19,2200.86,5791.50,1000.50
110,810.29,396.95,1708.68,5199.00,1028.50
112,810.60,401.70,1703.62,5062.50,1014.00
114,810.91,406.44,1848.28,5126.50,1008.00
116,811.22,411.19,1720.68,5035.00,1025.50
118,811.54,415.93,1465.58,4801.50,1025.00
120,811.85,420.67,1540.73,4936.50,999.00
122,812.16,425.41,2033.66,5632.50,1017.00
124,812.47,430.14,2806.52,6564.50,1020.00
126,812.79,434.87,3299.78,7171.50,1008.50
128,813.10,439.60,3147.50,7040.50,993.00
130,813.41,444.33,2634.37,6435.00,1009.50
132,813.72,449.06,2148.32,5786.50,1001.00
134,814.04,453.78,1801.61,5341.50,1015.00
136,814.35,458.50,1829.06,5314.50,996.00
138,814.66,463.22,2033.52,5527.00,989.50
140,814.98,467.93,2186.24,5739.50,1004.00
142,815.29,472.65,2157.07,5744.00,1007.00
144,815.60,477.36,2090.32,5756.50,1017.00
146,815.92,482.06,2233.83,6131.50,982.50
148,816.23,486.77,2934.27,7575.00,1018.00
150,816.54,491.47,5117.02,11063.50,1046.50
152,816.86,496.17,9345.41,16347.00,998.00
154,817.17,500.87,12453.95,19773.50,1025.50
156,817.48,505.57,10535.71,17798.00,1001.00
158,817.80,510.26,6418.91,12759.00,1000.00
160,818.11,514.95,3455.49,8409.50,1013.00
162,818.42,519.64,1871.72,5728.00,1024.50
164,818.74,524.32,1147.13,4380.00,1006.50
166,819.05,529.00,687.36,3609.50,1018.00
168,819.37,533.68,448.28,3185.00,1003.00
170,819.68,538.36,286.65,2915.50,1015.00
172,819.99,543.04,207.91,2786.00,1030.50
174,820.31,547.71,105.28,2614.50,1006.50
176,820.62,552.38,54.50,2500.00,992.50
178,820.94,557.05,28.60,2457.00,994.00
180,821.25,561.71,0.46,2379.00,979.50
182,821.57,566.37,34.59,2441.00,992.50
184,821.88,571.03,82.45,2489.50,991.00
186,822.20,575.69,109.05,2562.00,1014.00
188,822.51,580.34,206.69,2709.50,1000.00
190,822.83,584.99,405.54,2978.00,1011.00
192,823.14,589.64,616.43,3189.50,1003.00
194,823.46,594.29,564.65,3128.50,1002.00
196,823.77,598.93,360.56,2865.00,1004.50
198,824.09,603.57,178.41,2557.00,982.00
200,824.40,608.21,88.81,2408.50,1007.00
202,824.72,612.85,58.62,2338.50,1016.00
204,825.03,617.48,14.56,2240.50,1008.50
206,825.35,622.11,2.66,2208.00,1018.00
208,825.66,626.74,0.00,2182.00,1015.00
210,825.98,631.36,1.29,2152.50,996.00
212,826.29,635.99,0.00,2136.00,1012.00
214,826.61,640.61,2.59,2126.50,1002.00
216,826.92,645.22,0.00,2089.50,997.00
218,827.24,649.84,0.00,2060.00,982.00
220,827.56,654.45,0.00,2083.50,1013.00
222,827.87,659.06,0.00,2084.00,1007.00
224,828.19,663.67,8.65,2096.00,999.00
226,828.50,668.27,4.56,2130.50,1041.00
228,828.82,672.87,0.00,2095.00,1018.00
230,829.13,677.47,0.00,2055.50,991.50
232,829.45,682.06,0.00,2068.50,1012.00
234,829.77,686.66,0.00,2126.50,1061.00
236,830.08,691.25,0.00,2085.50,1002.00
238,830.40,695.83,0.00,2084.00,992.50
240,830.72,700.42,0.00,2122.00,1000.00
242,831.03,705.00,0.00,2104.00,959.00
244,831.35,709.58,0.00,2183.50,997.50
246,831.66,714.15,0.00,2173.50,966.00
248,831.98,718.73,2.89,2261.50,987.00
250,832.30,723.30,11.85,2317.50,987.50
252,832.61,727.87,67.51,2463.00,1010.00
254,832.93,732.43,128.22,2538.00,963.00
256,833.25,736.99,227.78,2794.00,999.00
258,833.56,741.55,427.99,3159.50,1003.50
260,833.88,746.11,696.41,3649.00,990.50
262,834.20,750.66,1063.73,4396.50,994.00
264,834.51,755.22,1827.64,5882.50,1005.00
266,834.83,759.76,3138.18,8508.00,1014.00
268,835.15,764.31,5899.25,13410.50,1001.00
270,835.47,768.85,10854.00,20603.00,992.50
272,835.78,773.39,15357.66,26120.00,1005.50
274,836.10,777.93,14642.02,25540.00,996.50
276,836.42,782.46,9282.79,19294.00,1005.50
278,836.73,787.00,6526.19,14697.50,992.00
280,837.05,791.52,6437.01,13190.00,981.00
282,837.37,796.05,4837.78,10726.50,1013.00
284,837.69,800.57,2767.87,8016.50,987.50
286,838.00,805.09,2223.34,7612.50,989.50
288,838.32,809.61,3336.01,10828.00,997.00
290,838.64,814.13,9230.07,21825.50,1009.50
292,838.95,818.64,24566.99,39688.50,1000.50
294,839.27,823.15,28071.48,42921.00,998.00
296,839.59,827.65,12732.26,26760.00,1009.50
298,839.91,832.15,4338.33,12992.00,987.00
300,840.22,836.65,1952.84,7280.50,1033.00
302,840.54,841.15,1018.59,4955.50,987.50
304,840.86,845.65,520.53,3985.00,1020.00
306,841.18,850.14,244.10,3500.00,1011.50
308,841.50,854.63,46.61,3262.00,1056.00
310,841.81,859.11,3.17,3089.50,997.00
312,842.13,863.60,49.92,3259.00,1000.00
314,842.45,868.07,276.92,3503.00,989.00
316,842.77,872.55,388.54,3663.50,1005.50
318,843.08,877.03,258.68,3592.50,1038.00
320,843.40,881.50,225.21,3509.00,976.00
322,843.72,885.97,231.01,3582.50,1009.00
324,844.04,890.43,342.79,3818.00,975.00
326,844.36,894.89,700.91,4594.50,991.00
328,844.67,899.35,1549.01,6204.00,1009.50
330,844.99,903.81,3237.17,8989.50,981.00
332,845.31,908.26,5571.91,12284.50,1006.50
334,845.63,912.71,7408.68,14270.00,1017.00
336,845.95,917.16,5551.02,12094.50,1004.00
338,846.27,921.61,2336.71,8113.50,1228.00
340,846.58,926.05,877.35,5192.50,986.00
342,846.90,930.49,438.50,4140.00,1001.00
344,847.22,934.92,282.06,3751.50,1000.00
346,847.54,939.36,238.18,3623.50,971.50
348,847.86,943.79,232.06,3638.00,978.00
350,848.18,948.21,302.51,3806.00,978.00
352,848.49,952.64,489.91,4248.00,992.00
354,848.81,957.06,983.95,5134.50,962.00
356,849.13,961.48,2073.14,6730.50,1025.50
358,849.45,965.89,2862.06,7937.00,1009.50
360,849.77,970.31,2972.59,8584.00,992.50
362,850.09,974.71,3746.64,9967.00,998.00
364,850.40,979.12,5126.52,12303.50,1023.00
366,850.72,983.52,6308.65,14888.00,1037.00
368,851.04,987.92,9697.38,19546.00,981.00
370,851.36,992.32,12587.04,22504.50,985.00
372,851.68,996.72,9970.79,19567.50,1004.50
374,852.00,1001.11,5970.62,14131.50,983.00
376,852.32,1005.50,3530.85,9986.50,977.00
378,852.63,1009.88,2169.14,7499.50,1026.00
380,852.95,1014.26,1655.93,6502.50,1003.50
382,853.27,1018.64,1622.95,6588.00,1009.50
384,853.59,1023.02,2353.50,8035.50,990.50
386,853.91,1027.39,4575.93,11179.50,978.00
388,854.23,1031.76,7180.38,13901.50,985.50
390,854.55,1036.13,5836.89,12496.00,995.00
392,854.87,1040.49,2679.45,8568.00,989.50
394,855.18,1044.86,1158.39,5898.00,1006.00
396,855.50,1049.21,622.16,4677.00,1000.00
398,855.82,1053.57,382.65,4164.50,1017.00
400,856.14,1057.92,315.82,3982.50,984.00
402,856.46,1062.27,298.64,3959.50,993.50
404,856.78,1066.62,339.59,4027.00,977.50
406,857.10,1070.96,455.36,4250.00,974.50
408,857.42,1075.30,643.80,4669.00,1015.00
410,857.74,1079.64,1060.12,5416.00,985.50
412,858.06,1083.97,1789.13,6621.00,978.50
414,858.37,1088.30,2896.11,8330.50,976.50
416,858.69,1092.63,3712.26,9835.50,979.00
418,859.01,1096.95,4794.27,11782.00,971.50
420,859.33,1101.27,6287.54,14091.00,998.00
422,859.65,1105.59,7717.63,16049.50,991.00
424,859.97,1109.91,8199.28,16700.00,990.50
426,860.29,1114.22,7225.77,15592.50,992.50
428,860.61,1118.53,6019.68,14028.00,987.50
430,860.93,1122.84,5650.31,13265.00,986.50
432,861.25,1127.14,5700.32,12976.00,1016.00
434,861.56,1131.44,5287.47,12211.00,990.50
436,861.88,1135.74,4408.75,10991.50,994.50
438,862.20,1140.03,3559.93,9728.00,998.00
440,862.52,1144.32,3138.93,9001.00,984.50
442,862.84,1148.61,3040.42,8836.00,1011.50
444,863.16,1152.89,3164.73,8973.00,997.00
446,863.48,1157.17,3531.69,9339.00,989.00
448,863.80,1161.45,3729.41,9371.00,990.50
450,864.12,1165.73,2900.64,8239.50,998.50
452,864.44,1170.00,1640.65,6521.50,986.00
454,864.76,1174.27,878.27,5263.50,990.00
456,865.07,1178.53,556.88,4597.50,975.50
458,865.39,1182.80,338.93,4183.50,994.50
460,865.71,1187.06,182.95,3910.50,985.50
462,866.03,1191.31,24.08,3743.00,1000.00
464,866.35,1195.57,0.00,3593.50,974.50
466,866.67,1199.82,0.00,3590.50,1002.00
468,866.99,1204.06,0.00,3580.00,989.50
470,867.31,1208.31,0.00,3593.50,1010.50
472,867.63,1212.55,0.00,3644.50,985.50
474,867.95,1216.79,0.00,3672.00,966.50
476,868.27,1221.02,5.56,3820.00,984.00
478,868.58,1225.25,71.54,3927.00,970.50
480,868.90,1229.48,201.31,4186.50,995.00
482,869.22,1233.71,362.46,4507.50,1004.00
484,869.54,1237.93,559.56,4898.50,1020.00
486,869.86,1242.15,851.11,5406.00,999.00
488,870.18,1246.36,1269.61,6075.50,969.50
490,870.50,1250.58,1787.73,6888.00,992.50
492,870.82,1254.79,2231.00,7625.50,1033.00
494,871.14,1258.99,2474.81,8024.00,995.00
496,871.46,1263.20,2518.79,8151.50,1005.00
498,871.78,1267.40,2468.12,8082.00,986.00
500,872.10,1271.59,2281.92,7866.50,985.50
502,872.41,1275.79,2043.37,7603.00,985.00
504,872.73,1279.98,2035.41,7675.00,1000.00
506,873.05,1284.17,2283.53,8132.50,1004.00
508,873.37,1288.35,2833.16,9002.50,951.50
510,873.69,1292.53,3629.66,10221.00,982.00
512,874.01,1296.71,4609.06,11422.00,977.00
514,874.33,1300.88,4901.06,11756.50,968.50
516,874.65,1305.06,3990.91,10815.50,988.50
518,874.97,1309.22,3164.48,9749.50,979.00
520,875.29,1313.39,2829.04,9229.00,996.00
522,875.60,1317.55,2775.87,9090.50,986.50
524,875.92,1321.71,3070.57,9444.50,991.00
526,876.24,1325.87,3318.85,9800.00,1005.50
528,876.56,1330.02,3354.27,9896.00,983.00
530,876.88,1334.17,3344.55,9991.00,1006.50
532,877.20,1338.32,3351.16,10091.00,970.00
534,877.52,1342.46,3568.55,10518.50,968.00
536,877.84,1346.60,4153.03,11432.00,1006.00
538,878.16,1350.73,4937.76,12464.50,985.00
540,878.47,1354.87,5524.48,13232.50,985.00
542,878.79,1359.00,5464.34,13213.50,989.50
544,879.11,1363.13,5048.22,12718.00,992.50
546,879.43,1367.25,4338.84,11801.50,976.50
548,879.75,1371.37,3875.11,11161.50,987.50
550,880.07,1375.49,3813.56,10947.50,986.50
552,880.39,1379.60,3817.24,10836.00,991.50
554,880.71,1383.71,3578.97,10511.00,979.00
556,881.03,1387.82,3219.07,10125.00,974.00
558,881.34,1391.93,3120.62,10032.00,963.00
560,881.66,1396.03,3346.58,10355.50,977.00
562,881.98,1400.13,3739.61,10951.00,998.00
564,882.30,1404.22,4263.37,11711.00,987.00
566,882.62,1408.31,4653.26,12298.50,979.00
568,882.94,1412.40,4971.81,12839.00,1001.00
570,883.26,1416.49,5196.64,13221.00,983.00
572,883.57,1420.57,5402.95,13703.50,1009.50
574,883.89,1424.65,5670.47,14332.50,968.50
576,884.21,1428.73,6656.74,16082.00,1000.00
578,884.53,1432.80,8531.50,18999.00,1019.50
580,884.85,1436.87,11402.38,23055.00,977.00
582,885.17,1440.93,14533.06,27412.00,970.50
584,885.49,1445.00,16958.82,30987.50,977.50
586,885.80,1449.06,18354.95,33294.00,986.00
588,886.12,1453.11,19168.10,34441.00,1022.00
590,886.44,1457.17,19488.10,34475.00,1001.00
592,886.76,1461.22,17751.23,31996.50,1002.00
594,887.08,1465.26,14974.83,28056.50,1012.00
596,887.40,1469.31,11545.06,23103.50,974.50
598,887.71,1473.35,8041.37,18183.50,974.50
600,888.03,1477.38,5406.62,14315.00,998.00
602,888.35,1481.42,3805.49,11715.00,1006.00
604,888.67,1485.45,2919.80,10189.50,1006.50
606,888.99,1489.48,2288.36,9130.00,978.50
608,889.31,1493.50,1862.48,8468.50,985.00
610,889.62,1497.52,1464.02,7874.00,990.50
612,889.94,1501.54,1162.64,7401.50,968.50
614,890.26,1505.56,915.57,7078.50,987.00
616,890.58,1509.57,655.36,6717.00,989.50
618,890.90,1513.57,511.01,6494.00,984.00
620,891.21,1517.58,399.76,6339.50,990.50
622,891.53,1521.58,274.82,6178.00,986.00
624,891.85,1525.58,142.65,6022.00,987.00
626,892.17,1529.57,100.65,5944.50,998.00
628,892.49,1533.57,77.83,5857.00,995.00
630,892.80,1537.56,34.15,5710.50,969.00
632,893.12,1541.54,7.97,5618.00,967.00
634,893.44,1545.52,0.00,5540.00,996.00
636,893.76,1549.50,0.00,5455.50,971.50
638,894.07,1553.48,0.00,5428.00,999.00
640,894.39,1557.45,3.19,5357.00,976.50
642,894.71,1561.42,0.00,5299.00,996.00
644,895.03,1565.39,0.00,5192.50,962.00
646,895.34,1569.35,0.00,5154.50,996.00
648,895.66,1573.31,10.64,5130.00,967.00
650,895.98,1577.26,0.00,5059.50,980.00
652,896.30,1581.22,0.68,5025.50,965.00
654,896.61,1585.17,37.81,5042.50,975.50
656,896.93,1589.11,12.19,4982.00,1000.00
658,897.25,1593.06,60.30,4965.50,970.50
660,897.57,1597.00,7.93,4875.00,985.00
662,897.88,1600.93,42.99,4875.50,986.00
664,898.20,1604.87,75.86,4855.50,975.50
666,898.52,1608.80,0.00,4700.00,974.50
668,898.84,1612.72,0.12,4670.50,965.00
670,899.15,1616.65,0.00,4627.00,997.00
672,899.47,1620.57,15.74,4614.00,970.00
674,899.79,1624.49,15.31,4602.50,992.50
676,900.10,1628.40,25.83,4562.50,971.50
678,900.42,1632.31,106.98,4641.00,995.00
680,900.74,1636.22,110.85,4585.00,963.00
682,901.05,1640.12,101.62,4610.00,1018.00
684,901.37,1644.02,164.99,4606.00,982.00
686,901.69,1647.92,215.49,4649.00,995.00
688,902.00,1651.82,222.96,4628.00,990.50
690,902.32,1655.71,276.15,4630.50,966.00
692,902.64,1659.60,276.46,4618.50,972.50
694,902.95,1663.48,337.87,4668.00,991.00
696,903.27,1667.36,398.21,4682.00,979.00
698,903.59,1671.24,373.02,4658.50,1003.00
700,903.90,1675.11,415.12,4650.50,985.00
702,904.22,1678.99,388.38,4555.50,957.00
704,904.54,1682.85,362.22,4574.50,1034.00
706,904.85,1686.72,381.21,4502.50,971.50
708,905.17,1690.58,436.43,4555.00,982.00
710,905.49,1694.44,520.06,4625.00,971.50
712,905.80,1698.29,624.40,4758.00,978.50
714,906.12,1702.15,824.15,4987.00,987.50
716,906.43,1706.00,1118.03,5251.00,987.00
718,906.75,1709.84,1266.09,5363.50,999.00
720,907.07,1713.68,1118.86,5159.50,973.50
722,907.38,1717.52,841.41,4857.50,991.50
724,907.70,1721.36,654.87,4580.50,992.00
726,908.01,1725.19,545.93,4357.50,985.00
728,908.33,1729.02,411.06,4140.00,989.50
730,908.65,1732.85,264.68,3925.50,978.00
732,908.96,1736.67,157.83,3760.00,996.00
734,909.28,1740.49,180.08,3707.50,974.00
736,909.59,1744.30,115.63,3603.50,988.50
738,909.91,1748.12,82.85,3512.50,978.00
740,910.22,1751.93,79.86,3496.50,992.50
742,910.54,1755.73,6.92,3420.00,1047.50
744,910.85,1759.54,12.35,3337.00,993.00
746,911.17,1763.34,12.49,3267.50,964.50
748,911.49,1767.13,11.55,3260.00,985.00
750,911.80,1770.93,0.00,3177.50,977.50
752,912.12,1774.72,0.00,3189.00,1003.00
754,912.43,1778.50,0.00,3102.50,974.50
756,912.75,1782.29,9.38,3109.00,962.00
758,913.06,1786.07,0.00,3069.00,967.00
760,913.38,1789.84,8.01,3074.00,975.00
762,913.69,1793.62,0.00,3061.00,1000.00
764,914.01,1797.39,7.30,3037.00,983.50
766,914.32,1801.15,0.00,2988.50,979.50
768,914.64,1804.92,10.17,2971.50,966.00
770,914.95,1808.68,10.75,2977.00,989.50
772,915.26,1812.44,15.37,2965.00,990.50
774,915.58,1816.19,4.34,2901.50,962.00
776,915.89,1819.94,27.15,2946.50,990.50
778,916.21,1823.69,60.12,2937.00,985.00
780,916.52,1827.43,64.13,2950.50,1007.50
782,916.84,1831.17,76.77,2907.00,964.00
784,917.15,1834.91,83.61,2897.50,968.50
786,917.47,1838.64,84.17,2893.50,987.50
788,917.78,1842.38,93.08,2874.50,981.00
790,918.09,1846.10,53.93,2811.00,976.00
792,918.41,1849.83,75.64,2827.00,989.50
794,918.72,1853.55,76.16,2765.50,951.50
796,919.04,1857.27,83.72,2784.50,977.00
798,919.35,1860.98,94.81,2776.00,976.00
800,919.66,1864.69,124.07,2779.50,967.50
802,919.98,1868.40,133.25,2780.00,978.00
804,920.29,1872.11,140.75,2764.50,976.00
806,920.60,1875.81,149.68,2739.50,965.00
808,920.92,1879.51,151.87,2734.50,972.00
810,921.23,1883.20,138.12,2726.50,995.00
812,921.55,1886.90,160.23,2685.00,955.50
814,921.86,1890.58,171.60,2716.00,994.00
816,922.17,1894.27,134.54,2671.00,1004.00
818,922.49,1897.95,175.96,2677.00,991.50
820,922.80,1901.63,163.47,2627.00,973.50
822,923.11,1905.31,146.24,2600.50,981.00
824,923.42,1908.98,172.00,2605.00,985.50
826,923.74,1912.65,174.85,2590.00,981.00
828,924.05,1916.31,132.92,2523.50,974.50
830,924.36,1919.98,160.87,2523.50,967.00
832,924.68,1923.64,190.44,2534.00,971.50
834,924.99,1927.29,178.41,2496.50,961.00
836,925.30,1930.94,180.04,2479.00,959.00
838,925.61,1934.59,215.00,2501.50,974.00
840,925.93,1938.24,206.78,2472.50,968.00
842,926.24,1941.88,184.92,2447.50,982.50
844,926.55,1945.52,158.55,2388.00,968.00
846,926.86,1949.16,161.31,2379.00,978.00
848,927.18,1952.79,186.91,2362.00,960.00
850,927.49,1956.42,132.91,2311.00,977.00
852,927.80,1960.05,146.98,2331.00,1001.00
854,928.11,1963.67,143.28,2276.00,978.00
856,928.42,1967.29,121.07,2248.00,987.50
858,928.74,1970.91,118.86,2229.00,986.50
860,929.05,1974.52,151.15,2221.50,968.00
862,929.36,1978.13,130.22,2185.50,972.50
864,929.67,1981.74,139.06,2176.00,979.00
866,929.98,1985.35,112.12,2128.50,976.00
868,930.29,1988.95,77.39,2095.50,984.00
870,930.61,1992.54,71.64,2044.00,964.00
872,930.92,1996.14,43.44,1997.00,973.00
874,931.23,1999.73,28.58,1997.50,998.00
876,931.54,2003.32,16.64,1953.00,984.00
878,931.85,2006.90,36.74,1938.50,969.00
880,932.16,2010.48,60.52,1934.00,965.00
882,932.47,2014.06,36.99,1906.00,975.50
884,932.78,2017.63,30.75,1887.50,972.50
886,933.09,2021.21,14.34,1855.00,978.00
888,933.41,2024.77,52.83,1873.00,979.00
890,933.72,2028.34,34.47,1871.50,1006.00
892,934.03,2031.90,24.41,1830.50,993.00
894,934.34,2035.46,18.77,1803.00,989.00
896,934.65,2039.01,18.43,1770.00,969.00
898,934.96,2042.57,24.69,1781.00,989.50
900,935.27,2046.11,38.76,1786.00,1002.00
902,935.58,2049.66,43.69,1728.00,955.50
904,935.89,2053.20,57.82,1759.00,986.50
906,936.20,2056.74,33.20,1713.00,982.00
908,936.51,2060.28,31.27,1691.00,979.00
910,936.82,2063.81,48.84,1696.00,981.00
912,937.13,2067.34,52.45,1677.00,973.50
914,937.44,2070.86,40.31,1640.50,972.50
916,937.75,2074.39,25.86,1614.00,965.00
918,938.06,2077.91,0.27,1584.00,980.00
920,938.37,2081.42,0.00,1575.50,989.50
922,938.68,2084.94,2.23,1552.50,976.00
924,938.99,2088.45,12.97,1535.50,966.00
926,939.30,2091.95,0.00,1524.00,995.00
928,939.60,2095.46,0.00,1502.00,971.00
930,939.91,2098.96,5.36,1532.50,998.00
932,940.22,2102.45,16.20,1508.00,980.00
934,940.53,2105.95,9.05,1476.50,962.00
936,940.84,2109.44,8.39,1475.50,967.00
938,941.15,2112.92,0.00,1461.50,981.00
940,941.46,2116.41,0.00,1441.50,971.50
942,941.77,2119.89,23.22,1475.50,984.00
944,942.07,2123.37,13.85,1457.00,973.50
946,942.38,2126.84,5.87,1457.50,990.50
948,942.69,2130.31,39.02,1472.00,988.50
950,943.00,2133.78,2.99,1426.00,977.00
952,943.31,2137.24,11.91,1441.50,983.00
954,943.62,2140.70,0.00,1412.00,993.50
956,943.92,2144.16,1.09,1413.50,981.00
958,944.23,2147.62,12.20,1414.00,977.50
960,944.54,2151.07,2.39,1425.00,1000.00
962,944.85,2154.52,22.13,1438.50,1000.00
964,945.16,2157.96,8.24,1416.50,992.00
966,945.46,2161.40,16.84,1419.00,993.00
968,945.77,2164.84,13.98,1379.50,954.50
970,946.08,2168.28,0.00,1380.00,984.00
972,946.39,2171.71,2.66,1385.00,977.00
974,946.69,2175.14,10.20,1389.00,977.00
976,947.00,2178.57,1.95,1382.50,978.00
978,947.31,2181.99,12.02,1377.50,962.00
980,947.61,2185.41,35.61,1407.00,976.00
982,947.92,2188.82,41.01,1427.00,991.00
984,948.23,2192.24,46.50,1413.00,969.00
986,948.53,2195.65,72.48,1444.00,978.00
988,948.84,2199.05,90.65,1426.50,948.00
990,949.15,2202.46,93.60,1467.00,988.50
992,949.45,2205.86,122.25,1484.00,982.50
994,949.76,2209.25,125.22,1470.00,964.00
996,950.07,2212.65,122.96,1477.50,969.50
998,950.37,2216.04,126.12,1481.50,971.00
1000,950.68,2219.43,145.77,1500.00,978.50
1002,950.98,2222.81,173.72,1528.50,988.50
1004,951.29,2226.19,184.27,1517.50,967.00
1006,951.60,2229.57,193.96,1521.00,957.50
1008,951.90,2232.94,189.04,1513.50,957.50
1010,952.21,2236.32,196.35,1524.50,973.50
1012,952.51,2239.68,184.50,1518.00,981.00
1014,952.82,2243.05,169.14,1490.00,959.00
1016,953.12,2246.41,131.12,1504.00,1000.00
1018,953.43,2249.77,107.81,1505.00,1020.00
1020,953.73,2253.12,96.20,1470.00,999.00
1022,954.04,2256.48,112.84,1429.00,949.00
1024,954.34,2259.83,126.90,1484.00,995.00
1026,954.65,2263.17,142.19,1466.50,967.50
1028,954.95,2266.51,144.01,1477.50,979.00
1030,955.26,2269.85,178.17,1522.00,998.00
1032,955.56,2273.19,157.26,1498.50,990.50
1034,955.87,2276.52,143.70,1492.50,992.00
1036,956.17,2279.85,173.89,1525.00,1005.00
1038,956.48,2283.18,192.99,1479.00,954.00
1040,956.78,2286.50,171.50,1477.50,968.50
1042,957.08,2289.82,147.13,1441.50,950.00
1044,957.39,2293.14,104.73,1437.00,984.00
1046,957.69,2296.45,86.50,1393.00,955.00
1048,957.99,2299.76,42.64,1413.00,1000.00
1050,958.30,2303.07,10.34,1370.00,986.00
1052,958.60,2306.38,0.00,1343.50,981.00
1054,958.91,2309.68,0.00,1352.00,987.50
1056,959.21,2312.98,0.00,1316.00,966.00
1058,959.51,2316.27,6.91,1343.00,965.00
1060,959.82,2319.56,11.05,1372.00,990.00
1062,960.12,2322.85,65.33,1377.00,960.00
1064,960.42,2326.14,46.24,1373.00,969.00
1066,960.72,2329.42,58.54,1384.50,968.50
1068,961.03,2332.70,51.14,1400.50,987.50
1070,961.33,2335.97,57.57,1411.00,989.50
1072,961.63,2339.25,73.36,1396.00,964.50
1074,961.93,2342.52,46.92,1389.00,978.00
1076,962.24,2345.78,63.04,1396.00,970.50
1078,962.54,2349.05,39.70,1390.00,977.00
1080,962.84,2352.31,50.60,1401.50,979.00
1082,963.14,2355.56,64.36,1405.50,973.00
1084,963.45,2358.82,64.89,1412.00,976.00
1086,963.75,2362.07,114.74,1451.00,981.00
1088,964.05,2365.32,157.67,1490.50,1001.00
1090,964.35,2368.56,156.71,1469.50,978.00
1092,964.65,2371.80,93.98,1444.00,989.50
1094,964.95,2375.04,75.00,1420.50,976.00
1096,965.25,2378.27,41.37,1399.50,973.50
1098,965.56,2381.51,28.10,1395.50,982.00
1100,965.86,2384.73,63.16,1400.50,971.50
1102,966.16,2387.96,45.52,1398.50,973.50
1104,966.46,2391.18,7.20,1397.00,997.00
1106,966.76,2394.40,7.70,1365.00,964.00
1108,967.06,2397.62,5.35,1398.00,997.00
1110,967.36,2400.83,0.77,1366.50,970.50
1112,967.66,2404.04,39.67,1417.00,997.00
1114,967.96,2407.25,17.11,1368.50,958.50
1116,968.26,2410.45,18.97,1386.50,970.50
1118,968.56,2413.65,11.43,1378.50,968.00
1120,968.86,2416.85,28.43,1430.00,1006.00
1122,969.16,2420.04,5.20,1394.00,983.50
1124,969.46,2423.23,39.88,1402.50,967.00
1126,969.76,2426.42,50.28,1412.00,973.50
1128,970.06,2429.60,18.26,1373.00,951.00
1130,970.36,2432.79,38.59,1412.50,967.50
1132,970.66,2435.96,1.63,1389.50,972.50
1134,970.96,2439.14,18.94,1410.00,975.00
1136,971.26,2442.31,37.29,1431.00,990.50
1138,971.56,2445.48,41.23,1428.00,980.00
1140,971.86,2448.65,32.72,1420.50,971.50
1142,972.16,2451.81,0.00,1415.00,989.50
1144,972.45,2454.97,47.39,1439.50,981.00
1146,972.75,2458.13,34.00,1439.50,979.00
1148,973.05,2461.28,0.00,1411.50,970.50
1150,973.35,2464.43,5.45,1441.50,986.00
1152,973.65,2467.58,8.40,1437.00,981.00
1154,973.95,2470.72,56.57,1459.50,975.50
1156,974.24,2473.86,42.62,1455.00,975.50
1158,974.54,2477.00,32.46,1440.50,960.00
1160,974.84,2480.13,25.92,1467.00,984.50
1162,975.14,2483.27,29.76,1458.50,972.50
1164,975.43,2486.40,92.90,1479.50,958.00
1166,975.73,2489.52,16.68,1458.50,974.50
1168,976.03,2492.64,28.40,1474.50,979.00
1170,976.33,2495.76,40.18,1497.50,994.50
1172,976.62,2498.88,49.74,1482.50,971.50
1174,976.92,2501.99,48.99,1508.50,993.50
1176,977.22,2505.10,54.20,1518.00,994.00
1178,977.51,2508.21,31.93,1496.50,983.00
1180,977.81,2511.31,42.65,1499.00,981.00
1182,978.11,2514.41,45.10,1489.00,966.50
1184,978.40,2517.51,6.58,1487.00,980.00
1186,978.70,2520.61,0.00,1483.00,983.00
1188,979.00,2523.70,5.54,1499.00,988.00
1190,979.29,2526.79,20.12,1489.50,970.00
1192,979.59,2529.87,3.97,1494.50,978.00
1194,979.88,2532.95,0.00,1491.00,976.00
1196,980.18,2536.03,0.00,1510.00,991.00
1198,980.48,2539.11,7.27,1533.50,999.00
1200,980.77,2542.18,0.18,1521.50,984.00
1202,981.07,2545.25,0.00,1525.50,995.00
1204,981.36,2548.32,0.00,1517.50,976.00
1206,981.66,2551.38,0.00,1565.00,999.00
1208,981.95,2554.44,0.00,1549.50,985.50
1210,982.25,2557.50,13.43,1607.50,1001.00
1212,982.54,2560.56,14.30,1625.50,1004.00
1214,982.84,2563.61,11.92,1648.50,1007.50
1216,983.13,2566.66,19.44,1668.00,1005.50
1218,983.43,2569.70,100.42,1717.50,993.50
1220,983.72,2572.74,121.74,1744.50,1002.00
1222,984.01,2575.78,219.87,1801.00,985.00
1224,984.31,2578.82,289.98,1846.50,974.50
1226,984.60,2581.85,455.87,1948.00,984.00
1228,984.90,2584.88,583.09,1998.50,973.50
1230,985.19,2587.91,690.76,2074.50,991.50
1232,985.48,2590.93,710.84,2108.00,1000.00
1234,985.78,2593.96,619.17,2072.00,990.50
1236,986.07,2596.97,507.49,2043.50,998.00
1238,986.36,2599.99,341.45,2003.50,1019.00
1240,986.66,2603.00,231.02,1958.50,1014.00
1242,986.95,2606.01,171.20,1930.50,1007.50
1244,987.24,2609.01,135.11,1911.00,999.00
1246,987.54,2612.02,87.84,1850.00,949.00
1248,987.83,2615.02,17.38,1880.50,1002.00
1250,988.12,2618.01,0.00,1881.00,1002.50
1252,988.41,2621.01,0.00,1877.00,996.00
1254,988.71,2624.00,0.00,1860.00,982.00
1256,989.00,2626.99,0.05,1922.50,999.00
1258,989.29,2629.97,21.46,1951.50,987.00
1260,989.58,2632.95,73.24,1996.50,1006.50
1262,989.87,2635.93,108.09,2015.50,999.00
1264,990.16,2638.91,138.60,2019.50,973.50
1266,990.46,2641.88,165.51,2084.00,1006.50
1268,990.75,2644.85,163.59,2109.00,1017.50
1270,991.04,2647.81,201.62,2113.00,990.50
1272,991.33,2650.78,172.05,2127.00,998.00
1274,991.62,2653.74,156.86,2133.50,996.00
1276,991.91,2656.70,204.73,2157.50,987.50
1278,992.20,2659.65,262.48,2205.50,999.00
1280,992.49,2662.60,402.24,2255.50,976.00
1282,992.78,2665.55,375.34,2304.00,1025.00
1284,993.07,2668.50,410.18,2330.00,1024.00
1286,993.36,2671.44,562.01,2383.00,1000.00
1288,993.65,2674.38,515.50,2394.50,1015.00
1290,993.94,2677.31,548.06,2413.50,999.00
1292,994.23,2680.25,585.13,2454.50,1007.00
1294,994.52,2683.18,783.65,2542.50,998.00
1296,994.81,2686.10,919.84,2600.00,996.00
1298,995.10,2689.03,1216.44,2719.00,989.50
1300,995.39,2691.95,1455.85,2824.00,994.00
1302,995.68,2694.87,1581.27,2900.50,1012.50
1304,995.97,2697.78,1745.88,2985.50,1018.00
1306,996.26,2700.70,1833.63,3003.50,980.50
1308,996.55,2703.61,1907.81,3064.00,997.00
1310,996.84,2706.51,1996.59,3135.00,1025.50
1312,997.13,2709.42,2223.49,3229.50,1011.50
1314,997.41,2712.32,2392.86,3319.00,1013.00
1316,997.70,2715.21,2767.42,3464.00,996.50
1318,997.99,2718.11,3300.90,3674.00,1002.00
1320,998.28,2721.00,3970.85,3904.50,988.50
1322,998.57,2723.89,4567.07,4147.50,1017.00
1324,998.86,2726.77,5191.27,4328.00,979.00
1326,999.14,2729.66,5648.65,4487.50,996.00
1328,999.43,2732.54,5866.96,4541.50,992.50
1330,999.72,2735.41,5604.28,4439.00,998.00
1332,1000.01,2738.29,5153.72,4298.50,1013.00
1334,1000.29,2741.16,4194.47,3974.50,1002.50
1336,1000.58,2744.03,3324.66,3665.50,980.00
1338,1000.87,2746.89,2543.64,3417.50,1021.00
1340,1001.15,2749.75,2062.77,3198.50,991.50
1342,1001.44,2752.61,1553.27,3007.50,1002.00
1344,1001.73,2755.47,1139.31,2834.50,989.50
1346,1002.01,2758.32,740.81,2695.50,992.50
1348,1002.30,2761.17,404.53,2612.00,1010.50
1350,1002.59,2764.02,134.31,2548.50,1027.50
1352,1002.87,2766.86,11.92,2460.50,997.50
1354,1003.16,2769.70,0.00,2423.00,985.00
1356,1003.44,2772.54,0.00,2412.50,982.00
1358,1003.73,2775.38,0.00,2414.00,994.00
1360,1004.01,2778.21,0.00,2409.50,971.00
1362,1004.30,2781.04,0.00,2485.50,1000.00
1364,1004.58,2783.87,0.00,2511.50,986.50
1366,1004.87,2786.69,0.00,2538.50,971.00
1368,1005.15,2789.51,0.00,2646.00,1008.50
1370,1005.44,2792.33,0.00,2679.00,1018.00
1372,1005.72,2795.14,0.00,2791.50,1007.50
1374,1006.01,2797.95,0.00,2868.00,1011.00
1376,1006.29,2800.76,0.00,2918.00,992.00
1378,1006.58,2803.57,0.00,3090.50,1023.00
1380,1006.86,2806.37,0.00,3159.50,985.00
1382,1007.14,2809.17,0.00,3280.00,996.00
1384,1007.43,2811.97,0.00,3378.00,988.00
1386,1007.71,2814.77,8.70,3555.00,987.00
1388,1008.00,2817.56,66.18,3682.50,988.50
1390,1008.28,2820.35,287.64,3877.00,1010.50
1392,1008.56,2823.13,710.61,4060.50,993.50
1394,1008.85,2825.91,1243.25,4255.00,1004.50
1396,1009.13,2828.69,2281.65,4540.50,995.00
1398,1009.41,2831.47,3412.58,4862.50,1009.00
1400,1009.69,2834.24,4754.14,5217.50,986.00
1402,1009.98,2837.02,6298.49,5674.50,991.50
1404,1010.26,2839.78,7969.84,6187.50,1015.00
1406,1010.54,2842.55,10205.21,6798.00,991.00
1408,1010.82,2845.31,13011.24,7576.50,1005.00
1410,1011.11,2848.07,16075.03,8403.00,1006.50
1412,1011.39,2850.83,19335.78,9313.50,1011.50
1414,1011.67,2853.58,22518.57,10230.50,1008.50
1416,1011.95,2856.33,26440.69,11369.50,1007.50
1418,1012.23,2859.08,31450.31,12730.00,999.00
1420,1012.51,2861.83,38038.93,14412.50,991.00
1422,1012.80,2864.57,44928.92,16201.00,1038.50
1424,1013.08,2867.31,51501.83,17929.00,1019.00
1426,1013.36,2870.04,58240.87,19751.50,1022.00
1428,1013.64,2872.78,65948.31,21616.00,1016.00
1430,1013.92,2875.51,75161.61,23588.50,1039.50
1432,1014.20,2878.24,83110.82,25081.00,1016.00
1434,1014.48,2880.96,85445.90,25434.00,1000.00
1436,1014.76,2883.68,82878.35,24941.50,996.00
1438,1015.04,2886.40,77542.22,23809.00,989.50
1440,1015.32,2889.12,73040.71,22725.00,1025.00
1442,1015.60,2891.83,70448.54,21870.50,992.50
1444,1015.88,2894.54,68510.63,21176.50,1011.00
1446,1016.16,2897.25,67328.39,20668.50,990.50
1448,1016.44,2899.96,66904.91,20424.50,1021.00
1450,1016.72,2902.66,67474.53,20377.50,1007.50
1452,1017.00,2905.36,68148.15,20396.00,1032.00
1454,1017.28,2908.06,69617.82,20557.50,991.50
1456,1017.55,2910.75,71273.44,20841.50,1022.00
1458,1017.83,2913.44,73421.56,21207.00,998.00
1460,1018.11,2916.13,75949.39,21704.50,1011.00
1462,1018.39,2918.81,79112.65,22330.00,1016.00
1464,1018.67,2921.49,83048.81,23059.50,1010.50
1466,1018.95,2924.17,87571.33,23822.00,1014.50
1468,1019.22,2926.85,92881.69,24705.50,1012.50
1470,1019.50,2929.52,96222.10,25178.50,988.50
1472,1019.78,2932.20,97376.24,25291.50,995.00
1474,1020.06,2934.86,96726.69,24959.00,1009.50
1476,1020.33,2937.53,96291.13,24504.50,1025.50
1478,1020.61,2940.19,93346.24,23421.00,1006.50
1480,1020.89,2942.85,86424.40,21751.00,1025.00
1482,1021.17,2945.51,75312.65,19480.50,1008.50
1484,1021.44,2948.16,62360.23,16972.50,1008.50
1486,1021.72,2950.81,51654.90,14819.50,999.00
1488,1022.00,2953.46,45300.65,13432.00,1029.50
1490,1022.27,2956.11,43861.00,12886.00,1001.00
1492,1022.55,2958.75,45310.02,12878.50,1022.00
1494,1022.82,2961.39,49532.54,13345.50,1000.00
1496,1023.10,2964.03,53688.10,13878.00,1035.00
1498,1023.38,2966.66,56501.87,14204.50,1007.50
1500,1023.65,2969.29,56950.40,14218.00,1020.00
1502,1023.93,2971.92,55708.32,13897.00,1019.00
1504,1024.20,2974.55,53534.05,13350.50,1022.50
1506,1024.48,2977.17,49602.49,12459.50,1017.00
1508,1024.75,2979.79,44336.91,11353.00,990.50
1510,1025.03,2982.41,37771.02,10086.50,1002.00
1512,1025.30,2985.02,30958.45,8765.00,991.50
1514,1025.58,2987.63,24991.47,7609.00,1007.50
1516,1025.85,2990.24,20101.44,6595.50,988.50
1518,1026.13,2992.85,16030.80,5778.50,1022.00
1520,1026.40,2995.45,13037.85,5120.50,1008.50
1522,1026.68,2998.05,10641.09,4584.50,1003.50
1524,1026.95,3000.65,8843.46,4204.50,1023.00
1526,1027.22,3003.25,7244.69,3845.50,999.00
1528,1027.50,3005.84,5653.95,3518.00,998.00
1530,1027.77,3008.43,4661.06,3308.50,1009.50
1532,1028.04,3011.02,3867.57,3129.50,1012.00
1534,1028.32,3013.60,2798.63,2900.00,1001.00
1536,1028.59,3016.18,2014.69,2754.00,1005.50
1538,1028.86,3018.76,1246.28,2566.00,960.50
1540,1029.14,3021.34,696.70,2475.00,992.50
1542,1029.41,3023.91,316.09,2357.50,982.00
1544,1029.68,3026.48,106.24,2274.00,983.00
1546,1029.95,3029.05,3.54,2185.50,999.00
1548,1030.22,3031.61,0.00,2108.00,991.00
1550,1030.50,3034.17,0.00,2036.50,990.50
1552,1030.77,3036.73,0.00,1983.00,994.00
1554,1031.04,3039.29,2.27,1960.00,1002.00
1556,1031.31,3041.84,0.00,1862.00,974.00
1558,1031.58,3044.39,0.00,1860.00,1025.50
1560,1031.85,3046.94,0.00,1828.50,1015.00
1562,1032.13,3049.49,0.00,1769.50,988.50
1564,1032.40,3052.03,0.00,1751.00,1017.00
1566,1032.67,3054.57,7.76,1718.50,990.00
1568,1032.94,3057.11,0.00,1713.50,1025.00
1570,1033.21,3059.64,0.00,1645.50,976.50
1572,1033.48,3062.18,43.36,1668.50,1012.50
1574,1033.75,3064.70,0.00,1627.50,1006.50
1576,1034.02,3067.23,20.65,1626.50,1017.00
1578,1034.29,3069.75,22.64,1567.50,976.00
1580,1034.56,3072.28,0.00,1555.50,1007.00
1582,1034.83,3074.79,99.27,1527.50,968.00
1584,1035.10,3077.31,25.31,1540.00,1005.00
1586,1035.37,3079.82,9.60,1500.50,981.00
1588,1035.64,3082.33,0.00,1529.00,1030.50
1590,1035.91,3084.84,0.00,1478.50,1007.50
1592,1036.17,3087.34,0.00,1459.50,991.00
1594,1036.44,3089.85,140.14,1513.50,1028.50
1596,1036.71,3092.35,111.95,1450.00,983.00
1598,1036.98,3094.84,0.00,1436.50,991.50
1600,1037.25,3097.34,16.16,1426.50,985.00
1602,1037.52,3099.83,52.31,1428.00,988.50
1604,1037.78,3102.32,0.00,1416.00,999.00
1606,1038.05,3104.80,75.92,1435.50,1007.50
1608,1038.32,3107.29,37.27,1414.00,998.00
1610,1038.59,3109.77,116.08,1412.00,992.50
1612,1038.85,3112.24,0.00,1395.50,996.00
1614,1039.12,3114.72,0.00,1400.00,1007.50
1616,1039.39,3117.19,0.00,1363.50,988.50
1618,1039.66,3119.66,102.11,1410.00,1015.00
1620,1039.92,3122.13,0.00,1396.50,1017.00
1622,1040.19,3124.59,0.00,1368.50,1002.50
1624,1040.45,3127.05,78.17,1374.00,988.50
1626,1040.72,3129.51,5.32,1387.00,1012.50
1628,1040.99,3131.97,69.61,1395.00,1013.00
1630,1041.25,3134.42,0.00,1394.00,1023.50
1632,1041.52,3136.87,38.55,1359.50,981.00
1634,1041.78,3139.32,128.93,1388.50,1001.00
1636,1042.05,3141.77,243.30,1456.50,1064.50
1638,1042.32,3144.21,111.91,1368.00,993.00
1640,1042.58,3146.65,194.06,1403.50,1021.00
1642,1042.85,3149.09,329.58,1398.50,1003.00
1644,1043.11,3151.52,354.03,1397.50,1005.00
1646,1043.38,3153.96,432.50,1406.50,1010.50
1648,1043.64,3156.39,686.68,1418.50,1000.00
1650,1043.90,3158.81,749.08,1417.50,997.50
1652,1044.17,3161.24,715.06,1431.00,1017.00
1654,1044.43,3163.66,679.99,1397.50,988.00
1656,1044.70,3166.08,708.72,1453.00,1043.00
1658,1044.96,3168.49,822.28,1425.50,1008.50
1660,1045.22,3170.91,997.05,1421.50,993.00
1662,1045.49,3173.32,1246.77,1453.50,1007.00
1664,1045.75,3175.73,1318.68,1454.00,1005.00
1666,1046.01,3178.13,1223.71,1442.50,1004.50
1668,1046.28,3180.54,1380.00,1470.00,1020.50
1670,1046.54,3182.94,1779.17,1492.50,1012.00
1672,1046.80,3185.34,1704.36,1482.00,1014.00
1674,1047.07,3187.73,1631.66,1457.50,998.00
1676,1047.33,3190.12,1799.78,1469.00,995.50
1678,1047.59,3192.51,1769.32,1480.00,1013.00
1680,1047.85,3194.90,1902.92,1511.00,1035.00
1682,1048.11,3197.29,1878.66,1499.50,1031.50
1684,1048.38,3199.67,2321.86,1512.50,1013.00
1686,1048.64,3202.05,2442.50,1524.00,1023.00
1688,1048.90,3204.43,2404.93,1502.50,1008.00
1690,1049.16,3206.80,2418.76,1497.00,1001.00
1692,1049.42,3209.17,2436.40,1527.00,1032.00
1694,1049.68,3211.54,2566.17,1500.50,1001.00
1696,1049.94,3213.91,2754.88,1513.50,1005.50
1698,1050.20,3216.27,2811.28,1514.50,1007.50
1700,1050.46,3218.63,3030.10,1548.50,1026.00
1702,1050.72,3220.99,2837.40,1522.00,1018.00
1704,1050.98,3223.35,3002.63,1535.00,1022.50
1706,1051.24,3225.70,3295.00,1521.00,993.50
1708,1051.50,3228.05,3286.73,1508.50,989.50
1710,1051.76,3230.40,3375.33,1549.50,1027.50
1712,1052.02,3232.75,3482.29,1538.50,1011.00
1714,1052.28,3235.09,3437.79,1550.50,1030.50
1716,1052.54,3237.43,3555.69,1528.50,1003.50
1718,1052.80,3239.77,3505.55,1519.00,1002.00
1720,1053.06,3242.11,3468.96,1521.00,1012.00
1722,1053.32,3244.44,3653.71,1509.50,994.00
1724,1053.58,3246.77,3843.26,1563.50,1041.50
1726,1053.84,3249.10,3785.23,1519.00,1005.00
1728,1054.10,3251.42,3749.26,1527.50,1018.00
1730,1054.35,3253.75,4005.88,1524.00,1001.00
1732,1054.61,3256.07,4166.01,1549.50,1022.50
1734,1054.87,3258.39,4095.76,1527.00,1010.50
1736,1055.13,3260.70,4176.84,1520.50,1004.00
1738,1055.38,3263.01,4619.94,1539.00,999.00
1740,1055.64,3265.32,4134.34,1509.50,1008.50
1742,1055.90,3267.63,4339.31,1501.00,988.50
1744,1056.16,3269.94,4285.03,1540.00,1033.50
1746,1056.41,3272.24,4331.55,1535.00,1028.50
1748,1056.67,3274.54,4129.81,1508.50,1022.00
1750,1056.93,3276.84,4634.04,1520.00,1009.50
1752,1057.18,3279.13,4863.15,1517.00,1000.50
1754,1057.44,3281.42,4698.15,1490.00,987.50
1756,1057.69,3283.71,4601.93,1500.50,1004.50
1758,1057.95,3286.00,4435.91,1518.50,1036.00
1760,1058.21,3288.28,4730.09,1508.00,1013.00
1762,1058.46,3290.57,4476.26,1504.00,1032.50
1764,1058.72,3292.85,4741.88,1503.00,1022.00
1766,1058.97,3295.12,4846.62,1474.50,991.00
1768,1059.23,3297.40,4451.18,1466.00,1006.50
1770,1059.48,3299.67,4608.14,1486.50,1019.00
1772,1059.74,3301.94,4441.95,1443.00,994.00
1774,1059.99,3304.21,4930.53,1491.50,1024.50
1776,1060.25,3306.47,4997.59,1500.00,1036.00
1778,1060.50,3308.73,4771.76,1448.00,999.00
1780,1060.76,3310.99,4891.04,1463.00,1007.50
1782,1061.01,3313.25,4463.04,1437.50,1008.50
1784,1061.26,3315.50,4680.92,1437.50,1002.00
1786,1061.52,3317.76,4821.78,1465.00,1029.50
1788,1061.77,3320.01,4989.49,1464.00,1025.00
1790,1062.02,3322.25,4789.86,1432.00,1007.50
1792,1062.28,3324.50,5086.37,1448.00,1010.50
1794,1062.53,3326.74,4886.85,1421.00,995.50
1796,1062.78,3328.98,4705.32,1424.50,1010.50
1798,1063.04,3331.22,4946.55,1427.00,1007.00
1800,1063.29,3333.45,5482.82,1427.00,989.50
1802,1063.54,3335.68,5323.97,1423.50,1001.00
1804,1063.79,3337.91,5069.85,1430.00,1023.00
1806,1064.05,3340.14,5538.85,1465.50,1037.00
1808,1064.30,3342.36,5030.14,1393.00,992.00
1810,1064.55,3344.59,5193.36,1427.00,1021.00
1812,1064.80,3346.81,4943.70,1394.00,1005.00
1814,1065.05,3349.02,5260.92,1401.50,1002.00
1816,1065.30,3351.24,5361.05,1418.00,1018.00
1818,1065.55,3353.45,4916.06,1382.50,1008.00
1820,1065.81,3355.66,5338.76,1434.50,1045.00
1822,1066.06,3357.87,5025.30,1376.00,1005.50
1824,1066.31,3360.07,5329.07,1372.50,991.50
1826,1066.56,3362.27,5116.41,1398.50,1029.50
1828,1066.81,3364.47,5133.48,1363.50,996.00
1830,1067.06,3366.67,5000.97,1367.50,1010.00
1832,1067.31,3368.87,5144.20,1360.50,1003.00
1834,1067.56,3371.06,5205.49,1332.00,978.00
1836,1067.81,3373.25,5433.57,1344.50,983.00
1838,1068.06,3375.44,5058.90,1337.00,990.50
1840,1068.31,3377.62,4842.16,1335.00,999.00
1842,1068.56,3379.81,4740.82,1308.50,983.00
1844,1068.80,3381.99,5354.40,1374.00,1031.00
1846,1069.05,3384.16,5067.25,1345.50,1019.00
1848,1069.30,3386.34,5341.48,1342.00,1005.50
1850,1069.55,3388.51,4749.45,1309.50,997.50
1852,1069.80,3390.68,5212.59,1332.50,1004.50
1854,1070.05,3392.85,5445.31,1369.00,1036.00
1856,1070.30,3395.02,5150.46,1324.50,1007.50
1858,1070.54,3397.18,5073.80,1298.00,989.00
1860,1070.79,3399.34,5308.92,1320.00,1007.50
1862,1071.04,3401.50,5141.40,1300.00,996.50
1864,1071.29,3403.66,4743.25,1272.50,983.50
1866,1071.53,3405.81,4783.93,1301.00,1011.00
1868,1071.78,3407.96,4978.11,1297.00,1003.50
1870,1072.03,3410.11,4846.43,1293.00,1009.00
1872,1072.27,3412.26,4621.37,1284.00,1011.50
1874,1072.52,3414.40,4802.53,1278.00,1002.00
1876,1072.77,3416.54,5042.13,1276.00,995.00
1878,1073.01,3418.68,4702.93,1285.00,1019.00
1880,1073.26,3420.82,4631.94,1224.00,963.00
1882,1073.51,3422.96,4149.17,1259.00,1017.00
1884,1073.75,3425.09,4470.55,1251.50,1001.00
1886,1074.00,3427.22,4347.77,1233.00,988.00
1888,1074.24,3429.35,4372.97,1263.00,1018.00
1890,1074.49,3431.47,3952.36,1213.50,985.00
1892,1074.73,3433.59,4308.68,1211.50,975.50
1894,1074.98,3435.71,4467.53,1261.00,1024.00
1896,1075.22,3437.83,4435.15,1229.50,996.00
1898,1075.47,3439.95,3884.23,1236.00,1022.00
1900,1075.71,3442.06,4176.83,1236.00,1016.00
1902,1075.96,3444.17,4122.43,1219.00,1003.00
1904,1076.20,3446.28,3920.33,1160.00,950.00
1906,1076.44,3448.38,3998.45,1251.50,1038.50
1908,1076.69,3450.49,3354.97,1214.50,1024.00
1910,1076.93,3452.59,4070.03,1211.00,1004.00
1912,1077.17,3454.69,3905.29,1190.50,991.50
1914,1077.42,3456.79,3829.71,1197.50,1001.00
1916,1077.66,3458.88,3765.50,1182.00,988.50
1918,1077.90,3460.97,3882.02,1183.00,989.50
1920,1078.15,3463.06,3645.16,1207.00,1023.00
1922,1078.39,3465.15,3102.87,1174.50,1006.50
1924,1078.63,3467.23,3912.80,1165.00,975.00
1926,1078.87,3469.32,3723.59,1198.50,1016.00
1928,1079.12,3471.40,3164.32,1160.50,996.50
1930,1079.36,3473.47,3456.33,1215.50,1046.50
1932,1079.60,3475.55,3304.08,1149.00,985.50
1934,1079.84,3477.62,3040.55,1167.00,1011.00
1936,1080.08,3479.69,3332.24,1157.50,994.50
1938,1080.33,3481.76,3087.98,1142.50,987.00
1940,1080.57,3483.83,2967.32,1155.50,1004.50
1942,1080.81,3485.89,2990.66,1147.00,997.00
1944,1081.05,3487.95,2806.88,1158.50,1015.00
1946,1081.29,3490.01,2829.43,1151.00,1008.50
1948,1081.53,3492.07,2706.91,1123.50,985.50
1950,1081.77,3494.12,2384.22,1128.00,1000.00
1952,1082.01,3496.18,2889.91,1152.00,1014.50
1954,1082.25,3498.23,3343.05,1133.00,986.50
1956,1082.49,3500.27,2650.27,1123.50,993.00
1958,1082.73,3502.32,2985.78,1121.50,983.00
1960,1082.97,3504.36,1853.31,1118.50,1008.50
1962,1083.21,3506.40,3412.08,1130.00,987.00
1964,1083.45,3508.44,2778.20,1103.50,977.00
1966,1083.69,3510.48,2210.59,1150.00,1037.00
1968,1083.93,3512.51,2369.51,1130.00,1014.00
1970,1084.16,3514.54,2015.63,1109.00,1001.00
1972,1084.40,3516.57,2171.44,1110.00,999.00
1974,1084.64,3518.60,1482.36,1079.50,985.00
1976,1084.88,3520.62,2622.52,1124.50,1006.50
1978,1085.12,3522.65,1563.43,1124.50,1030.00
1980,1085.36,3524.67,1384.45,1098.50,1008.50
1982,1085.59,3526.68,1684.94,1081.50,986.50
1984,1085.83,3528.70,2073.54,1113.00,1012.00
1986,1086.07,3530.71,1906.09,1084.50,988.50
1988,1086.31,3532.72,1716.12,1097.50,1006.00
1990,1086.54,3534.73,2304.05,1086.50,983.50
1992,1086.78,3536.74,1585.91,1111.00,1023.00
1994,1087.02,3538.74,1833.60,1098.00,1006.50
1996,1087.25,3540.74,1813.42,1071.00,981.00
1998,1087.49,3542.74,1159.22,1082.00,1005.00
2000,1087.73,3544.74,1554.82,1089.00,1005.00
2002,1087.96,3546.74,1129.68,1073.00,998.00
2004,1088.20,3548.73,1826.79,1103.50,1016.00
2006,1088.43,3550.72,658.79,1070.00,1005.00
2008,1088.67,3552.71,1278.36,1065.50,989.50
2010,1088.90,3554.69,802.75,1044.50,978.50
2012,1089.14,3556.68,1390.03,1084.50,1009.50
2014,1089.38,3558.66,1015.27,1055.00,987.00
2016,1089.61,3560.64,845.72,1055.00,989.50
2018,1089.84,3562.62,909.42,1077.00,1010.00
2020,1090.08,3564.59,1040.15,1049.00,981.00
2022,1090.31,3566.56,886.25,1049.00,986.00
2024,1090.55,3568.53,1364.85,1052.50,983.00
2026,1090.78,3570.50,1444.49,1042.50,971.00
2028,1091.02,3572.47,115.11,1030.00,981.00
2030,1091.25,3574.43,925.89,1039.00,977.50
2032,1091.48,3576.39,706.54,1019.00,962.00
2034,1091.72,3578.35,789.69,1011.50,953.00
2036,1091.95,3580.31,0.00,1026.00,982.00
2038,1092.18,3582.26,395.66,1003.00,952.50
2040,1092.42,3584.22,488.13,1004.00,954.00
2042,1092.65,3586.17,0.00,1015.00,974.50
2044,1092.88,3588.12,238.38,1006.00,960.00
2046,1093.11,3590.06,0.00,994.00,954.50
2047,1093.23,3591.03,36.82,989.50,944.00