File: plugins/Raman/MatchingLibrary/785X/acetaminophen.csv
ENLIGHTEN Version,4.1.22
Measurement ID,20250220-201244-278517-WP-01977
Serial Number,WP-01977
Model,WP-785X-F13-R-ILC
Detector,S16011-1106
Label,acetaminophen
Declared Match,
Declared Score,0
Scan Averaging,4
Boxcar,0
Technique,Raman
Baseline Correction Algo,AirPLS
ROI Pixel Start,47
ROI Pixel End,2047
ROI Start Line,0
ROI Stop Line,63
CCD C4,1.38617e-12
Slit Width,25
Cropped,True
Interpolated,False
Wavenumber Correction,-0.100481
Raman Intensity Corrected,True
Deconvolved,True
Region,
High Gain Mode,False
Laser Power mW,
Electrical Dark Correction,False
Battery %,
Device ID,<DeviceID USB:0x24aa:0x1000:0:1>
FW Version,10.0.0.10
FPGA Version,035-001
BLE Version,
Prefix,enlighten
Suffix,
Preset,
Auto-Raman,True
Session Count,0
Plugin Name,
Integration Time,287
Timestamp,2025-02-20 20:12:44.2785
Note,
Temperature,0
CCD C0,793.274
CCD C1,0.153259
CCD C2,1.40788e-05
CCD C3,-1.132e-08
CCD Offset,0
CCD Gain,1.9
CCD Offset Odd,0
CCD Gain Odd,1.9
Laser Wavelength,785.032
Laser Enable,False
Laser Power %,0
Laser Temperature,0
Pixel Count,2048

Pixel,Wavelength,Wavenumber,Processed,Raw,Dark
0,793.27,132.25,NA,982.25,906.00
2,793.58,137.12,NA,985.25,919.50
4,793.89,141.99,NA,985.25,914.00
6,794.19,146.86,NA,996.75,915.25
8,794.50,151.72,NA,998.75,913.50
10,794.81,156.58,NA,999.75,920.25
12,795.12,161.44,NA,985.25,911.25
14,795.42,166.30,NA,999.50,908.50
16,795.73,171.16,NA,1004.25,909.50
18,796.04,176.01,NA,1009.25,924.50
20,796.35,180.86,NA,1012.50,923.50
22,796.65,185.71,NA,1028.50,935.75
24,796.96,190.56,NA,1023.25,919.25
26,797.27,195.41,NA,1034.75,932.00
28,797.58,200.25,NA,1037.50,933.75
30,797.88,205.09,NA,1037.00,918.00
32,798.19,209.93,NA,1046.50,922.00
34,798.50,214.77,NA,1051.00,918.25
36,798.81,219.60,NA,1073.75,918.50
38,799.12,224.43,NA,1160.50,920.00
40,799.43,229.27,NA,1614.75,937.75
42,799.74,234.09,NA,3248.50,924.50
44,800.04,238.92,NA,5537.75,943.75
46,800.35,243.75,NA,6396.25,925.00
48,800.66,248.57,319.38,6399.00,934.50
50,800.97,253.39,142.35,6292.00,940.75
52,801.28,258.21,19.07,6172.00,941.00
54,801.59,263.02,0.23,6111.00,941.25
56,801.90,267.83,0.00,6026.75,932.25
58,802.21,272.65,0.00,6022.75,939.00
60,802.52,277.46,0.00,6054.75,936.25
62,802.83,282.26,0.00,6094.50,952.50
64,803.14,287.07,0.00,6127.00,943.00
66,803.45,291.87,1.12,6207.75,942.50
68,803.76,296.67,15.81,6276.25,942.50
70,804.07,301.47,100.60,6394.75,932.00
72,804.38,306.26,209.63,6598.25,935.25
74,804.69,311.06,381.61,6900.75,929.75
76,805.00,315.85,678.13,7495.50,931.25
78,805.31,320.64,1571.50,8802.50,933.50
80,805.62,325.42,3390.36,10804.00,938.75
82,805.93,330.21,4327.84,11811.00,935.25
84,806.24,334.99,3340.20,10961.00,922.00
86,806.55,339.77,2214.59,9608.50,935.00
88,806.86,344.55,1028.30,8206.00,937.50
90,807.17,349.32,256.32,7152.25,931.25
92,807.48,354.10,72.19,6837.75,932.50
94,807.80,358.87,7.78,6739.25,948.25
96,808.11,363.63,33.13,6805.75,937.50
98,808.42,368.40,151.24,6982.00,929.25
100,808.73,373.16,296.71,7231.25,926.50
102,809.04,377.93,567.55,7839.25,924.25
104,809.35,382.68,1349.32,9395.75,925.25
106,809.66,387.44,4360.14,12965.25,934.25
108,809.98,392.19,7252.02,15332.50,928.00
110,810.29,396.95,4117.57,12831.00,934.00
112,810.60,401.70,1198.23,9371.50,927.00
114,810.91,406.44,669.17,8180.75,930.75
116,811.22,411.19,945.79,8141.50,937.75
118,811.54,415.93,639.83,7800.25,935.25
120,811.85,420.67,100.27,7241.50,924.75
122,812.16,425.41,4.73,7018.50,928.00
124,812.47,430.14,11.25,7033.50,932.00
126,812.79,434.87,93.73,7101.00,920.50
128,813.10,439.60,79.69,7110.00,916.50
130,813.41,444.33,134.92,7247.75,929.25
132,813.72,449.06,363.36,7599.25,924.75
134,814.04,453.78,728.16,8209.00,930.25
136,814.35,458.50,1398.22,9197.25,914.00
138,814.66,463.22,2527.06,10430.25,919.00
140,814.98,467.93,2655.60,10549.00,921.25
142,815.29,472.65,1524.62,9403.25,924.50
144,815.60,477.36,752.13,8326.50,929.25
146,815.92,482.06,534.92,7842.00,914.50
148,816.23,486.77,436.43,7683.50,936.00
150,816.54,491.47,323.93,7648.00,943.00
152,816.86,496.17,524.87,8086.75,920.75
154,817.17,500.87,1730.01,9495.00,929.75
156,817.48,505.57,2549.78,10112.50,923.50
158,817.80,510.26,997.21,8747.25,922.00
160,818.11,514.95,250.81,7591.50,927.25
162,818.42,519.64,171.05,7263.75,928.00
164,818.74,524.32,79.69,7114.50,926.00
166,819.05,529.00,0.68,6988.50,932.00
168,819.37,533.68,0.00,6947.25,922.50
170,819.68,538.36,0.00,6929.25,931.25
172,819.99,543.04,0.00,6918.50,939.25
174,820.31,547.71,0.00,6913.25,926.00
176,820.62,552.38,0.00,6925.00,917.75
178,820.94,557.05,0.00,6970.50,923.50
180,821.25,561.71,0.00,6996.25,917.50
182,821.57,566.37,0.00,6981.50,919.75
184,821.88,571.03,0.00,7068.75,925.50
186,822.20,575.69,0.00,7081.75,926.00
188,822.51,580.34,0.00,7158.50,925.25
190,822.83,584.99,5.25,7257.50,924.00
192,823.14,589.64,57.15,7422.00,929.75
194,823.46,594.29,240.15,7790.00,925.00
196,823.77,598.93,700.30,8523.00,926.50
198,824.09,603.57,1551.54,9405.50,912.00
200,824.40,608.21,1312.80,9257.25,922.00
202,824.72,612.85,512.21,8470.50,933.00
204,825.03,617.48,430.44,8442.50,927.25
206,825.35,622.11,1242.20,9621.25,930.00
208,825.66,626.74,2635.69,11003.25,929.00
210,825.98,631.36,2174.08,10678.00,916.00
212,826.29,635.99,1017.29,9571.75,921.00
214,826.61,640.61,947.81,9862.75,928.00
216,826.92,645.22,2769.60,12989.75,920.50
218,827.24,649.84,7563.08,17954.25,913.25
220,827.56,654.45,7260.98,17761.25,933.00
222,827.87,659.06,2472.69,12618.00,934.50
224,828.19,663.67,832.43,9572.00,927.75
226,828.50,668.27,578.74,8748.00,951.50
228,828.82,672.87,593.23,8627.75,933.50
230,829.13,677.47,704.65,8804.25,926.75
232,829.45,682.06,925.55,9138.50,923.50
234,829.77,686.66,1071.32,9405.50,985.75
236,830.08,691.25,1080.11,9383.25,926.75
238,830.40,695.83,939.54,9294.00,921.50
240,830.72,700.42,840.96,9371.75,922.00
242,831.03,705.00,1368.38,10259.50,904.00
244,831.35,709.58,2925.99,11909.75,923.50
246,831.66,714.15,2648.10,11659.75,913.75
248,831.98,718.73,1059.10,9907.75,929.75
250,832.30,723.30,646.30,9093.75,921.25
252,832.61,727.87,771.42,9092.00,935.25
254,832.93,732.43,798.71,9056.25,903.50
256,833.25,736.99,748.23,9019.00,931.25
258,833.56,741.55,559.26,8758.75,922.00
260,833.88,746.11,351.85,8445.50,919.25
262,834.20,750.66,209.98,8202.25,919.50
264,834.51,755.22,96.71,8090.25,928.00
266,834.83,759.76,0.36,7898.50,927.00
268,835.15,764.31,0.00,7831.00,928.25
270,835.47,768.85,0.00,7834.25,918.00
272,835.78,773.39,0.06,7915.25,917.00
274,836.10,777.93,35.61,8138.75,919.50
276,836.42,782.46,318.18,8769.25,922.50
278,836.73,787.00,1058.68,10630.50,920.50
280,837.05,791.52,3852.13,15410.00,917.50
282,837.37,796.05,9518.08,21544.00,931.00
284,837.69,800.57,8977.98,21187.75,918.00
286,838.00,805.09,3773.85,15310.00,919.75
288,838.32,809.61,1525.83,11368.00,922.00
290,838.64,814.13,1041.71,10067.50,928.00
292,838.95,818.64,1248.52,10127.00,919.25
294,839.27,823.15,1641.60,10717.00,915.75
296,839.59,827.65,1985.69,11417.00,927.00
298,839.91,832.15,2945.30,12504.50,912.25
300,840.22,836.65,3142.84,12676.00,940.00
302,840.54,841.15,1745.99,11369.50,913.75
304,840.86,845.65,1559.25,11899.25,930.50
306,841.18,850.14,3985.24,16983.00,927.00
308,841.50,854.63,12364.24,27673.75,952.00
310,841.81,859.11,18293.04,33008.00,929.00
312,842.13,863.60,9095.43,24082.00,929.50
314,842.45,868.07,2547.01,14195.50,916.00
316,842.77,872.55,897.90,10043.25,924.50
318,843.08,877.03,342.08,8603.50,936.25
320,843.40,881.50,35.77,8000.00,910.50
322,843.72,885.97,0.00,7767.00,926.50
324,844.04,890.43,0.00,7683.75,915.50
326,844.36,894.89,0.00,7644.50,921.00
328,844.67,899.35,0.00,7646.00,927.50
330,844.99,903.81,0.00,7631.50,912.75
332,845.31,908.26,0.98,7710.50,928.00
334,845.63,912.71,56.18,7770.00,927.50
336,845.95,917.16,4.82,7746.00,929.50
338,846.27,921.61,0.00,7824.75,1043.75
340,846.58,926.05,0.00,7692.50,923.00
342,846.90,930.49,0.00,7730.25,923.50
344,847.22,934.92,0.00,7701.25,922.75
346,847.54,939.36,0.00,7734.75,904.00
348,847.86,943.79,17.26,7872.25,913.00
350,848.18,948.21,205.05,8059.75,917.50
352,848.49,952.64,109.97,8042.25,920.50
354,848.81,957.06,77.41,8145.75,902.00
356,849.13,961.48,360.05,8995.75,935.25
358,849.45,965.89,1884.04,10965.25,934.00
360,849.77,970.31,3086.41,11949.75,921.50
362,850.09,974.71,1219.25,10281.75,919.25
364,850.40,979.12,154.36,8651.50,926.50
366,850.72,983.52,5.09,8107.00,937.75
368,851.04,987.92,0.27,7999.25,911.25
370,851.36,992.32,14.03,8062.00,909.50
372,851.68,996.72,108.05,8269.00,926.50
374,852.00,1001.11,218.89,8471.75,914.25
376,852.32,1005.50,472.57,8920.75,908.50
378,852.63,1009.88,790.51,9457.50,932.25
380,852.95,1014.26,1067.64,9833.50,925.50
382,853.27,1018.64,1213.72,9994.75,930.50
384,853.59,1023.02,780.43,9506.75,915.25
386,853.91,1027.39,426.18,9028.00,912.25
388,854.23,1031.76,359.77,8857.75,915.00
390,854.55,1036.13,397.51,8850.00,915.50
392,854.87,1040.49,319.81,8756.50,921.50
394,855.18,1044.86,212.53,8607.50,923.50
396,855.50,1049.21,121.35,8487.50,919.75
398,855.82,1053.57,6.89,8344.00,928.50
400,856.14,1057.92,0.00,8294.50,919.25
402,856.46,1062.27,0.00,8233.00,918.00
404,856.78,1066.62,0.00,8302.25,910.50
406,857.10,1070.96,0.00,8312.75,908.75
408,857.42,1075.30,0.00,8443.25,933.25
410,857.74,1079.64,18.73,8565.25,917.25
412,858.06,1083.97,63.60,8655.75,915.25
414,858.37,1088.30,112.60,8829.00,907.50
416,858.69,1092.63,184.61,9103.75,907.50
418,859.01,1096.95,504.97,9824.75,910.50
420,859.33,1101.27,1479.41,11172.00,918.25
422,859.65,1105.59,2318.91,12028.75,916.75
424,859.97,1109.91,1481.51,11316.50,915.25
426,860.29,1114.22,544.08,10149.25,919.00
428,860.61,1118.53,365.97,9742.25,909.50
430,860.93,1122.84,472.34,9741.50,909.25
432,861.25,1127.14,363.51,9628.75,928.50
434,861.56,1131.44,54.46,9338.50,908.50
436,861.88,1135.74,0.00,9176.75,914.25
438,862.20,1140.03,0.00,9168.50,922.25
440,862.52,1144.32,0.00,9252.25,917.25
442,862.84,1148.61,1.62,9435.00,927.50
444,863.16,1152.89,72.33,9727.50,918.50
446,863.48,1157.17,238.26,10427.25,917.00
448,863.80,1161.45,1141.03,13158.75,918.25
450,864.12,1165.73,6727.47,20014.50,926.00
452,864.44,1170.00,10393.78,22665.50,918.75
454,864.76,1174.27,2447.41,15878.50,914.50
456,865.07,1178.53,117.89,11144.75,909.75
458,865.39,1182.80,0.50,10090.00,927.00
460,865.71,1187.06,0.00,9931.75,919.00
462,866.03,1191.31,0.00,10014.00,921.00
464,866.35,1195.57,0.00,10036.50,914.25
466,866.67,1199.82,0.00,10239.50,921.25
468,866.99,1204.06,0.00,10594.00,918.75
470,867.31,1208.31,81.24,11285.25,930.75
472,867.63,1212.55,725.28,12344.00,924.00
474,867.95,1216.79,1562.29,13763.25,910.25
476,868.27,1221.02,2560.80,15664.25,926.50
478,868.58,1225.25,3371.28,17788.00,911.75
480,868.90,1229.48,5072.51,21548.25,928.50
482,869.22,1233.71,10600.44,28541.75,930.75
484,869.54,1237.93,15070.86,32384.75,934.75
486,869.86,1242.15,8376.31,26377.50,923.00
488,870.18,1246.36,2713.78,19016.75,911.25
490,870.50,1250.58,1881.46,16911.25,913.00
492,870.82,1254.79,3511.88,18083.00,936.00
494,871.14,1258.99,3714.41,18100.25,924.75
496,871.46,1263.20,1270.20,16051.25,929.75
498,871.78,1267.40,585.41,15298.50,916.25
500,872.10,1271.59,1889.91,17857.50,920.25
502,872.41,1275.79,6021.05,22229.50,914.75
504,872.73,1279.98,7278.53,23335.25,923.25
506,873.05,1284.17,2814.27,19457.50,922.00
508,873.37,1288.35,380.14,15873.75,897.25
510,873.69,1292.53,28.84,14727.25,912.00
512,874.01,1296.71,26.51,14747.00,909.75
514,874.33,1300.88,203.21,15152.75,908.75
516,874.65,1305.06,581.75,15854.75,917.00
518,874.97,1309.22,1158.66,17307.00,914.00
520,875.29,1313.39,2640.73,20790.75,920.75
522,875.60,1317.55,7399.75,28584.75,922.00
524,875.92,1321.71,16633.27,39069.25,918.50
526,876.24,1325.87,19980.77,42643.75,923.00
528,876.56,1330.02,13585.89,36409.75,915.75
530,876.88,1334.17,7293.12,28248.25,926.50
532,877.20,1338.32,4087.16,22763.75,915.50
534,877.52,1342.46,2935.71,20360.75,909.25
536,877.84,1346.60,2412.30,19324.50,922.00
538,878.16,1350.73,2494.31,19440.00,915.75
540,878.47,1354.87,2828.80,20100.75,921.00
542,878.79,1359.00,3787.81,21825.75,914.75
544,879.11,1363.13,5437.15,24505.00,921.00
546,879.43,1367.25,8391.01,28247.00,918.00
548,879.75,1371.37,10671.55,30545.75,913.50
550,880.07,1375.49,8890.43,28683.00,913.75
552,880.39,1379.60,5426.31,24582.75,926.50
554,880.71,1383.71,3261.35,21299.75,918.25
556,881.03,1387.82,2235.17,19421.25,908.50
558,881.34,1391.93,1731.45,18458.00,902.50
560,881.66,1396.03,1285.95,17764.25,913.25
562,881.98,1400.13,1033.70,17389.25,922.00
564,882.30,1404.22,851.19,17111.00,922.50
566,882.62,1408.31,765.74,16980.75,910.00
568,882.94,1412.40,621.24,16835.75,920.25
570,883.26,1416.49,534.68,16727.50,923.00
572,883.57,1420.57,592.41,16750.00,929.50
574,883.89,1424.65,801.18,16947.25,909.00
576,884.21,1428.73,945.99,17120.75,919.25
578,884.53,1432.80,1018.95,17242.50,930.75
580,884.85,1436.87,1214.18,17480.50,912.75
582,885.17,1440.93,1500.21,17769.75,905.50
584,885.49,1445.00,1727.41,17930.25,911.25
586,885.80,1449.06,1612.34,17715.50,914.25
588,886.12,1453.11,1053.82,17013.75,931.25
590,886.44,1457.17,650.62,16377.75,924.75
592,886.76,1461.22,341.88,15838.50,916.50
594,887.08,1465.26,158.49,15491.50,923.00
596,887.40,1469.31,42.15,15259.00,910.25
598,887.71,1473.35,0.73,15101.25,913.25
600,888.03,1477.38,0.00,14996.00,920.25
602,888.35,1481.42,0.00,14863.50,922.50
604,888.67,1485.45,0.00,14822.00,920.25
606,888.99,1489.48,0.00,14791.25,912.00
608,889.31,1493.50,0.00,14844.75,922.00
610,889.62,1497.52,3.04,15027.00,920.75
612,889.94,1501.54,320.30,15649.75,903.00
614,890.26,1505.56,1079.76,16364.75,916.25
616,890.58,1509.57,1161.94,16636.50,912.25
618,890.90,1513.57,1449.12,16902.25,912.25
620,891.21,1517.58,1430.79,16776.75,915.25
622,891.53,1521.58,336.00,15806.25,915.25
624,891.85,1525.58,8.24,15190.00,913.25
626,892.17,1529.57,0.00,14972.00,918.50
628,892.49,1533.57,0.00,14959.75,913.00
630,892.80,1537.56,0.10,15058.25,907.50
632,893.12,1541.54,49.32,15338.25,914.75
634,893.44,1545.52,439.44,16043.75,918.25
636,893.76,1549.50,1228.72,17355.50,911.25
638,894.07,1553.48,2945.23,19907.00,925.00
640,894.39,1557.45,5777.80,23176.25,916.00
642,894.71,1561.42,7707.77,25115.50,921.50
644,895.03,1565.39,6846.76,24318.50,906.00
646,895.34,1569.35,4315.05,21579.25,923.75
648,895.66,1573.31,2231.78,18887.50,910.00
650,895.98,1577.26,1021.64,17031.25,914.75
652,896.30,1581.22,506.02,16152.00,910.00
654,896.61,1585.17,302.95,15816.75,915.75
656,896.93,1589.11,464.78,16027.75,923.50
658,897.25,1593.06,1009.10,16835.00,911.00
660,897.57,1597.00,2080.29,18672.50,915.00
662,897.88,1600.93,4556.66,22623.50,917.25
664,898.20,1604.87,9851.90,29258.00,917.75
666,898.52,1608.80,16568.21,36366.75,911.75
668,898.84,1612.72,18191.02,38658.75,907.50
670,899.15,1616.65,16889.57,37175.50,925.00
672,899.47,1620.57,14468.17,33626.50,909.00
674,899.79,1624.49,8264.40,26700.00,915.50
676,900.10,1628.40,3985.23,21075.25,907.00
678,900.42,1632.31,3210.76,19485.50,918.25
680,900.74,1636.22,4103.49,20464.00,909.00
682,901.05,1640.12,6358.32,23561.50,930.00
684,901.37,1644.02,11121.61,28829.25,914.75
686,901.69,1647.92,15825.59,33201.50,919.00
688,902.00,1651.82,14382.20,31946.75,916.00
690,902.32,1655.71,10713.80,27847.75,910.25
692,902.64,1659.60,7062.18,23190.25,907.50
694,902.95,1663.48,3446.39,18521.25,917.50
696,903.27,1667.36,1594.42,15580.00,910.50
698,903.59,1671.24,896.30,14137.00,925.00
700,903.90,1675.11,467.32,13308.75,928.50
702,904.22,1678.99,109.67,12717.25,904.50
704,904.54,1682.85,3.30,12399.25,934.75
706,904.85,1686.72,0.00,12092.25,907.25
708,905.17,1690.58,0.00,11931.75,920.75
710,905.49,1694.44,0.00,11822.75,909.50
712,905.80,1698.29,8.15,11740.50,912.75
714,906.12,1702.15,30.38,11635.00,915.50
716,906.43,1706.00,0.98,11483.75,920.75
718,906.75,1709.84,21.33,11378.75,920.00
720,907.07,1713.68,0.00,11213.25,910.50
722,907.38,1717.52,0.00,11098.50,918.25
724,907.70,1721.36,2.33,10992.25,915.25
726,908.01,1725.19,0.00,10836.00,921.75
728,908.33,1729.02,0.00,10735.50,919.75
730,908.65,1732.85,0.00,10682.50,920.00
732,908.96,1736.67,0.00,10616.25,922.00
734,909.28,1740.49,0.69,10545.75,912.25
736,909.59,1744.30,43.63,10516.75,919.50
738,909.91,1748.12,34.34,10420.75,910.00
740,910.22,1751.93,57.23,10389.25,917.75
742,910.54,1755.73,13.49,10295.25,943.00
744,910.85,1759.54,19.63,10194.00,923.50
746,911.17,1763.34,23.25,10117.75,915.50
748,911.49,1767.13,0.00,10004.50,924.00
750,911.80,1770.93,0.00,9921.50,910.50
752,912.12,1774.72,0.00,9870.50,918.00
754,912.43,1778.50,0.00,9785.25,910.00
756,912.75,1782.29,0.57,9738.25,909.00
758,913.06,1786.07,35.64,9721.50,909.25
760,913.38,1789.84,85.54,9707.75,910.50
762,913.69,1793.62,65.22,9645.00,921.50
764,914.01,1797.39,57.24,9554.00,910.75
766,914.32,1801.15,37.74,9467.50,906.25
768,914.64,1804.92,34.94,9417.25,905.00
770,914.95,1808.68,19.42,9353.00,917.00
772,915.26,1812.44,21.48,9298.75,923.00
774,915.58,1816.19,65.38,9266.00,903.25
776,915.89,1819.94,62.78,9208.50,917.75
778,916.21,1823.69,158.41,9258.25,917.75
780,916.52,1827.43,166.02,9219.75,930.75
782,916.84,1831.17,230.67,9214.00,906.50
784,917.15,1834.91,309.62,9227.00,908.00
786,917.47,1838.64,288.16,9170.75,915.00
788,917.78,1842.38,302.28,9131.00,914.75
790,918.09,1846.10,369.92,9127.25,910.00
792,918.41,1849.83,368.64,9072.50,916.25
794,918.72,1853.55,392.97,9015.25,904.25
796,919.04,1857.27,337.09,8917.25,914.50
798,919.35,1860.98,321.98,8857.75,914.00
800,919.66,1864.69,334.32,8791.75,911.75
802,919.98,1868.40,411.18,8810.50,916.25
804,920.29,1872.11,436.50,8774.00,909.75
806,920.60,1875.81,473.08,8765.75,910.75
808,920.92,1879.51,472.99,8706.75,914.00
810,921.23,1883.20,522.63,8698.75,920.25
812,921.55,1886.90,515.98,8628.75,906.50
814,921.86,1890.58,495.78,8560.50,918.75
816,922.17,1894.27,549.74,8549.50,923.50
818,922.49,1897.95,570.56,8497.00,913.75
820,922.80,1901.63,498.34,8377.00,914.50
822,923.11,1905.31,465.30,8283.50,913.25
824,923.42,1908.98,501.97,8248.25,911.00
826,923.74,1912.65,476.62,8170.00,919.50
828,924.05,1916.31,448.50,8072.00,912.25
830,924.36,1919.98,461.19,8022.75,908.50
832,924.68,1923.64,496.99,7997.50,909.50
834,924.99,1927.29,490.20,7929.50,907.00
836,925.30,1930.94,502.82,7883.75,902.00
838,925.61,1934.59,493.25,7809.50,914.00
840,925.93,1938.24,473.48,7739.75,915.00
842,926.24,1941.88,433.41,7647.25,914.50
844,926.55,1945.52,400.77,7539.50,906.75
846,926.86,1949.16,389.75,7470.50,912.50
848,927.18,1952.79,372.50,7395.25,912.25
850,927.49,1956.42,370.53,7335.00,906.00
852,927.80,1960.05,363.89,7280.25,924.50
854,928.11,1963.67,372.01,7217.75,912.25
856,928.42,1967.29,342.91,7139.50,922.00
858,928.74,1970.91,366.90,7101.75,920.25
860,929.05,1974.52,340.98,7016.25,913.00
862,929.36,1978.13,304.10,6913.75,905.50
864,929.67,1981.74,294.33,6842.00,912.50
866,929.98,1985.35,265.81,6761.50,914.25
868,930.29,1988.95,182.43,6633.50,918.75
870,930.61,1992.54,169.52,6543.75,910.25
872,930.92,1996.14,180.78,6502.50,909.75
874,931.23,1999.73,85.89,6363.50,918.25
876,931.54,2003.32,112.89,6334.50,916.00
878,931.85,2006.90,122.98,6279.00,911.25
880,932.16,2010.48,167.35,6265.00,908.50
882,932.47,2014.06,141.58,6198.00,912.75
884,932.78,2017.63,156.65,6171.25,915.75
886,933.09,2021.21,174.67,6119.25,909.50
888,933.41,2024.77,177.18,6066.50,926.75
890,933.72,2028.34,169.77,6011.25,930.75
892,934.03,2031.90,70.88,5861.75,917.50
894,934.34,2035.46,25.99,5790.75,918.75
896,934.65,2039.01,0.48,5680.50,906.50
898,934.96,2042.57,0.00,5610.25,923.00
900,935.27,2046.11,0.00,5584.50,927.00
902,935.58,2049.66,6.90,5534.25,908.00
904,935.89,2053.20,40.74,5510.25,910.00
906,936.20,2056.74,39.20,5452.00,912.00
908,936.51,2060.28,73.64,5433.00,908.50
910,936.82,2063.81,13.60,5339.25,914.50
912,937.13,2067.34,25.53,5301.25,917.00
914,937.44,2070.86,65.64,5269.00,910.25
916,937.75,2074.39,8.59,5197.00,909.75
918,938.06,2077.91,0.00,5119.75,909.25
920,938.37,2081.42,0.00,5070.75,913.50
922,938.68,2084.94,0.00,5029.75,914.75
924,938.99,2088.45,7.31,4989.50,904.50
926,939.30,2091.95,0.35,4953.00,921.75
928,939.60,2095.46,18.83,4928.50,914.75
930,939.91,2098.96,33.32,4897.50,924.25
932,940.22,2102.45,30.43,4852.75,921.50
934,940.53,2105.95,8.33,4786.50,909.25
936,940.84,2109.44,1.97,4740.25,908.75
938,941.15,2112.92,4.60,4717.00,916.50
940,941.46,2116.41,0.00,4644.50,909.25
942,941.77,2119.89,44.36,4655.00,915.00
944,942.07,2123.37,15.84,4600.25,909.75
946,942.38,2126.84,1.73,4571.00,921.50
948,942.69,2130.31,0.00,4514.25,916.75
950,943.00,2133.78,0.00,4462.25,912.25
952,943.31,2137.24,0.00,4444.50,921.00
954,943.62,2140.70,0.00,4399.25,915.50
956,943.92,2144.16,2.85,4379.75,910.75
958,944.23,2147.62,0.00,4345.25,918.25
960,944.54,2151.07,0.18,4338.75,927.25
962,944.85,2154.52,39.68,4355.75,926.75
964,945.16,2157.96,11.96,4294.75,924.00
966,945.46,2161.40,27.79,4271.50,913.00
968,945.77,2164.84,26.05,4236.75,902.50
970,946.08,2168.28,2.70,4207.00,908.75
972,946.39,2171.71,0.00,4173.50,911.50
974,946.69,2175.14,0.00,4144.75,910.75
976,947.00,2178.57,0.00,4098.50,912.00
978,947.31,2181.99,29.00,4123.75,902.00
980,947.61,2185.41,20.56,4100.25,911.00
982,947.92,2188.82,34.50,4096.75,913.25
984,948.23,2192.24,13.79,4057.25,906.75
986,948.53,2195.65,0.00,4026.50,914.75
988,948.84,2199.05,24.80,4016.00,898.75
990,949.15,2202.46,3.05,3998.25,916.50
992,949.45,2205.86,4.23,3979.50,917.00
994,949.76,2209.25,56.59,3980.50,905.00
996,950.07,2212.65,25.85,3952.75,908.00
998,950.37,2216.04,10.97,3919.25,905.50
1000,950.68,2219.43,36.81,3924.00,911.75
1002,950.98,2222.81,23.28,3896.00,915.50
1004,951.29,2226.19,26.81,3871.00,907.00
1006,951.60,2229.57,66.97,3880.50,905.50
1008,951.90,2232.94,20.87,3827.50,902.75
1010,952.21,2236.32,39.47,3830.50,907.50
1012,952.51,2239.68,48.69,3820.00,914.75
1014,952.82,2243.05,40.37,3778.75,898.25
1016,953.12,2246.41,31.69,3778.75,924.00
1018,953.43,2249.77,32.37,3770.75,932.75
1020,953.73,2253.12,33.58,3741.25,918.75
1022,954.04,2256.48,31.89,3694.50,895.75
1024,954.34,2259.83,32.04,3700.00,921.25
1026,954.65,2263.17,11.21,3656.50,911.50
1028,954.95,2266.51,29.87,3658.75,913.00
1030,955.26,2269.85,5.52,3626.00,921.50
1032,955.56,2273.19,32.64,3625.75,919.50
1034,955.87,2276.52,7.44,3589.75,915.75
1036,956.17,2279.85,0.02,3572.25,924.50
1038,956.48,2283.18,0.00,3535.75,904.25
1040,956.78,2286.50,1.37,3526.50,909.25
1042,957.08,2289.82,11.13,3515.00,902.00
1044,957.39,2293.14,34.25,3525.50,913.25
1046,957.69,2296.45,66.96,3516.75,902.50
1048,957.99,2299.76,55.69,3518.25,924.00
1050,958.30,2303.07,39.90,3483.75,914.75
1052,958.60,2306.38,22.12,3453.25,912.75
1054,958.91,2309.68,41.32,3452.00,914.00
1056,959.21,2312.98,30.28,3417.00,902.25
1058,959.51,2316.27,0.00,3383.50,909.00
1060,959.82,2319.56,27.90,3404.50,920.75
1062,960.12,2322.85,18.33,3364.50,906.50
1064,960.42,2326.14,18.67,3353.25,905.25
1066,960.72,2329.42,10.54,3342.25,912.75
1068,961.03,2332.70,30.34,3344.75,915.25
1070,961.33,2335.97,64.86,3345.00,916.50
1072,961.63,2339.25,29.21,3304.00,908.50
1074,961.93,2342.52,50.01,3318.25,919.25
1076,962.24,2345.78,76.71,3309.75,912.50
1078,962.54,2349.05,33.97,3264.25,908.75
1080,962.84,2352.31,43.71,3262.25,910.75
1082,963.14,2355.56,47.70,3241.50,905.50
1084,963.45,2358.82,36.54,3220.50,906.00
1086,963.75,2362.07,0.00,3189.00,915.50
1088,964.05,2365.32,20.94,3200.75,924.00
1090,964.35,2368.56,33.39,3182.25,913.50
1092,964.65,2371.80,3.28,3159.00,923.00
1094,964.95,2375.04,0.00,3120.25,910.25
1096,965.25,2378.27,48.67,3151.75,911.00
1098,965.56,2381.51,19.33,3123.75,917.25
1100,965.86,2384.73,55.75,3138.00,913.25
1102,966.16,2387.96,45.33,3111.00,909.00
1104,966.46,2391.18,57.49,3112.00,919.75
1106,966.76,2394.40,41.72,3087.50,912.75
1108,967.06,2397.62,18.49,3064.75,918.75
1110,967.36,2400.83,60.78,3062.50,906.50
1112,967.66,2404.04,56.08,3070.25,925.00
1114,967.96,2407.25,1.36,2997.00,902.50
1116,968.26,2410.45,49.05,3022.50,909.75
1118,968.56,2413.65,12.05,2983.75,903.50
1120,968.86,2416.85,0.00,2975.25,927.00
1122,969.16,2420.04,3.77,2965.75,916.00
1124,969.46,2423.23,0.66,2942.00,906.50
1126,969.76,2426.42,10.70,2949.75,916.00
1128,970.06,2429.60,0.00,2917.00,904.00
1130,970.36,2432.79,43.40,2948.00,908.75
1132,970.66,2435.96,74.29,2947.25,909.00
1134,970.96,2439.14,91.94,2944.00,904.00
1136,971.26,2442.31,103.49,2960.50,912.25
1138,971.56,2445.48,119.66,2965.50,913.75
1140,971.86,2448.65,152.36,2957.00,904.25
1142,972.16,2451.81,207.18,2986.25,916.50
1144,972.45,2454.97,207.32,2983.00,916.00
1146,972.75,2458.13,232.58,2991.25,913.50
1148,973.05,2461.28,232.30,2967.75,906.50
1150,973.35,2464.43,302.11,3004.50,915.50
1152,973.65,2467.58,251.09,2962.50,911.50
1154,973.95,2470.72,263.32,2967.75,913.75
1156,974.24,2473.86,289.27,2972.00,912.50
1158,974.54,2477.00,325.87,2969.00,904.00
1160,974.84,2480.13,371.92,2990.00,914.50
1162,975.14,2483.27,320.40,2944.50,909.75
1164,975.43,2486.40,334.50,2938.00,902.25
1166,975.73,2489.52,292.23,2906.25,907.00
1168,976.03,2492.64,246.99,2869.50,910.75
1170,976.33,2495.76,218.75,2847.50,910.75
1172,976.62,2498.88,147.12,2794.00,906.00
1174,976.92,2501.99,115.23,2769.00,915.50
1176,977.22,2505.10,124.54,2759.75,916.50
1178,977.51,2508.21,112.25,2733.75,907.00
1180,977.81,2511.31,82.40,2707.75,906.00
1182,978.11,2514.41,54.19,2684.25,908.50
1184,978.40,2517.51,57.88,2682.00,915.00
1186,978.70,2520.61,38.29,2660.50,915.25
1188,979.00,2523.70,40.46,2656.25,916.00
1190,979.29,2526.79,26.81,2627.00,909.00
1192,979.59,2529.87,67.78,2637.25,911.75
1194,979.88,2532.95,47.03,2618.25,908.50
1196,980.18,2536.03,18.25,2605.25,923.00
1198,980.48,2539.11,83.46,2630.25,926.50
1200,980.77,2542.18,103.59,2613.00,912.00
1202,981.07,2545.25,59.68,2596.25,920.75
1204,981.36,2548.32,55.87,2574.25,913.75
1206,981.66,2551.38,144.58,2608.25,920.50
1208,981.95,2554.44,87.45,2563.25,913.75
1210,982.25,2557.50,65.75,2555.75,925.75
1212,982.54,2560.56,50.67,2537.50,920.25
1214,982.84,2563.61,18.97,2518.25,926.50
1216,983.13,2566.66,12.14,2494.50,919.75
1218,983.43,2569.70,0.00,2473.00,925.00
1220,983.72,2572.74,40.40,2487.25,919.75
1222,984.01,2575.78,14.98,2466.50,920.50
1224,984.31,2578.82,60.47,2469.75,909.00
1226,984.60,2581.85,83.75,2470.00,913.25
1228,984.90,2584.88,39.39,2432.50,904.50
1230,985.19,2587.91,91.01,2455.75,911.25
1232,985.48,2590.93,112.52,2461.25,917.50
1234,985.78,2593.96,61.11,2428.00,916.75
1236,986.07,2596.97,98.21,2431.50,913.00
1238,986.36,2599.99,90.08,2432.25,928.75
1240,986.66,2603.00,72.62,2414.50,926.50
1242,986.95,2606.01,71.97,2407.00,928.50
1244,987.24,2609.01,64.69,2388.00,923.00
1246,987.54,2612.02,38.13,2341.50,898.00
1248,987.83,2615.02,10.19,2338.50,919.00
1250,988.12,2618.01,31.68,2342.25,921.00
1252,988.41,2621.01,21.69,2328.75,917.75
1254,988.71,2624.00,5.14,2305.25,914.75
1256,989.00,2626.99,43.81,2318.00,920.75
1258,989.29,2629.97,12.60,2295.75,921.00
1260,989.58,2632.95,51.30,2305.50,918.00
1262,989.87,2635.93,0.00,2274.25,924.00
1264,990.16,2638.91,27.77,2270.00,911.75
1266,990.46,2641.88,39.93,2275.75,923.00
1268,990.75,2644.85,50.95,2280.50,934.50
1270,991.04,2647.81,75.72,2263.00,917.25
1272,991.33,2650.78,38.27,2245.00,916.50
1274,991.62,2653.74,19.93,2229.50,915.50
1276,991.91,2656.70,13.83,2216.75,918.00
1278,992.20,2659.65,34.02,2222.00,922.00
1280,992.49,2662.60,0.00,2186.75,912.00
1282,992.78,2665.55,4.97,2203.50,931.00
1284,993.07,2668.50,40.63,2208.00,930.00
1286,993.36,2671.44,76.60,2200.25,924.00
1288,993.65,2674.38,1.75,2171.00,927.25
1290,993.94,2677.31,4.85,2161.75,924.50
1292,994.23,2680.25,30.22,2159.50,920.00
1294,994.52,2683.18,1.65,2144.50,923.50
1296,994.81,2686.10,0.00,2135.25,926.00
1298,995.10,2689.03,4.55,2132.25,921.00
1300,995.39,2691.95,47.83,2139.50,919.50
1302,995.68,2694.87,105.81,2158.50,934.25
1304,995.97,2697.78,104.70,2149.25,926.50
1306,996.26,2700.70,84.96,2126.25,916.25
1308,996.55,2703.61,117.46,2138.25,925.50
1310,996.84,2706.51,98.96,2126.25,928.00
1312,997.13,2709.42,85.83,2109.50,919.75
1314,997.41,2712.32,83.22,2117.25,934.25
1316,997.70,2715.21,172.44,2123.75,915.25
1318,997.99,2718.11,249.53,2142.00,919.25
1320,998.28,2721.00,238.46,2127.75,916.00
1322,998.57,2723.89,272.74,2144.75,928.00
1324,998.86,2726.77,258.68,2109.75,910.75
1326,999.14,2729.66,245.09,2109.50,922.50
1328,999.43,2732.54,193.98,2088.75,918.50
1330,999.72,2735.41,109.58,2050.75,918.25
1332,1000.01,2738.29,109.58,2047.00,926.50
1334,1000.29,2741.16,107.56,2026.75,918.25
1336,1000.58,2744.03,60.82,2002.50,916.75
1338,1000.87,2746.89,39.52,2001.00,928.75
1340,1001.15,2749.75,0.00,1960.50,920.00
1342,1001.44,2752.61,13.74,1967.50,920.00
1344,1001.73,2755.47,0.00,1949.75,918.75
1346,1002.01,2758.32,0.00,1937.50,916.75
1348,1002.30,2761.17,55.75,1977.75,931.75
1350,1002.59,2764.02,89.57,1979.00,932.75
1352,1002.87,2766.86,63.03,1955.25,921.50
1354,1003.16,2769.70,101.67,1958.25,915.50
1356,1003.44,2772.54,83.77,1946.50,913.25
1358,1003.73,2775.38,99.11,1953.25,919.75
1360,1004.01,2778.21,86.69,1932.75,910.75
1362,1004.30,2781.04,54.32,1921.25,916.25
1364,1004.58,2783.87,117.55,1937.25,915.00
1366,1004.87,2786.69,51.47,1903.25,907.50
1368,1005.15,2789.51,59.05,1913.50,923.50
1370,1005.44,2792.33,89.09,1919.25,924.75
1372,1005.72,2795.14,8.13,1891.25,923.75
1374,1006.01,2797.95,0.00,1885.50,930.00
1376,1006.29,2800.76,0.45,1868.50,915.50
1378,1006.58,2803.57,4.96,1882.25,931.75
1380,1006.86,2806.37,16.16,1862.50,914.75
1382,1007.14,2809.17,22.57,1866.25,915.00
1384,1007.43,2811.97,0.00,1848.50,911.50
1386,1007.71,2814.77,0.00,1845.25,911.25
1388,1008.00,2817.56,0.00,1851.00,916.75
1390,1008.28,2820.35,0.00,1870.25,926.75
1392,1008.56,2823.13,0.00,1856.25,910.75
1394,1008.85,2825.91,0.00,1879.00,924.00
1396,1009.13,2828.69,12.14,1889.75,915.25
1398,1009.41,2831.47,0.17,1903.00,928.25
1400,1009.69,2834.24,4.74,1897.50,909.25
1402,1009.98,2837.02,73.88,1944.75,917.25
1404,1010.26,2839.78,148.26,1960.50,925.75
1406,1010.54,2842.55,280.22,1975.75,908.75
1408,1010.82,2845.31,173.03,1981.50,921.50
1410,1011.11,2848.07,60.68,1969.75,927.50
1412,1011.39,2850.83,32.08,1964.75,920.75
1414,1011.67,2853.58,0.00,1953.00,921.00
1416,1011.95,2856.33,0.00,1948.75,920.00
1418,1012.23,2859.08,0.00,1956.75,920.50
1420,1012.51,2861.83,0.00,1969.25,916.00
1422,1012.80,2864.57,0.00,1992.75,934.00
1424,1013.08,2867.31,3.66,2027.25,929.00
1426,1013.36,2870.04,7.33,2036.00,925.00
1428,1013.64,2872.78,18.68,2046.50,917.50
1430,1013.92,2875.51,131.63,2105.25,929.75
1432,1014.20,2878.24,264.00,2129.25,917.25
1434,1014.48,2880.96,255.92,2133.75,916.50
1436,1014.76,2883.68,480.19,2187.75,912.50
1438,1015.04,2886.40,581.78,2212.00,911.50
1440,1015.32,2889.12,533.55,2219.75,922.50
1442,1015.60,2891.83,605.24,2235.50,913.25
1444,1015.88,2894.54,734.17,2281.00,928.25
1446,1016.16,2897.25,871.53,2291.25,905.50
1448,1016.44,2899.96,995.84,2343.25,924.00
1450,1016.72,2902.66,1134.63,2377.00,922.25
1452,1017.00,2905.36,1322.98,2439.00,935.00
1454,1017.28,2908.06,1457.68,2461.25,917.25
1456,1017.55,2910.75,1689.16,2534.75,928.00
1458,1017.83,2913.44,2195.57,2652.25,916.00
1460,1018.11,2916.13,2664.03,2780.50,920.00
1462,1018.39,2918.81,3288.84,2953.50,927.75
1464,1018.67,2921.49,4288.75,3181.75,924.00
1466,1018.95,2924.17,5827.08,3488.25,924.50
1468,1019.22,2926.85,7463.73,3763.25,923.75
1470,1019.50,2929.52,8639.06,3928.50,912.50
1472,1019.78,2932.20,8679.64,3920.25,909.50
1474,1020.06,2934.86,7460.24,3714.25,920.00
1476,1020.33,2937.53,5920.50,3451.00,933.00
1478,1020.61,2940.19,4299.44,3113.00,917.75
1480,1020.89,2942.85,3052.32,2849.00,930.25
1482,1021.17,2945.51,2160.12,2620.75,918.75
1484,1021.44,2948.16,1610.63,2479.00,918.25
1486,1021.72,2950.81,1165.32,2358.25,916.00
1488,1022.00,2953.46,855.81,2292.75,929.50
1490,1022.27,2956.11,539.01,2218.50,921.00
1492,1022.55,2958.75,230.00,2164.75,929.75
1494,1022.82,2961.39,68.47,2115.50,921.75
1496,1023.10,2964.03,50.84,2112.25,929.00
1498,1023.38,2966.66,0.00,2071.25,921.50
1500,1023.65,2969.29,50.24,2086.00,926.00
1502,1023.93,2971.92,1.46,2069.00,930.25
1504,1024.20,2974.55,0.29,2053.50,923.00
1506,1024.48,2977.17,0.00,2041.25,925.50
1508,1024.75,2979.79,117.32,2048.75,911.75
1510,1025.03,2982.41,0.00,2022.25,918.25
1512,1025.30,2985.02,0.00,2010.75,910.25
1514,1025.58,2987.63,0.89,2020.75,922.00
1516,1025.85,2990.24,0.00,1994.00,919.25
1518,1026.13,2992.85,0.00,2012.00,926.00
1520,1026.40,2995.45,0.00,2004.00,925.00
1522,1026.68,2998.05,0.00,1999.50,921.00
1524,1026.95,3000.65,117.59,2050.00,934.75
1526,1027.22,3003.25,231.46,2041.75,921.50
1528,1027.50,3005.84,484.66,2063.50,918.00
1530,1027.77,3008.43,706.16,2081.50,919.75
1532,1028.04,3011.02,525.03,2066.50,928.25
1534,1028.32,3013.60,250.20,2038.00,922.00
1536,1028.59,3016.18,52.28,2013.75,924.50
1538,1028.86,3018.76,1.02,1962.25,908.50
1540,1029.14,3021.34,1.69,1974.75,921.25
1542,1029.41,3023.91,0.00,1949.25,914.75
1544,1029.68,3026.48,22.68,1966.25,914.25
1546,1029.95,3029.05,150.09,1998.50,919.75
1548,1030.22,3031.61,264.48,1999.25,913.25
1550,1030.50,3034.17,504.92,2035.25,912.75
1552,1030.77,3036.73,1064.18,2131.75,915.50
1554,1031.04,3039.29,1666.60,2231.75,927.25
1556,1031.31,3041.84,2420.90,2324.25,913.75
1558,1031.58,3044.39,3381.22,2474.75,934.25
1560,1031.85,3046.94,4482.25,2619.75,936.00
1562,1032.13,3049.49,5436.67,2727.25,916.00
1564,1032.40,3052.03,5839.03,2803.25,928.25
1566,1032.67,3054.57,6255.12,2865.00,915.25
1568,1032.94,3057.11,6645.46,2935.50,932.50
1570,1033.21,3059.64,7459.61,3005.50,913.75
1572,1033.48,3062.18,8331.87,3101.25,930.50
1574,1033.75,3064.70,8611.88,3106.25,928.00
1576,1034.02,3067.23,8306.29,3059.75,924.00
1578,1034.29,3069.75,7511.67,2946.25,915.25
1580,1034.56,3072.28,7065.83,2878.00,926.50
1582,1034.83,3074.79,6744.21,2773.75,907.25
1584,1035.10,3077.31,6165.56,2680.50,925.75
1586,1035.37,3079.82,5186.77,2537.50,918.75
1588,1035.64,3082.33,3804.84,2378.50,935.25
1590,1035.91,3084.84,2694.38,2226.75,929.25
1592,1036.17,3087.34,2002.87,2116.75,920.00
1594,1036.44,3089.85,1744.54,2087.25,934.50
1596,1036.71,3092.35,1622.73,2041.50,917.50
1598,1036.98,3094.84,2018.47,2080.25,912.50
1600,1037.25,3097.34,2714.38,2137.25,909.00
1602,1037.52,3099.83,3888.55,2238.00,921.25
1604,1037.78,3102.32,4706.55,2272.50,918.00
1606,1038.05,3104.80,4436.46,2251.00,931.75
1608,1038.32,3107.29,3009.54,2114.25,915.75
1610,1038.59,3109.77,1673.26,1986.00,917.50
1612,1038.85,3112.24,838.83,1867.25,912.75
1614,1039.12,3114.72,477.60,1815.50,932.75
1616,1039.39,3117.19,336.57,1749.75,907.00
1618,1039.66,3119.66,276.35,1748.50,925.25
1620,1039.92,3122.13,118.22,1729.25,928.50
1622,1040.19,3124.59,33.06,1709.75,921.25
1624,1040.45,3127.05,1.51,1687.50,919.00
1626,1040.72,3129.51,0.00,1681.75,924.50
1628,1040.99,3131.97,0.00,1673.50,930.00
1630,1041.25,3134.42,0.00,1672.75,933.75
1632,1041.52,3136.87,0.00,1647.50,911.75
1634,1041.78,3139.32,0.00,1657.50,924.50
1636,1042.05,3141.77,17.40,1693.50,953.00
1638,1042.32,3144.21,0.00,1647.50,916.75
1640,1042.58,3146.65,24.96,1674.50,932.75
1642,1042.85,3149.09,41.61,1667.75,925.00
1644,1043.11,3151.52,34.68,1664.75,924.75
1646,1043.38,3153.96,92.92,1676.75,930.50
1648,1043.64,3156.39,209.05,1676.25,920.00
1650,1043.90,3158.81,263.62,1682.00,922.50
1652,1044.17,3161.24,309.24,1692.00,928.25
1654,1044.43,3163.66,314.87,1675.25,911.50
1656,1044.70,3166.08,370.60,1699.25,932.50
1658,1044.96,3168.49,369.02,1682.00,918.75
1660,1045.22,3170.91,371.11,1684.25,920.25
1662,1045.49,3173.32,139.15,1669.25,924.25
1664,1045.75,3175.73,31.92,1663.50,931.25
1666,1046.01,3178.13,0.00,1641.50,916.75
1668,1046.28,3180.54,245.41,1681.00,932.50
1670,1046.54,3182.94,155.14,1669.00,933.00
1672,1046.80,3185.34,272.93,1674.00,926.00
1674,1047.07,3187.73,108.17,1647.75,915.00
1676,1047.33,3190.12,89.95,1652.50,924.00
1678,1047.59,3192.51,359.29,1680.50,928.25
1680,1047.85,3194.90,262.39,1676.25,941.00
1682,1048.11,3197.29,307.62,1671.25,937.25
1684,1048.38,3199.67,602.89,1682.00,925.00
1686,1048.64,3202.05,515.82,1685.50,940.25
1688,1048.90,3204.43,527.06,1673.50,932.50
1690,1049.16,3206.80,847.07,1680.75,918.25
1692,1049.42,3209.17,763.41,1680.50,932.50
1694,1049.68,3211.54,1058.67,1688.75,920.75
1696,1049.94,3213.91,1140.73,1692.00,921.00
1698,1050.20,3216.27,1186.45,1696.75,925.50
1700,1050.46,3218.63,1299.18,1716.25,939.75
1702,1050.72,3220.99,1277.98,1697.75,929.50
1704,1050.98,3223.35,1539.28,1715.50,933.75
1706,1051.24,3225.70,1855.48,1716.00,915.75
1708,1051.50,3228.05,1598.65,1693.75,917.75
1710,1051.76,3230.40,1667.63,1716.25,938.25
1712,1052.02,3232.75,1934.59,1720.00,926.50
1714,1052.28,3235.09,1798.78,1710.75,935.75
1716,1052.54,3237.43,2080.84,1713.75,924.50
1718,1052.80,3239.77,2166.75,1710.50,919.75
1720,1053.06,3242.11,1889.12,1693.00,926.25
1722,1053.32,3244.44,2042.99,1696.75,922.50
1724,1053.58,3246.77,2114.09,1714.25,941.50
1726,1053.84,3249.10,2256.81,1706.25,929.50
1728,1054.10,3251.42,2290.42,1704.50,931.50
1730,1054.35,3253.75,2466.51,1707.25,927.75
1732,1054.61,3256.07,2504.10,1716.50,940.50
1734,1054.87,3258.39,2636.08,1706.25,927.25
1736,1055.13,3260.70,2726.05,1702.00,924.25
1738,1055.38,3263.01,3000.23,1715.75,926.00
1740,1055.64,3265.32,2941.90,1706.25,925.50
1742,1055.90,3267.63,2824.89,1682.00,913.25
1744,1056.16,3269.94,2900.47,1711.75,942.50
1746,1056.41,3272.24,2535.87,1679.00,941.00
1748,1056.67,3274.54,2834.84,1680.50,929.75
1750,1056.93,3276.84,2844.02,1676.00,931.75
1752,1057.18,3279.13,2717.57,1657.25,927.00
1754,1057.44,3281.42,2772.51,1648.25,919.25
1756,1057.69,3283.71,2734.43,1647.00,924.50
1758,1057.95,3286.00,2600.48,1649.50,939.00
1760,1058.21,3288.28,2500.98,1620.00,920.50
1762,1058.46,3290.57,2569.72,1631.75,936.00
1764,1058.72,3292.85,2851.25,1631.50,928.00
1766,1058.97,3295.12,2922.55,1622.00,920.00
1768,1059.23,3297.40,2728.80,1611.00,923.00
1770,1059.48,3299.67,2645.05,1613.00,934.25
1772,1059.74,3301.94,2799.19,1595.25,914.00
1774,1059.99,3304.21,2542.29,1595.50,935.50
1776,1060.25,3306.47,2798.30,1607.50,937.25
1778,1060.50,3308.73,2566.80,1570.25,918.25
1780,1060.76,3310.99,2645.65,1575.25,923.25
1782,1061.01,3313.25,2773.04,1580.75,925.50
1784,1061.26,3315.50,2902.47,1583.00,925.25
1786,1061.52,3317.76,3073.86,1590.25,929.25
1788,1061.77,3320.01,3257.05,1598.50,934.25
1790,1062.02,3322.25,3071.51,1567.50,921.00
1792,1062.28,3324.50,3509.47,1589.00,929.00
1794,1062.53,3326.74,3600.32,1570.00,914.75
1796,1062.78,3328.98,3531.26,1570.75,923.00
1798,1063.04,3331.22,3028.10,1548.00,925.00
1800,1063.29,3333.45,2611.34,1526.50,925.00
1802,1063.54,3335.68,2188.35,1501.25,925.50
1804,1063.79,3337.91,2262.56,1505.50,932.25
1806,1064.05,3340.14,2225.25,1504.50,941.00
1808,1064.30,3342.36,2003.36,1464.00,917.75
1810,1064.55,3344.59,1885.76,1468.25,930.50
1812,1064.80,3346.81,1432.07,1440.00,925.50
1814,1065.05,3349.02,1382.39,1433.00,923.50
1816,1065.30,3351.24,1307.47,1431.75,931.25
1818,1065.55,3353.45,1066.56,1410.50,927.50
1820,1065.81,3355.66,1313.53,1434.75,944.50
1822,1066.06,3357.87,1204.35,1406.50,923.50
1824,1066.31,3360.07,886.97,1386.75,921.50
1826,1066.56,3362.27,1086.96,1398.25,928.50
1828,1066.81,3364.47,962.34,1375.50,917.50
1830,1067.06,3366.67,1003.16,1375.50,920.75
1832,1067.31,3368.87,1047.28,1376.25,921.75
1834,1067.56,3371.06,525.01,1344.25,913.00
1836,1067.81,3373.25,273.43,1334.25,917.00
1838,1068.06,3375.44,223.34,1329.00,919.25
1840,1068.31,3377.62,780.37,1343.00,916.25
1842,1068.56,3379.81,645.23,1335.50,920.75
1844,1068.80,3381.99,538.10,1343.00,937.00
1846,1069.05,3384.16,362.46,1324.50,931.00
1848,1069.30,3386.34,772.17,1321.00,916.50
1850,1069.55,3388.51,555.19,1306.50,917.50
1852,1069.80,3390.68,777.12,1311.25,919.75
1854,1070.05,3392.85,615.67,1323.75,943.00
1856,1070.30,3395.02,636.76,1306.75,929.00
1858,1070.54,3397.18,636.34,1286.00,912.25
1860,1070.79,3399.34,648.93,1295.25,926.50
1862,1071.04,3401.50,622.74,1280.50,919.75
1864,1071.29,3403.66,1117.42,1279.75,908.00
1866,1071.53,3405.81,322.06,1268.25,927.75
1868,1071.78,3407.96,461.52,1263.75,921.25
1870,1072.03,3410.11,344.84,1261.00,928.00
1872,1072.27,3412.26,643.32,1262.25,924.00
1874,1072.52,3414.40,239.16,1243.00,923.50
1876,1072.77,3416.54,456.55,1242.00,918.00
1878,1073.01,3418.68,432.54,1247.50,929.25
1880,1073.26,3420.82,523.94,1223.50,908.25
1882,1073.51,3422.96,652.83,1241.00,926.50
1884,1073.75,3425.09,683.70,1231.25,917.50
1886,1074.00,3427.22,372.17,1212.00,912.25
1888,1074.24,3429.35,703.12,1237.50,931.75
1890,1074.49,3431.47,725.64,1215.00,916.25
1892,1074.73,3433.59,543.77,1204.25,915.50
1894,1074.98,3435.71,563.91,1217.75,930.75
1896,1075.22,3437.83,429.43,1206.50,927.00
1898,1075.47,3439.95,388.88,1200.50,927.00
1900,1075.71,3442.06,679.20,1206.00,928.00
1902,1075.96,3444.17,456.70,1191.50,924.50
1904,1076.20,3446.28,621.32,1166.00,897.75
1906,1076.44,3448.38,612.55,1195.75,932.75
1908,1076.69,3450.49,718.61,1188.75,927.50
1910,1076.93,3452.59,815.42,1180.25,919.50
1912,1077.17,3454.69,487.78,1164.50,916.00
1914,1077.42,3456.79,403.89,1166.50,924.00
1916,1077.66,3458.88,662.33,1161.25,915.00
1918,1077.90,3460.97,716.80,1160.50,916.75
1920,1078.15,3463.06,419.80,1161.75,930.50
1922,1078.39,3465.15,760.84,1157.75,922.00
1924,1078.63,3467.23,872.46,1140.25,906.00
1926,1078.87,3469.32,690.72,1156.75,928.75
1928,1079.12,3471.40,234.24,1135.00,921.50
1930,1079.36,3473.47,568.30,1164.00,942.75
1932,1079.60,3475.55,296.16,1125.25,917.25
1934,1079.84,3477.62,799.85,1137.75,922.00
1936,1080.08,3479.69,539.93,1125.00,918.25
1938,1080.33,3481.76,534.14,1118.50,912.50
1940,1080.57,3483.83,102.12,1115.75,925.00
1942,1080.81,3485.89,17.04,1111.00,926.00
1944,1081.05,3487.95,344.02,1124.75,935.00
1946,1081.29,3490.01,815.97,1115.25,918.50
1948,1081.53,3492.07,350.97,1099.50,915.50
1950,1081.77,3494.12,424.73,1100.50,917.00
1952,1082.01,3496.18,610.18,1112.00,927.00
1954,1082.25,3498.23,489.47,1095.75,917.25
1956,1082.49,3500.27,542.03,1098.50,922.00
1958,1082.73,3502.32,688.81,1091.00,913.50
1960,1082.97,3504.36,535.12,1098.75,926.50
1962,1083.21,3506.40,307.31,1081.75,917.25
1964,1083.45,3508.44,64.50,1066.00,910.25
1966,1083.69,3510.48,320.61,1103.25,943.50
1968,1083.93,3512.51,274.40,1077.50,922.00
1970,1084.16,3514.54,668.29,1076.50,916.50
1972,1084.40,3516.57,333.94,1072.75,922.50
1974,1084.64,3518.60,628.38,1068.00,913.25
1976,1084.88,3520.62,270.56,1078.75,932.00
1978,1085.12,3522.65,0.00,1076.25,939.25
1980,1085.36,3524.67,418.65,1071.50,925.75
1982,1085.59,3526.68,595.94,1059.50,914.75
1984,1085.83,3528.70,439.09,1069.25,930.75
1986,1086.07,3530.71,570.23,1061.25,922.00
1988,1086.31,3532.72,380.91,1063.75,929.25
1990,1086.54,3534.73,519.76,1051.75,915.50
1992,1086.78,3536.74,504.41,1065.50,931.50
1994,1087.02,3538.74,289.64,1051.25,924.50
1996,1087.25,3540.74,863.42,1046.75,912.25
1998,1087.49,3542.74,1059.57,1054.00,918.75
2000,1087.73,3544.74,399.22,1041.25,918.75
2002,1087.96,3546.74,365.84,1043.25,922.75
2004,1088.20,3548.73,353.82,1053.00,934.50
2006,1088.43,3550.72,667.91,1044.00,921.25
2008,1088.67,3552.71,462.29,1037.75,920.25
2010,1088.90,3554.69,291.27,1024.75,912.25
2012,1089.14,3556.68,987.21,1040.25,917.00
2014,1089.38,3558.66,675.52,1024.00,909.75
2016,1089.61,3560.64,935.45,1028.25,912.00
2018,1089.84,3562.62,490.34,1032.00,923.00
2020,1090.08,3564.59,234.28,1017.75,913.75
2022,1090.31,3566.56,212.57,1017.00,914.50
2024,1090.55,3568.53,516.30,1021.50,914.75
2026,1090.78,3570.50,156.75,1008.50,911.00
2028,1091.02,3572.47,975.58,1015.25,908.00
2030,1091.25,3574.43,392.00,1009.50,911.75
2032,1091.48,3576.39,566.82,998.50,898.50
2034,1091.72,3578.35,143.66,996.00,903.75
2036,1091.95,3580.31,61.14,1005.00,915.50
2038,1092.18,3582.26,0.00,989.00,902.50
2040,1092.42,3584.22,87.51,983.75,896.50
2042,1092.65,3586.17,0.00,990.75,906.50
2044,1092.88,3588.12,205.54,987.25,900.75
2046,1093.11,3590.06,271.86,983.50,894.00
2047,1093.23,3591.03,11.08,975.25,892.00