File: plugins/Raman/MatchingLibrary/785X/acetone.csv
ENLIGHTEN Version,4.1.22
Measurement ID,20250220-200528-407321-WP-01977
Serial Number,WP-01977
Model,WP-785X-F13-R-ILC
Detector,S16011-1106
Label,acetone
Declared Match,
Declared Score,0
Scan Averaging,5
Boxcar,0
Technique,Raman
Baseline Correction Algo,AirPLS
ROI Pixel Start,47
ROI Pixel End,2047
ROI Start Line,0
ROI Stop Line,63
CCD C4,1.38617e-12
Slit Width,25
Cropped,True
Interpolated,False
Wavenumber Correction,-0.100481
Raman Intensity Corrected,True
Deconvolved,True
Region,
High Gain Mode,False
Laser Power mW,
Electrical Dark Correction,False
Battery %,
Device ID,<DeviceID USB:0x24aa:0x1000:0:1>
FW Version,10.0.0.10
FPGA Version,035-001
BLE Version,
Prefix,enlighten
Suffix,
Preset,
Auto-Raman,True
Session Count,0
Plugin Name,
Integration Time,232
Timestamp,2025-02-20 20:05:28.4073
Note,
Temperature,0
CCD C0,793.274
CCD C1,0.153259
CCD C2,1.40788e-05
CCD C3,-1.132e-08
CCD Offset,0
CCD Gain,1.9
CCD Offset Odd,0
CCD Gain Odd,1.9
Laser Wavelength,785.032
Laser Enable,False
Laser Power %,0
Laser Temperature,0
Pixel Count,2048

Pixel,Wavelength,Wavenumber,Processed,Raw,Dark
0,793.27,132.25,NA,905.40,893.60
2,793.58,137.12,NA,915.20,907.80
4,793.89,141.99,NA,910.00,898.80
6,794.19,146.86,NA,915.80,903.00
8,794.50,151.72,NA,916.40,912.00
10,794.81,156.58,NA,917.40,908.20
12,795.12,161.44,NA,911.80,898.00
14,795.42,166.30,NA,903.40,896.80
16,795.73,171.16,NA,906.20,896.80
18,796.04,176.01,NA,923.80,907.20
20,796.35,180.86,NA,922.20,907.00
22,796.65,185.71,NA,936.20,920.20
24,796.96,190.56,NA,923.60,907.40
26,797.27,195.41,NA,926.00,917.60
28,797.58,200.25,NA,933.20,912.40
30,797.88,205.09,NA,920.60,902.80
32,798.19,209.93,NA,924.40,903.40
34,798.50,214.77,NA,923.60,905.80
36,798.81,219.60,NA,928.00,900.40
38,799.12,224.43,NA,947.80,907.40
40,799.43,229.27,NA,1030.20,911.00
42,799.74,234.09,NA,1306.80,908.20
44,800.04,238.92,NA,1730.60,927.60
46,800.35,243.75,NA,1890.60,907.40
48,800.66,248.57,124.06,1913.80,918.20
50,800.97,253.39,87.19,1887.60,917.60
52,801.28,258.21,51.53,1854.20,924.20
54,801.59,263.02,52.18,1838.60,920.60
56,801.90,267.83,48.60,1807.60,909.40
58,802.21,272.65,20.25,1781.40,918.60
60,802.52,277.46,14.19,1758.40,915.60
62,802.83,282.26,0.00,1740.00,927.20
64,803.14,287.07,1.23,1731.20,924.00
66,803.45,291.87,5.82,1724.40,921.00
68,803.76,296.67,0.00,1702.80,919.00
70,804.07,301.47,3.99,1699.40,913.60
72,804.38,306.26,6.00,1691.60,911.40
74,804.69,311.06,0.00,1678.40,914.20
76,805.00,315.85,0.00,1654.60,908.40
78,805.31,320.64,0.02,1665.20,910.40
80,805.62,325.42,9.20,1681.20,919.40
82,805.93,330.21,16.44,1681.00,914.20
84,806.24,334.99,9.30,1669.00,911.00
86,806.55,339.77,38.93,1696.40,910.00
88,806.86,344.55,44.86,1708.40,914.80
90,807.17,349.32,67.86,1737.00,911.00
92,807.48,354.10,88.89,1764.00,914.80
94,807.80,358.87,134.92,1825.60,918.60
96,808.11,363.63,178.02,1878.20,913.40
98,808.42,368.40,232.39,1960.60,913.60
100,808.73,373.16,324.19,2091.60,909.00
102,809.04,377.93,465.04,2305.40,910.00
104,809.35,382.68,721.07,2660.00,912.20
106,809.66,387.44,1061.56,3074.60,916.80
108,809.98,392.19,1296.15,3308.40,903.80
110,810.29,396.95,1120.25,3125.60,913.40
112,810.60,401.70,749.93,2686.20,911.40
114,810.91,406.44,453.33,2278.40,908.60
116,811.22,411.19,288.98,2022.60,920.60
118,811.54,415.93,196.32,1864.20,914.60
120,811.85,420.67,132.11,1757.20,909.20
122,812.16,425.41,100.70,1696.40,907.80
124,812.47,430.14,83.32,1668.20,913.80
126,812.79,434.87,66.09,1637.00,909.60
128,813.10,439.60,73.60,1630.60,902.00
130,813.41,444.33,72.08,1627.80,907.40
132,813.72,449.06,79.67,1637.80,912.20
134,814.04,453.78,93.39,1651.20,910.60
136,814.35,458.50,115.18,1676.60,902.40
138,814.66,463.22,160.22,1737.60,903.40
140,814.98,467.93,219.70,1817.80,902.40
142,815.29,472.65,289.04,1940.60,910.40
144,815.60,477.36,428.46,2161.40,908.00
146,815.92,482.06,642.02,2484.40,903.00
148,816.23,486.77,985.09,2937.80,916.00
150,816.54,491.47,1267.61,3275.60,918.80
152,816.86,496.17,1191.96,3209.20,901.00
154,817.17,500.87,974.96,2977.40,909.60
156,817.48,505.57,877.54,2832.40,902.20
158,817.80,510.26,905.02,2888.00,905.00
160,818.11,514.95,1095.57,3239.00,912.80
162,818.42,519.64,1534.22,3992.80,915.00
164,818.74,524.32,2488.08,5310.80,909.80
166,819.05,529.00,3607.56,6553.60,919.20
168,819.37,533.68,3484.59,6400.80,907.80
170,819.68,538.36,2187.25,4896.20,911.60
172,819.99,543.04,1235.72,3520.60,919.00
174,820.31,547.71,763.11,2671.40,909.00
176,820.62,552.38,511.10,2204.80,905.00
178,820.94,557.05,355.39,1932.40,905.80
180,821.25,561.71,268.00,1765.40,902.00
182,821.57,566.37,196.69,1649.60,902.60
184,821.88,571.03,147.00,1565.40,910.80
186,822.20,575.69,113.33,1494.80,906.20
188,822.51,580.34,85.12,1441.60,903.40
190,822.83,584.99,52.25,1386.80,909.40
192,823.14,589.64,39.00,1352.40,904.20
194,823.46,594.29,15.36,1313.60,909.00
196,823.77,598.93,23.50,1305.20,907.40
198,824.09,603.57,6.72,1270.60,896.20
200,824.40,608.21,0.00,1253.60,906.60
202,824.72,612.85,3.42,1261.60,915.20
204,825.03,617.48,0.00,1230.40,905.00
206,825.35,622.11,0.00,1234.20,913.20
208,825.66,626.74,0.00,1218.60,908.20
210,825.98,631.36,0.00,1208.40,903.40
212,826.29,635.99,0.00,1213.20,910.60
214,826.61,640.61,0.00,1202.20,910.60
216,826.92,645.22,0.00,1198.80,904.20
218,827.24,649.84,0.00,1197.80,900.00
220,827.56,654.45,0.00,1211.40,912.80
222,827.87,659.06,0.00,1203.20,909.40
224,828.19,663.67,0.00,1204.40,909.40
226,828.50,668.27,0.00,1231.40,925.20
228,828.82,672.87,0.00,1219.80,910.00
230,829.13,677.47,0.00,1223.00,907.00
232,829.45,682.06,0.00,1243.00,910.60
234,829.77,686.66,1.36,1286.00,931.00
236,830.08,691.25,17.88,1286.80,906.20
238,830.40,695.83,20.60,1300.00,904.20
240,830.72,700.42,0.98,1294.40,907.80
242,831.03,705.00,0.00,1273.20,890.60
244,831.35,709.58,3.51,1314.00,906.00
246,831.66,714.15,14.40,1327.40,894.60
248,831.98,718.73,32.19,1375.40,909.60
250,832.30,723.30,69.33,1429.40,901.80
252,832.61,727.87,94.68,1495.60,914.20
254,832.93,732.43,143.67,1554.40,888.80
256,833.25,736.99,192.03,1673.60,912.60
258,833.56,741.55,277.49,1821.80,901.80
260,833.88,746.11,425.76,2061.60,903.80
262,834.20,750.66,596.13,2344.20,904.20
264,834.51,755.22,742.22,2655.60,911.60
266,834.83,759.76,1023.37,3190.60,910.60
268,835.15,764.31,1522.12,4154.20,910.40
270,835.47,768.85,2471.39,6078.80,903.00
272,835.78,773.39,4442.59,10175.60,909.60
274,836.10,777.93,8841.78,18471.40,907.40
276,836.42,782.46,18337.25,32166.20,906.20
278,836.73,787.00,28521.93,43231.40,906.20
280,837.05,791.52,23216.66,37615.60,905.40
282,837.37,796.05,10909.35,22199.80,914.60
284,837.69,800.57,4831.71,11500.40,901.00
286,838.00,805.09,2729.79,6744.60,902.80
288,838.32,809.61,1770.70,4635.20,911.00
290,838.64,814.13,1250.33,3621.20,909.60
292,838.95,818.64,922.23,3028.20,905.00
294,839.27,823.15,719.62,2666.20,904.00
296,839.59,827.65,588.64,2433.60,904.20
298,839.91,832.15,525.13,2298.20,899.80
300,840.22,836.65,445.05,2182.80,916.80
302,840.54,841.15,369.38,2055.80,897.20
304,840.86,845.65,322.70,1992.20,912.80
306,841.18,850.14,318.65,1972.60,907.80
308,841.50,854.63,304.14,1979.80,928.60
310,841.81,859.11,314.97,1978.00,905.40
312,842.13,863.60,338.63,2023.00,911.20
314,842.45,868.07,377.46,2069.80,900.80
316,842.77,872.55,395.14,2112.20,907.00
318,843.08,877.03,383.71,2124.20,918.00
320,843.40,881.50,404.53,2146.80,898.60
322,843.72,885.97,444.08,2239.60,911.80
324,844.04,890.43,517.83,2359.40,902.40
326,844.36,894.89,648.27,2555.00,900.60
328,844.67,899.35,737.94,2696.80,908.20
330,844.99,903.81,769.75,2734.80,900.40
332,845.31,908.26,703.94,2652.20,906.60
334,845.63,912.71,580.31,2478.00,912.80
336,845.95,917.16,479.38,2310.40,910.40
338,846.27,921.61,359.18,2214.00,1009.80
340,846.58,926.05,278.67,1968.80,904.40
342,846.90,930.49,212.29,1860.40,904.80
344,847.22,934.92,168.70,1783.80,903.40
346,847.54,939.36,119.16,1696.40,894.20
348,847.86,943.79,90.60,1647.20,897.80
350,848.18,948.21,61.55,1602.60,896.80
352,848.49,952.64,27.92,1563.60,908.20
354,848.81,957.06,22.90,1540.00,896.60
356,849.13,961.48,3.02,1534.40,918.60
358,849.45,965.89,2.19,1529.20,911.00
360,849.77,970.31,2.60,1523.60,903.40
362,850.09,974.71,15.00,1544.60,905.00
364,850.40,979.12,42.12,1579.00,908.40
366,850.72,983.52,35.80,1577.20,914.40
368,851.04,987.92,22.23,1541.80,896.40
370,851.36,992.32,3.31,1523.60,899.60
372,851.68,996.72,0.00,1513.20,907.20
374,852.00,1001.11,6.01,1511.80,897.40
376,852.32,1005.50,0.00,1497.20,894.40
378,852.63,1009.88,0.00,1511.20,912.40
380,852.95,1014.26,1.28,1528.20,907.80
382,853.27,1018.64,15.13,1551.60,911.80
384,853.59,1023.02,45.26,1585.20,897.40
386,853.91,1027.39,75.29,1633.60,895.00
388,854.23,1031.76,105.23,1701.00,900.60
390,854.55,1036.13,143.54,1778.00,902.80
392,854.87,1040.49,218.29,1907.00,897.60
394,855.18,1044.86,328.72,2118.00,908.20
396,855.50,1049.21,489.81,2435.80,905.80
398,855.82,1053.57,796.85,3034.40,909.80
400,856.14,1057.92,1368.12,4008.80,903.80
402,856.46,1062.27,2287.92,5309.20,911.20
404,856.78,1066.62,3039.44,6139.80,895.40
406,857.10,1070.96,2616.64,5653.80,896.60
408,857.42,1075.30,1508.48,4261.00,915.00
410,857.74,1079.64,821.66,3126.20,900.80
412,858.06,1083.97,519.82,2516.80,901.40
414,858.37,1088.30,391.79,2227.60,896.80
416,858.69,1092.63,326.85,2087.60,898.60
418,859.01,1096.95,258.67,1963.60,891.60
420,859.33,1101.27,197.62,1874.40,899.60
422,859.65,1105.59,137.13,1774.60,900.60
424,859.97,1109.91,101.19,1710.00,896.40
426,860.29,1114.22,74.03,1668.00,900.20
428,860.61,1118.53,46.48,1615.00,894.40
430,860.93,1122.84,36.35,1595.20,898.20
432,861.25,1127.14,12.31,1581.60,909.20
434,861.56,1131.44,0.03,1538.60,894.20
436,861.88,1135.74,0.00,1535.80,897.60
438,862.20,1140.03,0.00,1534.60,902.20
440,862.52,1144.32,0.00,1536.80,900.40
442,862.84,1148.61,0.00,1555.40,912.40
444,863.16,1152.89,0.00,1554.20,897.00
446,863.48,1157.17,0.00,1573.80,896.40
448,863.80,1161.45,0.00,1609.20,905.40
450,864.12,1165.73,0.00,1634.40,905.80
452,864.44,1170.00,0.00,1674.20,897.20
454,864.76,1174.27,0.00,1711.40,904.60
456,865.07,1178.53,7.68,1767.20,893.40
458,865.39,1182.80,58.60,1867.40,902.00
460,865.71,1187.06,89.31,1957.80,900.20
462,866.03,1191.31,144.18,2092.60,904.20
464,866.35,1195.57,220.63,2244.00,903.00
466,866.67,1199.82,337.59,2485.00,903.60
468,866.99,1204.06,473.30,2783.20,906.80
470,867.31,1208.31,736.41,3313.00,909.00
472,867.63,1212.55,1203.65,4160.00,903.40
474,867.95,1216.79,2034.11,5372.80,896.40
476,868.27,1221.02,2967.08,6488.60,905.40
478,868.58,1225.25,2867.42,6388.80,896.20
480,868.90,1229.48,1902.60,5280.20,904.40
482,869.22,1233.71,1073.27,4098.00,909.00
484,869.54,1237.93,613.29,3311.80,911.80
486,869.86,1242.15,373.97,2877.40,907.80
488,870.18,1246.36,233.65,2632.40,895.20
490,870.50,1250.58,146.66,2510.80,904.00
492,870.82,1254.79,77.87,2436.80,915.60
494,871.14,1258.99,32.98,2392.20,910.40
496,871.46,1263.20,10.17,2372.80,908.60
498,871.78,1267.40,25.27,2403.40,897.80
500,872.10,1271.59,18.86,2419.80,894.80
502,872.41,1275.79,9.57,2434.40,897.20
504,872.73,1279.98,24.43,2485.60,906.00
506,873.05,1284.17,64.01,2549.80,906.80
508,873.37,1288.35,81.38,2558.80,887.40
510,873.69,1292.53,108.44,2620.60,896.60
512,874.01,1296.71,162.69,2704.20,894.80
514,874.33,1300.88,191.94,2751.60,893.40
516,874.65,1305.06,247.89,2849.40,899.80
518,874.97,1309.22,296.50,2928.00,897.20
520,875.29,1313.39,328.80,2993.00,902.60
522,875.60,1317.55,392.86,3091.00,902.80
524,875.92,1321.71,445.10,3167.60,901.20
526,876.24,1325.87,498.58,3272.40,908.20
528,876.56,1330.02,529.75,3327.40,900.00
530,876.88,1334.17,615.07,3469.40,908.20
532,877.20,1338.32,710.72,3617.60,892.80
534,877.52,1342.46,840.99,3857.80,892.20
536,877.84,1346.60,1048.07,4224.40,907.40
538,878.16,1350.73,1434.51,4747.20,897.20
540,878.47,1354.87,1787.46,5176.80,902.00
542,878.79,1359.00,1851.39,5291.20,901.80
544,879.11,1363.13,1618.27,5066.00,898.60
546,879.43,1367.25,1476.32,4891.00,901.40
548,879.75,1371.37,1455.58,4817.20,893.40
550,880.07,1375.49,1502.98,4865.80,895.80
552,880.39,1379.60,1547.19,4953.40,899.20
554,880.71,1383.71,1620.78,5079.80,902.40
556,881.03,1387.82,1794.66,5330.20,899.20
558,881.34,1391.93,1963.59,5596.40,891.00
560,881.66,1396.03,2178.26,5965.80,900.80
562,881.98,1400.13,2470.00,6452.40,908.40
564,882.30,1404.22,2917.01,7152.00,902.60
566,882.62,1408.31,3475.85,8029.20,898.20
568,882.94,1412.40,4229.83,9178.60,910.40
570,883.26,1416.49,5110.77,10412.40,903.40
572,883.57,1420.57,5870.62,11499.80,912.00
574,883.89,1424.65,6265.67,12114.20,896.00
576,884.21,1428.73,6449.65,12423.40,912.40
578,884.53,1432.80,6444.49,12381.20,914.60
580,884.85,1436.87,6197.43,11940.60,897.00
582,885.17,1440.93,5629.96,11092.80,898.20
584,885.49,1445.00,4803.68,9928.20,896.60
586,885.80,1449.06,4039.93,8804.40,896.20
588,886.12,1453.11,3409.27,7839.40,911.60
590,886.44,1457.17,2876.68,6991.00,902.00
592,886.76,1461.22,2474.48,6348.40,902.00
594,887.08,1465.26,2112.76,5799.00,909.60
596,887.40,1469.31,1853.89,5373.60,893.20
598,887.71,1473.35,1633.87,5025.40,893.40
600,888.03,1477.38,1456.62,4754.00,902.00
602,888.35,1481.42,1322.10,4550.00,909.40
604,888.67,1485.45,1192.74,4342.60,899.20
606,888.99,1489.48,1093.78,4182.20,896.20
608,889.31,1493.50,995.36,4036.40,903.40
610,889.62,1497.52,947.41,3959.80,903.00
612,889.94,1501.54,884.13,3844.00,887.60
614,890.26,1505.56,835.87,3784.20,897.80
616,890.58,1509.57,778.83,3704.40,899.20
618,890.90,1513.57,766.21,3668.20,894.00
620,891.21,1517.58,747.86,3643.40,898.60
622,891.53,1521.58,721.08,3608.40,904.60
624,891.85,1525.58,713.84,3586.60,898.80
626,892.17,1529.57,681.00,3546.20,904.20
628,892.49,1533.57,661.56,3517.40,905.80
630,892.80,1537.56,625.67,3452.00,896.60
632,893.12,1541.54,618.44,3434.20,895.00
634,893.44,1545.52,576.24,3384.20,905.80
636,893.76,1549.50,538.25,3318.40,889.00
638,894.07,1553.48,500.32,3278.40,905.00
640,894.39,1557.45,479.56,3230.40,896.60
642,894.71,1561.42,458.69,3206.60,900.60
644,895.03,1565.39,433.10,3160.60,891.80
646,895.34,1569.35,411.29,3140.00,910.40
648,895.66,1573.31,377.61,3079.00,893.40
650,895.98,1577.26,353.01,3041.20,895.00
652,896.30,1581.22,334.52,3001.60,892.60
654,896.61,1585.17,281.33,2941.40,900.20
656,896.93,1589.11,220.47,2866.60,909.40
658,897.25,1593.06,175.35,2788.00,895.60
660,897.57,1597.00,126.43,2723.40,900.60
662,897.88,1600.93,106.40,2690.60,901.20
664,898.20,1604.87,79.13,2648.00,898.00
666,898.52,1608.80,52.93,2608.20,892.00
668,898.84,1612.72,34.41,2577.60,889.20
670,899.15,1616.65,14.33,2556.20,906.40
672,899.47,1620.57,18.53,2538.00,893.80
674,899.79,1624.49,7.52,2514.80,901.20
676,900.10,1628.40,0.99,2483.40,892.60
678,900.42,1632.31,0.11,2479.40,905.80
680,900.74,1636.22,0.01,2447.00,889.20
682,901.05,1640.12,18.59,2486.80,913.00
684,901.37,1644.02,49.15,2491.80,900.20
686,901.69,1647.92,55.90,2489.00,904.20
688,902.00,1651.82,59.48,2475.80,894.20
690,902.32,1655.71,67.75,2479.40,893.00
692,902.64,1659.60,78.86,2481.20,893.80
694,902.95,1663.48,144.71,2560.20,901.20
696,903.27,1667.36,173.00,2595.80,901.00
698,903.59,1671.24,270.73,2713.20,907.80
700,903.90,1675.11,375.99,2809.20,903.80
702,904.22,1678.99,418.15,2864.00,893.80
704,904.54,1682.85,478.65,2977.40,914.60
706,904.85,1686.72,573.05,3090.60,895.60
708,905.17,1690.58,760.15,3396.60,899.00
710,905.49,1694.44,1117.82,4054.20,895.80
712,905.80,1698.29,1846.01,5383.40,898.00
714,906.12,1702.15,3874.37,8145.80,901.20
716,906.43,1706.00,7807.66,12029.40,904.60
718,906.75,1709.84,9925.42,13911.80,906.20
720,907.07,1713.68,7834.47,12279.20,897.40
722,907.38,1717.52,5333.12,9655.40,904.60
724,907.70,1721.36,3679.39,7411.20,897.00
726,908.01,1725.19,2502.12,5719.80,898.20
728,908.33,1729.02,1737.79,4614.80,904.60
730,908.65,1732.85,1268.87,3901.00,901.60
732,908.96,1736.67,1044.69,3555.00,908.00
734,909.28,1740.49,908.97,3336.80,897.00
736,909.59,1744.30,915.73,3295.60,903.80
738,909.91,1748.12,1000.55,3297.00,896.00
740,910.22,1751.93,952.31,3204.80,905.00
742,910.54,1755.73,716.40,2959.40,921.80
744,910.85,1759.54,489.67,2679.20,906.20
746,911.17,1763.34,312.12,2423.40,899.40
748,911.49,1767.13,239.08,2296.40,901.80
750,911.80,1770.93,175.10,2186.60,900.80
752,912.12,1774.72,138.79,2125.60,901.60
754,912.43,1778.50,108.95,2063.80,892.60
756,912.75,1782.29,112.10,2043.20,888.80
758,913.06,1786.07,101.52,2019.20,893.40
760,913.38,1789.84,90.99,1998.00,902.40
762,913.69,1793.62,92.07,1986.80,906.20
764,914.01,1797.39,69.96,1947.00,902.80
766,914.32,1801.15,64.94,1920.60,896.60
768,914.64,1804.92,44.04,1878.60,896.20
770,914.95,1808.68,43.90,1866.00,901.80
772,915.26,1812.44,25.67,1839.60,904.60
774,915.58,1816.19,8.22,1793.20,888.60
776,915.89,1819.94,2.75,1777.00,899.20
778,916.21,1823.69,3.98,1770.00,905.40
780,916.52,1827.43,0.00,1752.20,911.20
782,916.84,1831.17,6.77,1725.80,888.40
784,917.15,1834.91,0.00,1709.20,894.60
786,917.47,1838.64,0.00,1704.00,904.60
788,917.78,1842.38,20.11,1706.20,895.80
790,918.09,1846.10,0.00,1671.20,897.20
792,918.41,1849.83,11.01,1672.60,897.60
794,918.72,1853.55,3.13,1645.40,887.60
796,919.04,1857.27,0.00,1623.20,897.40
798,919.35,1860.98,0.99,1624.40,895.00
800,919.66,1864.69,0.06,1615.80,898.00
802,919.98,1868.40,12.98,1621.20,896.60
804,920.29,1872.11,4.44,1603.00,899.40
806,920.60,1875.81,18.65,1600.60,890.60
808,920.92,1879.51,15.80,1591.40,895.60
810,921.23,1883.20,16.10,1589.20,900.80
812,921.55,1886.90,20.93,1573.80,892.20
814,921.86,1890.58,29.06,1585.60,905.40
816,922.17,1894.27,18.16,1565.80,903.80
818,922.49,1897.95,22.04,1558.20,901.80
820,922.80,1901.63,29.23,1550.40,899.80
822,923.11,1905.31,33.45,1542.80,896.60
824,923.42,1908.98,22.28,1528.20,899.40
826,923.74,1912.65,27.25,1529.80,904.80
828,924.05,1916.31,45.99,1528.60,896.00
830,924.36,1919.98,47.66,1519.20,894.20
832,924.68,1923.64,60.65,1522.40,890.00
834,924.99,1927.29,64.76,1516.00,889.20
836,925.30,1930.94,72.41,1511.00,886.00
838,925.61,1934.59,65.77,1503.40,895.60
840,925.93,1938.24,73.96,1505.20,897.60
842,926.24,1941.88,64.39,1489.60,899.40
844,926.55,1945.52,71.83,1484.80,894.80
846,926.86,1949.16,72.07,1479.40,901.60
848,927.18,1952.79,80.08,1472.00,895.40
850,927.49,1956.42,80.55,1464.60,895.40
852,927.80,1960.05,82.32,1462.00,903.00
854,928.11,1963.67,72.41,1438.00,898.20
856,928.42,1967.29,59.48,1423.00,904.00
858,928.74,1970.91,51.05,1395.60,897.20
860,929.05,1974.52,48.11,1382.20,895.40
862,929.36,1978.13,30.96,1353.20,893.40
864,929.67,1981.74,32.28,1349.80,898.60
866,929.98,1985.35,32.94,1339.40,896.80
868,930.29,1988.95,30.95,1323.80,895.40
870,930.61,1992.54,18.88,1304.00,894.60
872,930.92,1996.14,11.17,1290.80,895.60
874,931.23,1999.73,10.03,1288.40,905.00
876,931.54,2003.32,14.16,1279.60,900.80
878,931.85,2006.90,5.10,1261.00,900.40
880,932.16,2010.48,18.32,1259.40,896.40
882,932.47,2014.06,16.63,1244.00,891.40
884,932.78,2017.63,0.59,1234.20,904.60
886,933.09,2021.21,3.77,1225.20,899.00
888,933.41,2024.77,11.77,1222.40,899.00
890,933.72,2028.34,0.00,1214.40,912.20
892,934.03,2031.90,10.58,1202.80,896.40
894,934.34,2035.46,8.65,1197.80,901.60
896,934.65,2039.01,0.51,1174.60,893.40
898,934.96,2042.57,0.00,1173.60,901.60
900,935.27,2046.11,0.00,1177.60,913.40
902,935.58,2049.66,0.00,1143.80,888.40
904,935.89,2053.20,5.51,1158.60,901.40
906,936.20,2056.74,8.77,1151.80,899.20
908,936.51,2060.28,4.69,1142.40,897.60
910,936.82,2063.81,0.82,1140.60,904.20
912,937.13,2067.34,0.36,1129.40,899.00
914,937.44,2070.86,2.87,1125.60,897.60
916,937.75,2074.39,1.19,1113.00,891.40
918,938.06,2077.91,3.93,1115.00,895.40
920,938.37,2081.42,5.76,1115.20,898.80
922,938.68,2084.94,0.00,1096.20,893.80
924,938.99,2088.45,0.00,1101.00,898.60
926,939.30,2091.95,0.47,1104.80,901.80
928,939.60,2095.46,1.61,1098.60,897.00
930,939.91,2098.96,3.99,1108.20,905.80
932,940.22,2102.45,5.05,1094.80,893.60
934,940.53,2105.95,11.26,1097.20,892.60
936,940.84,2109.44,16.98,1105.00,897.60
938,941.15,2112.92,21.21,1112.20,902.80
940,941.46,2116.41,31.30,1114.80,897.40
942,941.77,2119.89,54.02,1130.80,898.40
944,942.07,2123.37,47.00,1121.40,897.40
946,942.38,2126.84,36.58,1116.60,900.20
948,942.69,2130.31,44.49,1121.20,901.20
950,943.00,2133.78,49.30,1112.20,895.60
952,943.31,2137.24,36.87,1107.60,898.00
954,943.62,2140.70,14.86,1088.60,900.80
956,943.92,2144.16,21.64,1083.80,897.20
958,944.23,2147.62,20.57,1083.20,900.80
960,944.54,2151.07,2.00,1073.00,907.00
962,944.85,2154.52,0.72,1074.00,910.60
964,945.16,2157.96,0.00,1060.00,903.80
966,945.46,2161.40,12.69,1067.20,901.80
968,945.77,2164.84,2.12,1043.60,885.60
970,946.08,2168.28,0.00,1050.20,898.20
972,946.39,2171.71,1.04,1047.00,893.80
974,946.69,2175.14,10.20,1058.60,899.60
976,947.00,2178.57,12.71,1059.00,899.00
978,947.31,2181.99,20.24,1055.00,888.40
980,947.61,2185.41,12.18,1061.40,902.40
982,947.92,2188.82,17.98,1059.40,898.20
984,948.23,2192.24,15.33,1046.20,889.00
986,948.53,2195.65,16.83,1059.00,897.60
988,948.84,2199.05,6.56,1037.60,886.00
990,949.15,2202.46,11.57,1050.40,897.00
992,949.45,2205.86,13.10,1051.80,899.60
994,949.76,2209.25,4.04,1039.00,894.40
996,950.07,2212.65,9.34,1048.80,899.40
998,950.37,2216.04,15.42,1044.40,891.60
1000,950.68,2219.43,21.21,1052.60,895.80
1002,950.98,2222.81,32.48,1066.00,900.60
1004,951.29,2226.19,37.43,1064.60,896.20
1006,951.60,2229.57,46.48,1062.20,886.00
1008,951.90,2232.94,52.05,1067.00,888.80
1010,952.21,2236.32,52.72,1071.80,893.80
1012,952.51,2239.68,30.75,1064.00,902.80
1014,952.82,2243.05,37.10,1052.00,887.60
1016,953.12,2246.41,41.70,1070.40,903.40
1018,953.43,2249.77,24.42,1067.80,913.60
1020,953.73,2253.12,31.12,1061.20,902.60
1022,954.04,2256.48,43.31,1052.20,887.60
1024,954.34,2259.83,42.03,1068.60,906.00
1026,954.65,2263.17,47.07,1061.80,896.00
1028,954.95,2266.51,44.50,1062.60,898.40
1030,955.26,2269.85,28.92,1061.00,908.60
1032,955.56,2273.19,33.95,1055.00,900.80
1034,955.87,2276.52,41.43,1055.40,897.60
1036,956.17,2279.85,31.63,1057.80,907.00
1038,956.48,2283.18,39.83,1045.40,888.20
1040,956.78,2286.50,43.85,1051.20,893.00
1042,957.08,2289.82,45.14,1044.60,886.40
1044,957.39,2293.14,39.30,1052.00,898.60
1046,957.69,2296.45,52.70,1046.60,885.20
1048,957.99,2299.76,55.48,1068.60,905.40
1050,958.30,2303.07,51.24,1061.00,898.80
1052,958.60,2306.38,45.58,1051.80,897.40
1054,958.91,2309.68,59.82,1054.40,893.40
1056,959.21,2312.98,45.02,1040.80,890.40
1058,959.51,2316.27,36.27,1040.60,893.40
1060,959.82,2319.56,25.05,1045.00,906.60
1062,960.12,2322.85,33.26,1036.20,896.40
1064,960.42,2326.14,58.11,1043.40,891.40
1066,960.72,2329.42,26.02,1033.60,899.40
1068,961.03,2332.70,18.82,1030.40,902.20
1070,961.33,2335.97,33.32,1032.60,896.20
1072,961.63,2339.25,15.71,1017.80,895.60
1074,961.93,2342.52,28.97,1023.80,892.40
1076,962.24,2345.78,8.84,1017.00,901.20
1078,962.54,2349.05,10.76,1012.80,896.20
1080,962.84,2352.31,8.36,1015.40,901.00
1082,963.14,2355.56,4.54,1007.20,896.60
1084,963.45,2358.82,17.18,1010.80,893.60
1086,963.75,2362.07,15.89,1015.60,901.20
1088,964.05,2365.32,1.90,1016.00,909.00
1090,964.35,2368.56,0.32,1003.00,897.20
1092,964.65,2371.80,0.00,1005.40,903.80
1094,964.95,2375.04,0.16,1001.60,898.60
1096,965.25,2378.27,13.41,1006.20,894.00
1098,965.56,2381.51,8.92,1007.80,901.60
1100,965.86,2384.73,10.25,1009.20,900.40
1102,966.16,2387.96,2.71,1002.00,896.40
1104,966.46,2391.18,3.24,1009.80,904.00
1106,966.76,2394.40,17.62,1009.20,895.40
1108,967.06,2397.62,21.25,1017.00,902.40
1110,967.36,2400.83,13.67,1005.80,895.00
1112,967.66,2404.04,20.76,1023.20,906.40
1114,967.96,2407.25,22.28,1009.00,890.80
1116,968.26,2410.45,31.21,1018.20,894.40
1118,968.56,2413.65,41.47,1021.20,892.00
1120,968.86,2416.85,54.24,1046.60,909.00
1122,969.16,2420.04,57.06,1042.40,898.80
1124,969.46,2423.23,66.71,1043.60,892.20
1126,969.76,2426.42,111.91,1074.80,896.00
1128,970.06,2429.60,137.45,1082.60,889.00
1130,970.36,2432.79,163.52,1106.40,897.00
1132,970.66,2435.96,183.01,1111.60,894.60
1134,970.96,2439.14,213.90,1130.20,895.60
1136,971.26,2442.31,174.35,1119.80,905.80
1138,971.56,2445.48,164.13,1106.40,898.40
1140,971.86,2448.65,137.07,1079.60,890.60
1142,972.16,2451.81,114.02,1079.20,901.60
1144,972.45,2454.97,82.32,1055.80,898.40
1146,972.75,2458.13,84.35,1051.60,897.00
1148,973.05,2461.28,77.32,1045.40,898.00
1150,973.35,2464.43,62.60,1040.60,899.40
1152,973.65,2467.58,41.34,1029.40,900.40
1154,973.95,2470.72,48.83,1028.80,897.60
1156,974.24,2473.86,50.58,1026.20,898.00
1158,974.54,2477.00,64.03,1028.40,891.20
1160,974.84,2480.13,46.66,1033.80,903.20
1162,975.14,2483.27,55.06,1034.00,898.20
1164,975.43,2486.40,77.24,1031.60,886.80
1166,975.73,2489.52,82.84,1042.00,894.40
1168,976.03,2492.64,77.30,1039.80,894.00
1170,976.33,2495.76,88.37,1052.00,901.00
1172,976.62,2498.88,101.11,1044.60,888.00
1174,976.92,2501.99,94.05,1050.80,898.60
1176,977.22,2505.10,92.69,1051.00,899.20
1178,977.51,2508.21,78.06,1043.20,899.60
1180,977.81,2511.31,71.67,1037.00,897.40
1182,978.11,2514.41,76.96,1036.40,894.20
1184,978.40,2517.51,60.87,1029.00,897.40
1186,978.70,2520.61,53.49,1023.60,897.00
1188,979.00,2523.70,41.54,1021.20,899.80
1190,979.29,2526.79,28.09,1012.40,898.80
1192,979.59,2529.87,42.67,1018.80,899.60
1194,979.88,2532.95,42.41,1009.60,893.00
1196,980.18,2536.03,37.17,1016.80,902.20
1198,980.48,2539.11,12.07,1016.00,914.20
1200,980.77,2542.18,9.69,1000.80,899.40
1202,981.07,2545.25,5.55,1001.80,903.80
1204,981.36,2548.32,6.60,994.80,897.40
1206,981.66,2551.38,0.00,999.80,907.80
1208,981.95,2554.44,0.86,991.80,897.80
1210,982.25,2557.50,9.44,1006.60,906.20
1212,982.54,2560.56,0.00,1004.20,911.60
1214,982.84,2563.61,3.86,1008.60,910.40
1216,983.13,2566.66,9.23,1008.40,907.00
1218,983.43,2569.70,19.09,1014.80,906.20
1220,983.72,2572.74,37.94,1028.40,908.60
1222,984.01,2575.78,55.31,1031.00,904.20
1224,984.31,2578.82,77.29,1034.60,898.20
1226,984.60,2581.85,93.67,1040.40,897.80
1228,984.90,2584.88,92.86,1031.20,889.60
1230,985.19,2587.91,79.01,1039.20,899.60
1232,985.48,2590.93,29.83,1025.20,907.40
1234,985.78,2593.96,26.00,1022.80,906.40
1236,986.07,2596.97,23.68,1015.20,901.20
1238,986.36,2599.99,16.37,1023.00,914.00
1240,986.66,2603.00,15.65,1016.20,907.40
1242,986.95,2606.01,0.00,1010.00,909.80
1244,987.24,2609.01,0.00,1011.80,910.40
1246,987.54,2612.02,0.54,992.80,887.20
1248,987.83,2615.02,0.22,1014.00,909.00
1250,988.12,2618.01,1.15,1010.60,904.60
1252,988.41,2621.01,12.88,1015.80,904.60
1254,988.71,2624.00,0.00,1003.00,900.00
1256,989.00,2626.99,0.00,1006.00,908.60
1258,989.29,2629.97,10.87,1014.80,899.00
1260,989.58,2632.95,0.31,1015.00,901.60
1262,989.87,2635.93,1.20,1022.60,904.20
1264,990.16,2638.91,0.00,1018.20,900.80
1266,990.46,2641.88,16.33,1038.60,907.80
1268,990.75,2644.85,13.38,1048.60,917.00
1270,991.04,2647.81,22.27,1040.60,900.20
1272,991.33,2650.78,23.04,1051.60,906.20
1274,991.62,2653.74,31.63,1055.40,902.40
1276,991.91,2656.70,44.35,1065.40,904.60
1278,992.20,2659.65,77.78,1084.40,905.40
1280,992.49,2662.60,101.00,1091.00,897.20
1282,992.78,2665.55,125.99,1121.80,912.20
1284,993.07,2668.50,163.75,1146.80,915.20
1286,993.36,2671.44,236.01,1169.00,903.40
1288,993.65,2674.38,331.44,1218.40,913.40
1290,993.94,2677.31,399.51,1243.00,905.00
1292,994.23,2680.25,483.67,1290.20,905.00
1294,994.52,2683.18,584.33,1346.60,909.80
1296,994.81,2686.10,759.18,1418.40,904.60
1298,995.10,2689.03,948.39,1493.80,905.80
1300,995.39,2691.95,1242.41,1595.60,900.80
1302,995.68,2694.87,1476.31,1682.40,912.00
1304,995.97,2697.78,1614.85,1728.60,910.60
1306,996.26,2700.70,1543.94,1697.40,900.40
1308,996.55,2703.61,1354.64,1638.60,902.20
1310,996.84,2706.51,1128.85,1566.20,908.20
1312,997.13,2709.42,926.59,1491.40,909.80
1314,997.41,2712.32,776.84,1432.40,910.00
1316,997.70,2715.21,644.42,1371.40,904.60
1318,997.99,2718.11,565.20,1334.60,905.00
1320,998.28,2721.00,532.60,1312.00,898.80
1322,998.57,2723.89,417.70,1279.80,910.20
1324,998.86,2726.77,364.41,1253.40,902.40
1326,999.14,2729.66,305.91,1231.60,905.00
1328,999.43,2732.54,285.47,1217.00,898.60
1330,999.72,2735.41,212.39,1197.60,901.60
1332,1000.01,2738.29,133.12,1182.20,913.20
1334,1000.29,2741.16,86.09,1154.20,904.80
1336,1000.58,2744.03,83.95,1146.20,898.20
1338,1000.87,2746.89,28.26,1143.00,911.00
1340,1001.15,2749.75,5.82,1132.80,903.60
1342,1001.44,2752.61,0.00,1122.60,905.00
1344,1001.73,2755.47,0.00,1124.40,903.80
1346,1002.01,2758.32,0.00,1120.60,898.60
1348,1002.30,2761.17,3.74,1141.60,907.80
1350,1002.59,2764.02,0.00,1138.40,913.80
1352,1002.87,2766.86,0.00,1141.80,903.80
1354,1003.16,2769.70,0.00,1149.60,902.20
1356,1003.44,2772.54,0.00,1154.20,897.80
1358,1003.73,2775.38,0.00,1164.40,901.40
1360,1004.01,2778.21,0.00,1166.00,898.40
1362,1004.30,2781.04,0.00,1189.80,900.80
1364,1004.58,2783.87,0.00,1202.40,899.80
1366,1004.87,2786.69,0.00,1208.00,891.20
1368,1005.15,2789.51,0.00,1232.40,908.20
1370,1005.44,2792.33,0.00,1257.60,910.40
1372,1005.72,2795.14,0.00,1272.60,909.20
1374,1006.01,2797.95,0.00,1290.20,911.20
1376,1006.29,2800.76,0.00,1304.00,900.80
1378,1006.58,2803.57,0.00,1345.00,919.20
1380,1006.86,2806.37,0.00,1356.60,901.20
1382,1007.14,2809.17,0.00,1396.00,905.00
1384,1007.43,2811.97,0.00,1440.00,901.80
1386,1007.71,2814.77,12.76,1498.40,901.80
1388,1008.00,2817.56,75.47,1546.80,899.60
1390,1008.28,2820.35,274.79,1641.20,909.60
1392,1008.56,2823.13,550.88,1714.20,901.00
1394,1008.85,2825.91,953.90,1836.00,903.60
1396,1009.13,2828.69,1299.58,1946.60,908.20
1398,1009.41,2831.47,1772.12,2098.00,915.00
1400,1009.69,2834.24,2302.88,2231.60,897.20
1402,1009.98,2837.02,2858.54,2388.20,902.60
1404,1010.26,2839.78,3309.83,2518.00,913.40
1406,1010.54,2842.55,3754.33,2627.20,903.00
1408,1010.82,2845.31,4068.56,2714.40,907.20
1410,1011.11,2848.07,4219.48,2758.00,912.00
1412,1011.39,2850.83,4204.18,2752.40,907.60
1414,1011.67,2853.58,4042.81,2711.40,909.40
1416,1011.95,2856.33,4017.95,2699.20,904.20
1418,1012.23,2859.08,3906.80,2671.80,906.40
1420,1012.51,2861.83,3883.72,2661.40,902.60
1422,1012.80,2864.57,3979.04,2693.00,917.20
1424,1013.08,2867.31,4125.53,2718.20,915.00
1426,1013.36,2870.04,4271.08,2752.60,916.80
1428,1013.64,2872.78,4488.88,2801.40,909.80
1430,1013.92,2875.51,4877.04,2908.60,917.00
1432,1014.20,2878.24,5278.38,3000.00,909.40
1434,1014.48,2880.96,5744.67,3108.60,901.00
1436,1014.76,2883.68,6279.42,3245.60,898.60
1438,1015.04,2886.40,6935.95,3421.40,905.40
1440,1015.32,2889.12,7778.17,3639.00,910.60
1442,1015.60,2891.83,8806.30,3895.60,900.80
1444,1015.88,2894.54,9968.74,4216.80,913.60
1446,1016.16,2897.25,11650.88,4645.40,901.60
1448,1016.44,2899.96,13692.21,5186.40,913.80
1450,1016.72,2902.66,16461.08,5907.00,911.00
1452,1017.00,2905.36,20024.76,6848.20,916.80
1454,1017.28,2908.06,24778.18,8076.20,901.00
1456,1017.55,2910.75,31017.36,9691.60,916.80
1458,1017.83,2913.44,39223.27,11637.00,903.80
1460,1018.11,2916.13,50722.65,14078.00,914.20
1462,1018.39,2918.81,64209.82,16533.40,914.60
1464,1018.67,2921.49,75293.67,18261.40,911.60
1466,1018.95,2924.17,78501.63,18625.20,908.60
1468,1019.22,2926.85,70634.71,17197.20,909.40
1470,1019.50,2929.52,57143.87,14761.80,900.80
1472,1019.78,2932.20,43538.32,12058.80,904.20
1474,1020.06,2934.86,33336.34,9776.00,907.00
1476,1020.33,2937.53,26158.64,7991.60,914.00
1478,1020.61,2940.19,21365.83,6708.80,905.80
1480,1020.89,2942.85,17925.79,5794.40,913.80
1482,1021.17,2945.51,15466.50,5147.00,913.00
1484,1021.44,2948.16,13637.05,4675.60,909.80
1486,1021.72,2950.81,12590.77,4394.20,903.00
1488,1022.00,2953.46,11938.91,4226.60,918.20
1490,1022.27,2956.11,11520.39,4087.00,910.20
1492,1022.55,2958.75,11494.53,4039.00,912.40
1494,1022.82,2961.39,11615.71,4007.80,903.80
1496,1023.10,2964.03,11738.52,4004.40,919.40
1498,1023.38,2966.66,11576.87,3924.20,910.00
1500,1023.65,2969.29,11401.15,3864.80,914.60
1502,1023.93,2971.92,10750.58,3722.00,915.60
1504,1024.20,2974.55,9906.78,3553.00,911.40
1506,1024.48,2977.17,9109.48,3399.20,908.60
1508,1024.75,2979.79,8296.74,3234.00,908.80
1510,1025.03,2982.41,7889.73,3134.20,904.20
1512,1025.30,2985.02,7556.40,3043.40,898.60
1514,1025.58,2987.63,7431.65,3015.80,912.80
1516,1025.85,2990.24,7398.74,2990.60,905.80
1518,1026.13,2992.85,7513.08,3012.60,913.80
1520,1026.40,2995.45,7872.56,3065.80,913.40
1522,1026.68,2998.05,8410.74,3122.60,901.40
1524,1026.95,3000.65,9146.01,3223.00,912.80
1526,1027.22,3003.25,9760.31,3277.20,902.80
1528,1027.50,3005.84,9905.35,3271.00,902.40
1530,1027.77,3008.43,9660.07,3225.40,908.20
1532,1028.04,3011.02,8783.93,3084.80,914.60
1534,1028.32,3013.60,7870.65,2921.00,906.20
1536,1028.59,3016.18,6892.10,2749.80,910.80
1538,1028.86,3018.76,5909.90,2554.40,896.60
1540,1029.14,3021.34,5142.99,2425.80,909.20
1542,1029.41,3023.91,4169.38,2244.40,903.80
1544,1029.68,3026.48,3590.08,2133.80,901.40
1546,1029.95,3029.05,3009.64,2027.80,905.80
1548,1030.22,3031.61,2561.44,1939.80,903.00
1550,1030.50,3034.17,2136.81,1855.60,898.60
1552,1030.77,3036.73,1751.12,1787.80,903.80
1554,1031.04,3039.29,1485.98,1746.00,910.40
1556,1031.31,3041.84,1116.35,1670.60,897.20
1558,1031.58,3044.39,885.23,1643.20,913.00
1560,1031.85,3046.94,696.34,1602.80,912.60
1562,1032.13,3049.49,540.60,1566.00,901.00
1564,1032.40,3052.03,299.07,1547.00,910.80
1566,1032.67,3054.57,113.13,1503.00,901.60
1568,1032.94,3057.11,85.34,1495.80,913.40
1570,1033.21,3059.64,86.66,1456.40,893.80
1572,1033.48,3062.18,81.54,1457.60,914.00
1574,1033.75,3064.70,105.41,1443.00,910.20
1576,1034.02,3067.23,19.57,1419.20,913.80
1578,1034.29,3069.75,38.52,1391.00,897.60
1580,1034.56,3072.28,85.49,1392.80,911.40
1582,1034.83,3074.79,101.39,1361.80,897.40
1584,1035.10,3077.31,77.13,1353.40,906.20
1586,1035.37,3079.82,0.00,1322.00,906.20
1588,1035.64,3082.33,37.46,1328.40,914.20
1590,1035.91,3084.84,0.00,1301.60,912.20
1592,1036.17,3087.34,4.16,1283.40,902.80
1594,1036.44,3089.85,24.76,1287.40,916.00
1596,1036.71,3092.35,0.00,1255.40,903.40
1598,1036.98,3094.84,59.84,1248.60,896.60
1600,1037.25,3097.34,0.00,1233.20,899.40
1602,1037.52,3099.83,0.00,1228.00,905.00
1604,1037.78,3102.32,0.00,1218.00,905.40
1606,1038.05,3104.80,20.49,1220.80,912.20
1608,1038.32,3107.29,22.61,1205.00,904.20
1610,1038.59,3109.77,0.00,1194.60,906.20
1612,1038.85,3112.24,0.00,1185.80,907.80
1614,1039.12,3114.72,67.73,1190.20,908.60
1616,1039.39,3117.19,4.17,1162.20,895.60
1618,1039.66,3119.66,0.00,1166.80,908.60
1620,1039.92,3122.13,14.73,1166.80,913.80
1622,1040.19,3124.59,0.00,1152.80,910.00
1624,1040.45,3127.05,68.00,1145.60,900.20
1626,1040.72,3129.51,0.00,1138.40,911.20
1628,1040.99,3131.97,2.16,1135.20,910.40
1630,1041.25,3134.42,34.30,1139.80,915.40
1632,1041.52,3136.87,0.00,1113.80,904.20
1634,1041.78,3139.32,42.52,1117.20,906.20
1636,1042.05,3141.77,37.61,1136.40,930.80
1638,1042.32,3144.21,21.63,1103.00,903.40
1640,1042.58,3146.65,0.00,1105.40,915.40
1642,1042.85,3149.09,29.01,1102.20,911.20
1644,1043.11,3151.52,17.16,1092.40,908.20
1646,1043.38,3153.96,30.93,1090.60,909.80
1648,1043.64,3156.39,174.02,1089.20,900.40
1650,1043.90,3158.81,4.02,1077.80,908.60
1652,1044.17,3161.24,0.00,1080.60,918.00
1654,1044.43,3163.66,39.17,1066.60,898.40
1656,1044.70,3166.08,0.00,1077.20,923.80
1658,1044.96,3168.49,101.95,1072.00,906.60
1660,1045.22,3170.91,0.00,1055.60,905.00
1662,1045.49,3173.32,26.07,1058.80,908.60
1664,1045.75,3175.73,47.78,1058.20,908.80
1666,1046.01,3178.13,92.37,1055.40,904.60
1668,1046.28,3180.54,0.00,1052.40,915.40
1670,1046.54,3182.94,0.00,1052.80,917.40
1672,1046.80,3185.34,23.99,1045.00,908.00
1674,1047.07,3187.73,0.00,1031.00,902.80
1676,1047.33,3190.12,30.87,1044.20,910.20
1678,1047.59,3192.51,22.33,1041.00,912.00
1680,1047.85,3194.90,147.06,1051.00,915.00
1682,1048.11,3197.29,0.00,1038.60,917.80
1684,1048.38,3199.67,14.09,1035.00,911.80
1686,1048.64,3202.05,66.26,1044.00,917.00
1688,1048.90,3204.43,5.37,1031.60,913.00
1690,1049.16,3206.80,43.86,1028.20,908.00
1692,1049.42,3209.17,87.09,1036.00,913.40
1694,1049.68,3211.54,52.40,1025.80,907.40
1696,1049.94,3213.91,137.47,1030.20,906.20
1698,1050.20,3216.27,77.49,1029.00,911.00
1700,1050.46,3218.63,61.59,1040.00,924.00
1702,1050.72,3220.99,44.08,1023.60,910.60
1704,1050.98,3223.35,61.43,1027.00,914.20
1706,1051.24,3225.70,173.63,1026.40,905.80
1708,1051.50,3228.05,66.72,1013.80,903.60
1710,1051.76,3230.40,234.54,1034.80,913.40
1712,1052.02,3232.75,177.18,1027.00,912.00
1714,1052.28,3235.09,169.46,1032.60,918.80
1716,1052.54,3237.43,138.66,1019.80,908.60
1718,1052.80,3239.77,116.44,1017.40,908.80
1720,1053.06,3242.11,158.76,1021.40,910.60
1722,1053.32,3244.44,214.13,1018.20,905.40
1724,1053.58,3246.77,302.42,1035.20,918.80
1726,1053.84,3249.10,254.14,1020.00,908.60
1728,1054.10,3251.42,203.47,1022.80,915.60
1730,1054.35,3253.75,237.98,1013.80,904.40
1732,1054.61,3256.07,126.53,1020.00,919.60
1734,1054.87,3258.39,223.06,1017.60,910.80
1736,1055.13,3260.70,338.43,1015.80,903.00
1738,1055.38,3263.01,384.60,1016.20,903.40
1740,1055.64,3265.32,290.88,1013.20,908.00
1742,1055.90,3267.63,360.72,1012.20,902.00
1744,1056.16,3269.94,247.17,1021.60,919.80
1746,1056.41,3272.24,289.04,1021.80,919.40
1748,1056.67,3274.54,451.17,1018.20,908.20
1750,1056.93,3276.84,236.38,1015.80,919.80
1752,1057.18,3279.13,272.71,1005.40,906.60
1754,1057.44,3281.42,298.71,1004.60,904.60
1756,1057.69,3283.71,359.31,1007.20,905.40
1758,1057.95,3286.00,250.37,1014.20,921.60
1760,1058.21,3288.28,275.57,1000.00,907.00
1762,1058.46,3290.57,400.01,1015.40,915.20
1764,1058.72,3292.85,206.95,1005.60,918.40
1766,1058.97,3295.12,428.55,1001.00,901.40
1768,1059.23,3297.40,224.12,995.20,909.40
1770,1059.48,3299.67,263.18,1002.40,915.20
1772,1059.74,3301.94,295.56,991.00,902.60
1774,1059.99,3304.21,243.90,1001.40,917.00
1776,1060.25,3306.47,415.16,1018.20,924.60
1778,1060.50,3308.73,242.84,989.80,907.80
1780,1060.76,3310.99,355.20,997.60,911.00
1782,1061.01,3313.25,414.38,997.60,909.00
1784,1061.26,3315.50,435.85,993.60,903.40
1786,1061.52,3317.76,240.56,996.00,917.20
1788,1061.77,3320.01,380.85,999.60,914.60
1790,1062.02,3322.25,389.42,982.60,899.80
1792,1062.28,3324.50,419.98,991.80,908.40
1794,1062.53,3326.74,296.23,983.20,905.80
1796,1062.78,3328.98,257.77,987.00,912.00
1798,1063.04,3331.22,294.41,982.40,907.00
1800,1063.29,3333.45,325.87,981.40,906.20
1802,1063.54,3335.68,288.29,981.00,908.20
1804,1063.79,3337.91,316.80,990.20,915.20
1806,1064.05,3340.14,189.47,992.20,924.40
1808,1064.30,3342.36,236.86,973.60,905.00
1810,1064.55,3344.59,277.41,985.20,917.20
1812,1064.80,3346.81,217.16,971.20,907.00
1814,1065.05,3349.02,373.02,976.60,905.00
1816,1065.30,3351.24,175.58,975.00,913.00
1818,1065.55,3353.45,413.43,979.40,906.60
1820,1065.81,3355.66,131.53,986.80,928.20
1822,1066.06,3357.87,50.01,966.80,912.80
1824,1066.31,3360.07,264.67,964.80,900.40
1826,1066.56,3362.27,235.51,976.80,916.20
1828,1066.81,3364.47,441.16,966.40,899.20
1830,1067.06,3366.67,509.22,976.20,906.60
1832,1067.31,3368.87,209.86,965.20,907.80
1834,1067.56,3371.06,368.35,961.60,897.00
1836,1067.81,3373.25,225.89,957.20,900.00
1838,1068.06,3375.44,378.57,965.20,902.80
1840,1068.31,3377.62,434.74,966.60,903.80
1842,1068.56,3379.81,380.37,962.20,902.40
1844,1068.80,3381.99,539.15,983.00,916.20
1846,1069.05,3384.16,238.78,966.80,912.00
1848,1069.30,3386.34,231.36,962.20,908.00
1850,1069.55,3388.51,315.53,959.20,902.80
1852,1069.80,3390.68,378.87,968.20,911.80
1854,1070.05,3392.85,730.81,985.00,918.20
1856,1070.30,3395.02,565.49,970.60,908.80
1858,1070.54,3397.18,333.42,954.60,900.00
1860,1070.79,3399.34,301.33,965.40,912.00
1862,1071.04,3401.50,346.22,957.60,903.80
1864,1071.29,3403.66,494.54,955.20,897.40
1866,1071.53,3405.81,419.58,960.20,906.20
1868,1071.78,3407.96,382.15,955.60,903.80
1870,1072.03,3410.11,609.21,965.40,906.60
1872,1072.27,3412.26,467.31,962.40,909.00
1874,1072.52,3414.40,556.58,957.40,900.80
1876,1072.77,3416.54,279.63,952.00,905.80
1878,1073.01,3418.68,427.79,966.00,915.60
1880,1073.26,3420.82,369.85,938.60,891.20
1882,1073.51,3422.96,548.38,959.20,906.20
1884,1073.75,3425.09,225.91,950.00,908.00
1886,1074.00,3427.22,496.06,948.60,898.00
1888,1074.24,3429.35,421.36,965.00,917.60
1890,1074.49,3431.47,411.35,952.20,905.40
1892,1074.73,3433.59,387.57,944.20,898.60
1894,1074.98,3435.71,458.48,959.80,912.80
1896,1075.22,3437.83,511.39,948.00,900.20
1898,1075.47,3439.95,389.22,955.40,911.60
1900,1075.71,3442.06,418.41,956.60,911.80
1902,1075.96,3444.17,325.46,947.60,906.60
1904,1076.20,3446.28,620.60,932.40,884.00
1906,1076.44,3448.38,640.34,965.40,918.20
1908,1076.69,3450.49,319.32,951.40,913.40
1910,1076.93,3452.59,600.54,953.60,907.20
1912,1077.17,3454.69,520.29,948.00,903.00
1914,1077.42,3456.79,301.01,942.60,904.60
1916,1077.66,3458.88,492.63,942.60,899.20
1918,1077.90,3460.97,266.04,937.40,902.00
1920,1078.15,3463.06,401.47,953.60,915.40
1922,1078.39,3465.15,593.36,947.60,906.00
1924,1078.63,3467.23,586.87,935.60,895.00
1926,1078.87,3469.32,275.13,946.60,913.20
1928,1079.12,3471.40,501.78,940.40,898.80
1930,1079.36,3473.47,14.25,953.40,927.60
1932,1079.60,3475.55,437.34,936.20,898.20
1934,1079.84,3477.62,258.69,943.80,912.60
1936,1080.08,3479.69,471.51,938.80,903.00
1938,1080.33,3481.76,109.26,930.80,904.00
1940,1080.57,3483.83,367.05,940.00,907.00
1942,1080.81,3485.89,391.39,941.00,908.20
1944,1081.05,3487.95,340.72,946.80,915.40
1946,1081.29,3490.01,271.64,939.40,909.40
1948,1081.53,3492.07,415.69,934.60,900.80
1950,1081.77,3494.12,252.78,933.60,905.20
1952,1082.01,3496.18,753.29,945.00,906.60
1954,1082.25,3498.23,576.70,931.40,897.00
1956,1082.49,3500.27,391.47,938.40,907.20
1958,1082.73,3502.32,230.00,928.40,901.00
1960,1082.97,3504.36,77.80,935.40,912.60
1962,1083.21,3506.40,428.59,930.80,900.40
1964,1083.45,3508.44,625.60,929.40,895.40
1966,1083.69,3510.48,513.46,951.20,919.60
1968,1083.93,3512.51,265.97,936.00,910.40
1970,1084.16,3514.54,567.25,934.40,903.80
1972,1084.40,3516.57,660.61,935.60,904.40
1974,1084.64,3518.60,525.92,929.40,899.60
1976,1084.88,3520.62,146.09,940.40,917.60
1978,1085.12,3522.65,112.01,942.00,919.60
1980,1085.36,3524.67,56.95,932.20,912.20
1982,1085.59,3526.68,327.02,930.80,905.40
1984,1085.83,3528.70,580.15,940.20,912.20
1986,1086.07,3530.71,639.92,930.00,901.80
1988,1086.31,3532.72,724.03,940.00,909.60
1990,1086.54,3534.73,552.80,928.60,900.00
1992,1086.78,3536.74,170.10,942.20,921.40
1994,1087.02,3538.74,453.26,940.20,913.00
1996,1087.25,3540.74,315.46,922.60,899.60
1998,1087.49,3542.74,508.14,932.20,906.60
2000,1087.73,3544.74,562.12,930.40,904.60
2002,1087.96,3546.74,379.10,929.60,907.00
2004,1088.20,3548.73,280.63,934.60,913.60
2006,1088.43,3550.72,454.15,932.60,908.20
2008,1088.67,3552.71,353.83,924.20,902.40
2010,1088.90,3554.69,330.12,920.60,900.00
2012,1089.14,3556.68,360.80,928.00,907.40
2014,1089.38,3558.66,698.67,922.80,896.40
2016,1089.61,3560.64,546.48,922.00,897.20
2018,1089.84,3562.62,250.46,929.40,910.20
2020,1090.08,3564.59,260.62,920.60,902.00
2022,1090.31,3566.56,491.72,921.20,900.00
2024,1090.55,3568.53,613.19,922.60,899.40
2026,1090.78,3570.50,137.94,911.40,895.20
2028,1091.02,3572.47,0.00,910.60,898.40
2030,1091.25,3574.43,222.65,916.80,898.80
2032,1091.48,3576.39,568.11,908.60,885.60
2034,1091.72,3578.35,342.66,908.40,890.00
2036,1091.95,3580.31,89.29,914.60,900.20
2038,1092.18,3582.26,112.35,905.00,890.40
2040,1092.42,3584.22,210.51,903.60,888.00
2042,1092.65,3586.17,275.45,906.60,890.40
2044,1092.88,3588.12,579.81,908.00,885.60
2046,1093.11,3590.06,90.57,902.20,885.20
2047,1093.23,3591.03,5.64,895.00,881.60