File: plugins/Raman/MatchingLibrary/785X/alanine.csv
ENLIGHTEN Version,4.1.22
Measurement ID,20250220-202659-561446-WP-01977
Serial Number,WP-01977
Model,WP-785X-F13-R-ILC
Detector,S16011-1106
Label,alanine
Declared Match,
Declared Score,0
Scan Averaging,1
Boxcar,0
Technique,Raman
Baseline Correction Algo,AirPLS
ROI Pixel Start,47
ROI Pixel End,2047
ROI Start Line,0
ROI Stop Line,63
CCD C4,1.38617e-12
Slit Width,25
Cropped,True
Interpolated,False
Wavenumber Correction,-0.100481
Raman Intensity Corrected,True
Deconvolved,True
Region,
High Gain Mode,False
Laser Power mW,
Electrical Dark Correction,False
Battery %,
Device ID,<DeviceID USB:0x24aa:0x1000:0:1>
FW Version,10.0.0.10
FPGA Version,035-001
BLE Version,
Prefix,enlighten
Suffix,
Preset,
Auto-Raman,True
Session Count,0
Plugin Name,
Integration Time,1030
Timestamp,2025-02-20 20:26:59.5614
Note,
Temperature,0
CCD C0,793.274
CCD C1,0.153259
CCD C2,1.40788e-05
CCD C3,-1.132e-08
CCD Offset,0
CCD Gain,1.9
CCD Offset Odd,0
CCD Gain Odd,1.9
Laser Wavelength,785.032
Laser Enable,False
Laser Power %,0
Laser Temperature,0
Pixel Count,2048

Pixel,Wavelength,Wavenumber,Processed,Raw,Dark
0,793.27,132.25,NA,1154.00,1070.00
2,793.58,137.12,NA,1194.00,1104.00
4,793.89,141.99,NA,1184.00,1099.00
6,794.19,146.86,NA,1182.00,1085.00
8,794.50,151.72,NA,1215.00,1137.00
10,794.81,156.58,NA,1218.00,1123.00
12,795.12,161.44,NA,1182.00,1078.00
14,795.42,166.30,NA,1194.00,1078.00
16,795.73,171.16,NA,1201.00,1095.00
18,796.04,176.01,NA,1233.00,1146.00
20,796.35,180.86,NA,1245.00,1137.00
22,796.65,185.71,NA,1281.00,1194.00
24,796.96,190.56,NA,1247.00,1137.00
26,797.27,195.41,NA,1300.00,1161.00
28,797.58,200.25,NA,1281.00,1154.00
30,797.88,205.09,NA,1239.00,1106.00
32,798.19,209.93,NA,1245.00,1118.00
34,798.50,214.77,NA,1296.00,1112.00
36,798.81,219.60,NA,1302.00,1125.00
38,799.12,224.43,NA,1435.00,1121.00
40,799.43,229.27,NA,2029.00,1152.00
42,799.74,234.09,NA,4243.00,1142.00
44,800.04,238.92,NA,7432.00,1222.00
46,800.35,243.75,NA,8871.00,1137.00
48,800.66,248.57,1165.85,8991.00,1173.00
50,800.97,253.39,568.02,8491.00,1167.00
52,801.28,258.21,99.85,8056.00,1184.00
54,801.59,263.02,0.00,7648.00,1184.00
56,801.90,267.83,0.00,7502.00,1146.00
58,802.21,272.65,0.26,7578.00,1169.00
60,802.52,277.46,169.58,7914.00,1156.00
62,802.83,282.26,845.24,8715.00,1190.00
64,803.14,287.07,1825.75,10031.00,1205.00
66,803.45,291.87,3470.35,11874.00,1196.00
68,803.76,296.67,4635.91,13087.00,1203.00
70,804.07,301.47,4470.49,12943.00,1158.00
72,804.38,306.26,3327.86,11711.00,1154.00
74,804.69,311.06,2325.27,10473.00,1163.00
76,805.00,315.85,1682.55,9562.00,1152.00
78,805.31,320.64,1702.94,9416.00,1161.00
80,805.62,325.42,1692.84,9273.00,1178.00
82,805.93,330.21,1516.72,8954.00,1161.00
84,806.24,334.99,1014.82,8334.00,1118.00
86,806.55,339.77,708.06,7963.00,1144.00
88,806.86,344.55,728.11,8011.00,1171.00
90,807.17,349.32,1390.29,8852.00,1144.00
92,807.48,354.10,2503.23,10226.00,1161.00
94,807.80,358.87,3728.02,11701.00,1201.00
96,808.11,363.63,4353.73,12430.00,1142.00
98,808.42,368.40,4242.68,12267.00,1140.00
100,808.73,373.16,3680.05,11434.00,1140.00
102,809.04,377.93,2349.06,9805.00,1120.00
104,809.35,382.68,1237.52,8288.00,1131.00
106,809.66,387.44,846.74,7586.00,1169.00
108,809.98,392.19,648.24,7177.00,1120.00
110,810.29,396.95,664.67,7191.00,1165.00
112,810.60,401.70,867.05,7365.00,1144.00
114,810.91,406.44,1182.48,7652.00,1140.00
116,811.22,411.19,1341.24,7724.00,1163.00
118,811.54,415.93,946.18,7208.00,1142.00
120,811.85,420.67,455.49,6519.00,1114.00
122,812.16,425.41,138.30,6004.00,1121.00
124,812.47,430.14,3.51,5738.00,1148.00
126,812.79,434.87,0.00,5528.00,1135.00
128,813.10,439.60,0.00,5431.00,1104.00
130,813.41,444.33,0.00,5454.00,1125.00
132,813.72,449.06,0.00,5416.00,1114.00
134,814.04,453.78,0.00,5440.00,1139.00
136,814.35,458.50,47.93,5482.00,1112.00
138,814.66,463.22,128.02,5566.00,1112.00
140,814.98,467.93,175.99,5647.00,1118.00
142,815.29,472.65,327.22,5883.00,1120.00
144,815.60,477.36,606.04,6407.00,1140.00
146,815.92,482.06,1227.77,7286.00,1102.00
148,816.23,486.77,2352.73,8719.00,1150.00
150,816.54,491.47,3110.14,9570.00,1186.00
152,816.86,496.17,2621.37,8941.00,1108.00
154,817.17,500.87,1484.80,7544.00,1129.00
156,817.48,505.57,614.78,6257.00,1116.00
158,817.80,510.26,146.97,5454.00,1108.00
160,818.11,514.95,4.15,5171.00,1140.00
162,818.42,519.64,0.00,4979.00,1127.00
164,818.74,524.32,0.00,5011.00,1123.00
166,819.05,529.00,1.33,5110.00,1159.00
168,819.37,533.68,129.43,5444.00,1140.00
170,819.68,538.36,646.49,6405.00,1140.00
172,819.99,543.04,2014.35,8727.00,1158.00
174,820.31,547.71,4939.14,12260.00,1135.00
176,820.62,552.38,6528.04,14169.00,1104.00
178,820.94,557.05,5241.95,13137.00,1123.00
180,821.25,561.71,3867.31,11390.00,1085.00
182,821.57,566.37,3546.94,10635.00,1114.00
184,821.88,571.03,3266.40,9989.00,1129.00
186,822.20,575.69,2702.60,9076.00,1129.00
188,822.51,580.34,1759.07,7753.00,1123.00
190,822.83,584.99,873.36,6511.00,1139.00
192,823.14,589.64,575.31,5978.00,1121.00
194,823.46,594.29,670.15,6103.00,1120.00
196,823.77,598.93,1053.92,6766.00,1123.00
198,824.09,603.57,2061.51,8250.00,1085.00
200,824.40,608.21,3463.35,10038.00,1137.00
202,824.72,612.85,3895.15,10547.00,1159.00
204,825.03,617.48,2838.97,9321.00,1152.00
206,825.35,622.11,1676.21,7732.00,1156.00
208,825.66,626.74,973.67,6543.00,1133.00
210,825.98,631.36,752.25,6078.00,1116.00
212,826.29,635.99,702.39,5966.00,1127.00
214,826.61,640.61,904.50,6219.00,1140.00
216,826.92,645.22,1027.77,6401.00,1127.00
218,827.24,649.84,1265.62,6707.00,1093.00
220,827.56,654.45,1428.40,6889.00,1135.00
222,827.87,659.06,1268.17,6674.00,1140.00
224,828.19,663.67,877.09,6137.00,1137.00
226,828.50,668.27,620.25,5765.00,1207.00
228,828.82,672.87,410.84,5355.00,1158.00
230,829.13,677.47,284.04,5103.00,1120.00
232,829.45,682.06,242.57,4994.00,1140.00
234,829.77,686.66,193.42,4979.00,1228.00
236,830.08,691.25,142.96,4825.00,1148.00
238,830.40,695.83,74.32,4649.00,1118.00
240,830.72,700.42,59.49,4615.00,1127.00
242,831.03,705.00,2.52,4419.00,1038.00
244,831.35,709.58,13.70,4501.00,1116.00
246,831.66,714.15,0.00,4349.00,1076.00
248,831.98,718.73,0.00,4442.00,1129.00
250,832.30,723.30,0.00,4345.00,1102.00
252,832.61,727.87,0.00,4385.00,1152.00
254,832.93,732.43,0.00,4360.00,1042.00
256,833.25,736.99,0.00,4522.00,1150.00
258,833.56,741.55,12.87,4613.00,1099.00
260,833.88,746.11,151.19,4829.00,1104.00
262,834.20,750.66,315.53,5085.00,1108.00
264,834.51,755.22,309.99,5137.00,1140.00
266,834.83,759.76,256.17,5076.00,1112.00
268,835.15,764.31,25.92,4926.00,1158.00
270,835.47,768.85,0.00,4744.00,1099.00
272,835.78,773.39,0.00,4772.00,1097.00
274,836.10,777.93,0.00,4829.00,1110.00
276,836.42,782.46,31.26,5015.00,1106.00
278,836.73,787.00,201.77,5393.00,1099.00
280,837.05,791.52,512.22,5906.00,1089.00
282,837.37,796.05,1006.79,6657.00,1127.00
284,837.69,800.57,1126.79,6857.00,1078.00
286,838.00,805.09,926.29,6678.00,1104.00
288,838.32,809.61,634.59,6314.00,1114.00
290,838.64,814.13,334.65,5953.00,1142.00
292,838.95,818.64,183.06,5729.00,1120.00
294,839.27,823.15,192.84,5773.00,1101.00
296,839.59,827.65,308.06,6067.00,1133.00
298,839.91,832.15,592.87,6595.00,1097.00
300,840.22,836.65,1083.96,7576.00,1161.00
302,840.54,841.15,1788.34,8730.00,1080.00
304,840.86,845.65,2773.00,10268.00,1154.00
306,841.18,850.14,3480.52,11291.00,1121.00
308,841.50,854.63,3272.65,11438.00,1226.00
310,841.81,859.11,3080.20,11346.00,1135.00
312,842.13,863.60,3359.49,11880.00,1139.00
314,842.45,868.07,4278.74,13099.00,1102.00
316,842.77,872.55,4820.12,13767.00,1125.00
318,843.08,877.03,4531.45,13368.00,1167.00
320,843.40,881.50,3192.18,11396.00,1065.00
322,843.72,885.97,1715.39,9313.00,1133.00
324,844.04,890.43,697.59,7656.00,1106.00
326,844.36,894.89,318.61,6938.00,1106.00
328,844.67,899.35,222.01,6794.00,1129.00
330,844.99,903.81,328.78,7047.00,1087.00
332,845.31,908.26,835.14,8102.00,1118.00
334,845.63,912.71,1744.50,9775.00,1135.00
336,845.95,917.16,3360.04,12457.00,1139.00
338,846.27,921.61,5519.65,15705.00,1570.00
340,846.58,926.05,6159.55,15888.00,1108.00
342,846.90,930.49,4006.54,13342.00,1131.00
344,847.22,934.92,1676.08,10027.00,1123.00
346,847.54,939.36,330.64,7851.00,1078.00
348,847.86,943.79,7.21,6946.00,1087.00
350,848.18,948.21,0.00,6773.00,1087.00
352,848.49,952.64,21.63,7010.00,1099.00
354,848.81,957.06,316.00,7529.00,1061.00
356,849.13,961.48,871.21,8634.00,1175.00
358,849.45,965.89,1904.69,10733.00,1156.00
360,849.77,970.31,3753.32,14648.00,1116.00
362,850.09,974.71,8121.75,22842.00,1116.00
364,850.40,979.12,17147.28,35457.00,1150.00
366,850.72,983.52,24998.89,44250.00,1177.00
368,851.04,987.92,20339.98,39280.00,1099.00
370,851.36,992.32,10953.02,27219.00,1097.00
372,851.68,996.72,5490.99,18073.00,1125.00
374,852.00,1001.11,3333.84,13520.00,1085.00
376,852.32,1005.50,2772.46,11944.00,1070.00
378,852.63,1009.88,2788.52,11711.00,1171.00
380,852.95,1014.26,2516.75,11295.00,1135.00
382,853.27,1018.64,2262.38,11178.00,1158.00
384,853.59,1023.02,2450.23,11688.00,1084.00
386,853.91,1027.39,3787.60,13763.00,1072.00
388,854.23,1031.76,6120.74,16355.00,1104.00
390,854.55,1036.13,6222.07,16282.00,1114.00
392,854.87,1040.49,3129.75,12776.00,1104.00
394,855.18,1044.86,1213.39,9830.00,1133.00
396,855.50,1049.21,926.06,9150.00,1121.00
398,855.82,1053.57,1484.05,10177.00,1139.00
400,856.14,1057.92,3048.76,12848.00,1104.00
402,856.46,1062.27,6321.79,17389.00,1099.00
404,856.78,1066.62,8531.26,20577.00,1078.00
406,857.10,1070.96,8327.09,21556.00,1085.00
408,857.42,1075.30,9182.63,23178.00,1148.00
410,857.74,1079.64,11749.08,25577.00,1110.00
412,858.06,1083.97,10899.08,24436.00,1101.00
414,858.37,1088.30,7021.57,20155.00,1080.00
416,858.69,1092.63,6127.29,18676.00,1082.00
418,859.01,1096.95,8231.63,20246.00,1076.00
420,859.33,1101.27,8436.21,19872.00,1112.00
422,859.65,1105.59,5029.33,15882.00,1106.00
424,859.97,1109.91,2620.46,12368.00,1072.00
426,860.29,1114.22,1915.98,10904.00,1099.00
428,860.61,1118.53,2365.65,11067.00,1072.00
430,860.93,1122.84,2693.83,11282.00,1089.00
432,861.25,1127.14,2160.24,10773.00,1148.00
434,861.56,1131.44,1576.92,9915.00,1106.00
436,861.88,1135.74,1466.63,9495.00,1089.00
438,862.20,1140.03,1046.30,8725.00,1095.00
440,862.52,1144.32,315.56,7965.00,1110.00
442,862.84,1148.61,2.38,7274.00,1125.00
444,863.16,1152.89,0.00,7010.00,1087.00
446,863.48,1157.17,0.00,7084.00,1116.00
448,863.80,1161.45,6.71,7291.00,1102.00
450,864.12,1165.73,313.20,7912.00,1123.00
452,864.44,1170.00,865.86,8662.00,1084.00
454,864.76,1174.27,1483.01,9818.00,1118.00
456,865.07,1178.53,2236.58,11054.00,1065.00
458,865.39,1182.80,3236.94,12651.00,1104.00
460,865.71,1187.06,4036.74,13995.00,1110.00
462,866.03,1191.31,4712.64,15130.00,1101.00
464,866.35,1195.57,5477.92,15897.00,1095.00
466,866.67,1199.82,5228.42,15267.00,1127.00
468,866.99,1204.06,3078.13,12620.00,1114.00
470,867.31,1208.31,1272.46,9989.00,1129.00
472,867.63,1212.55,404.14,8448.00,1121.00
474,867.95,1216.79,27.31,7694.00,1049.00
476,868.27,1221.02,0.00,7447.00,1106.00
478,868.58,1225.25,0.00,7333.00,1068.00
480,868.90,1229.48,0.00,7430.00,1121.00
482,869.22,1233.71,0.00,7527.00,1146.00
484,869.54,1237.93,7.26,7831.00,1171.00
486,869.86,1242.15,76.29,7929.00,1093.00
488,870.18,1246.36,222.94,8199.00,1061.00
490,870.50,1250.58,469.51,8820.00,1112.00
492,870.82,1254.79,975.41,9871.00,1167.00
494,871.14,1258.99,2033.52,11329.00,1112.00
496,871.46,1263.20,3280.19,12829.00,1140.00
498,871.78,1267.40,3078.16,12823.00,1087.00
500,872.10,1271.59,2278.95,12142.00,1087.00
502,872.41,1275.79,2172.32,12028.00,1089.00
504,872.73,1279.98,2739.60,12685.00,1116.00
506,873.05,1284.17,3046.93,13213.00,1139.00
508,873.37,1288.35,3087.13,13551.00,1038.00
510,873.69,1292.53,3674.89,14671.00,1093.00
512,874.01,1296.71,4939.25,16749.00,1085.00
514,874.33,1300.88,6143.51,19018.00,1051.00
516,874.65,1305.06,9072.14,22936.00,1099.00
518,874.97,1309.22,11833.34,25786.00,1080.00
520,875.29,1313.39,9718.83,24034.00,1123.00
522,875.60,1317.55,7056.20,21203.00,1112.00
524,875.92,1321.71,7104.84,20964.00,1097.00
526,876.24,1325.87,8586.71,22122.00,1131.00
528,876.56,1330.02,8923.00,21985.00,1101.00
530,876.88,1334.17,6487.16,19189.00,1148.00
532,877.20,1338.32,3810.42,15652.00,1066.00
534,877.52,1342.46,2463.44,13467.00,1074.00
536,877.84,1346.60,2140.76,12761.00,1116.00
538,878.16,1350.73,2194.70,12662.00,1085.00
540,878.47,1354.87,2233.60,12700.00,1085.00
542,878.79,1359.00,2352.84,12856.00,1091.00
544,879.11,1363.13,2306.68,12873.00,1116.00
546,879.43,1367.25,1969.95,12599.00,1091.00
548,879.75,1371.37,1970.29,12696.00,1078.00
550,880.07,1375.49,2475.90,13252.00,1084.00
552,880.39,1379.60,2953.43,13756.00,1104.00
554,880.71,1383.71,2445.78,13289.00,1093.00
556,881.03,1387.82,1887.41,12691.00,1072.00
558,881.34,1391.93,1704.35,12400.00,1051.00
560,881.66,1396.03,1943.22,12704.00,1057.00
562,881.98,1400.13,2006.01,12909.00,1120.00
564,882.30,1404.22,2371.65,13549.00,1108.00
566,882.62,1408.31,2780.59,14291.00,1051.00
568,882.94,1412.40,3497.46,15641.00,1121.00
570,883.26,1416.49,4900.72,17611.00,1089.00
572,883.57,1420.57,6619.75,19787.00,1131.00
574,883.89,1424.65,7285.85,21030.00,1068.00
576,884.21,1428.73,6963.09,21628.00,1131.00
578,884.53,1432.80,8522.00,24058.00,1148.00
580,884.85,1436.87,12117.71,27855.00,1101.00
582,885.17,1440.93,13203.73,28973.00,1076.00
584,885.49,1445.00,10571.54,26329.00,1091.00
586,885.80,1449.06,8592.83,23405.00,1089.00
588,886.12,1453.11,6643.23,20434.00,1127.00
590,886.44,1457.17,3780.87,16700.00,1102.00
592,886.76,1461.22,2356.32,14705.00,1114.00
594,887.08,1465.26,2092.31,14327.00,1129.00
596,887.40,1469.31,3162.51,15599.00,1066.00
598,887.71,1473.35,5335.75,17604.00,1065.00
600,888.03,1477.38,5134.50,17450.00,1112.00
602,888.35,1481.42,2860.21,15269.00,1123.00
604,888.67,1485.45,1636.66,13545.00,1101.00
606,888.99,1489.48,1314.03,12801.00,1084.00
608,889.31,1493.50,1153.71,12472.00,1129.00
610,889.62,1497.52,972.04,12205.00,1108.00
612,889.94,1501.54,846.60,12013.00,1053.00
614,890.26,1505.56,626.44,11741.00,1080.00
616,890.58,1509.57,497.81,11591.00,1084.00
618,890.90,1513.57,289.17,11348.00,1087.00
620,891.21,1517.58,190.78,11252.00,1099.00
622,891.53,1521.58,107.91,11105.00,1104.00
624,891.85,1525.58,106.09,11039.00,1093.00
626,892.17,1529.57,102.32,11033.00,1118.00
628,892.49,1533.57,12.26,10809.00,1112.00
630,892.80,1537.56,171.61,10914.00,1072.00
632,893.12,1541.54,170.05,10826.00,1063.00
634,893.44,1545.52,180.80,10859.00,1106.00
636,893.76,1549.50,317.96,10904.00,1053.00
638,894.07,1553.48,463.57,11067.00,1102.00
640,894.39,1557.45,565.23,11117.00,1066.00
642,894.71,1561.42,776.14,11346.00,1104.00
644,895.03,1565.39,825.16,11318.00,1068.00
646,895.34,1569.35,821.28,11305.00,1123.00
648,895.66,1573.31,901.42,11267.00,1082.00
650,895.98,1577.26,740.35,11009.00,1074.00
652,896.30,1581.22,706.34,10878.00,1070.00
654,896.61,1585.17,772.32,10859.00,1074.00
656,896.93,1589.11,672.46,10729.00,1114.00
658,897.25,1593.06,586.07,10511.00,1078.00
660,897.57,1597.00,647.65,10513.00,1093.00
662,897.88,1600.93,688.58,10488.00,1097.00
664,898.20,1604.87,764.21,10523.00,1102.00
666,898.52,1608.80,835.05,10526.00,1076.00
668,898.84,1612.72,854.12,10443.00,1051.00
670,899.15,1616.65,887.08,10466.00,1108.00
672,899.47,1620.57,855.13,10287.00,1055.00
674,899.79,1624.49,837.82,10215.00,1087.00
676,900.10,1628.40,723.74,10025.00,1084.00
678,900.42,1632.31,627.09,9881.00,1121.00
680,900.74,1636.22,691.99,9775.00,1044.00
682,901.05,1640.12,733.06,9807.00,1142.00
684,901.37,1644.02,681.46,9626.00,1095.00
686,901.69,1647.92,588.37,9488.00,1120.00
688,902.00,1651.82,465.11,9234.00,1070.00
690,902.32,1655.71,463.78,9127.00,1063.00
692,902.64,1659.60,545.28,9139.00,1063.00
694,902.95,1663.48,523.02,9110.00,1106.00
696,903.27,1667.36,550.89,9049.00,1072.00
698,903.59,1671.24,650.22,9148.00,1129.00
700,903.90,1675.11,775.28,9220.00,1093.00
702,904.22,1678.99,885.68,9290.00,1057.00
704,904.54,1682.85,1115.03,9623.00,1171.00
706,904.85,1686.72,1328.66,9699.00,1076.00
708,905.17,1690.58,1527.35,9858.00,1076.00
710,905.49,1694.44,1450.62,9740.00,1057.00
712,905.80,1698.29,1401.52,9668.00,1065.00
714,906.12,1702.15,1532.74,9784.00,1106.00
716,906.43,1706.00,1784.26,9951.00,1089.00
718,906.75,1709.84,1777.21,9869.00,1118.00
720,907.07,1713.68,1665.12,9617.00,1076.00
722,907.38,1717.52,1356.60,9211.00,1106.00
724,907.70,1721.36,1035.34,8725.00,1089.00
726,908.01,1725.19,803.34,8351.00,1099.00
728,908.33,1729.02,602.02,8022.00,1106.00
730,908.65,1732.85,376.19,7639.00,1085.00
732,908.96,1736.67,254.52,7434.00,1121.00
734,909.28,1740.49,155.50,7187.00,1068.00
736,909.59,1744.30,141.28,7143.00,1114.00
738,909.91,1748.12,111.23,6986.00,1084.00
740,910.22,1751.93,94.28,6910.00,1108.00
742,910.54,1755.73,41.92,6870.00,1178.00
744,910.85,1759.54,30.16,6748.00,1118.00
746,911.17,1763.34,0.00,6557.00,1076.00
748,911.49,1767.13,0.00,6524.00,1101.00
750,911.80,1770.93,0.00,6393.00,1072.00
752,912.12,1774.72,0.00,6401.00,1112.00
754,912.43,1778.50,46.62,6342.00,1053.00
756,912.75,1782.29,12.51,6270.00,1055.00
758,913.06,1786.07,0.00,6211.00,1074.00
760,913.38,1789.84,19.30,6207.00,1084.00
762,913.69,1793.62,98.60,6243.00,1106.00
764,914.01,1797.39,22.60,6103.00,1080.00
766,914.32,1801.15,31.01,6063.00,1072.00
768,914.64,1804.92,3.52,5978.00,1076.00
770,914.95,1808.68,17.40,5974.00,1104.00
772,915.26,1812.44,9.43,5930.00,1106.00
774,915.58,1816.19,21.32,5852.00,1049.00
776,915.89,1819.94,89.90,5896.00,1087.00
778,916.21,1823.69,135.04,5919.00,1102.00
780,916.52,1827.43,132.35,5917.00,1137.00
782,916.84,1831.17,156.70,5835.00,1078.00
784,917.15,1834.91,171.12,5786.00,1059.00
786,917.47,1838.64,179.47,5792.00,1102.00
788,917.78,1842.38,198.23,5752.00,1082.00
790,918.09,1846.10,154.23,5640.00,1066.00
792,918.41,1849.83,222.43,5687.00,1093.00
794,918.72,1853.55,217.82,5571.00,1030.00
796,919.04,1857.27,169.42,5541.00,1080.00
798,919.35,1860.98,202.56,5556.00,1097.00
800,919.66,1864.69,232.12,5513.00,1085.00
802,919.98,1868.40,331.92,5566.00,1085.00
804,920.29,1872.11,288.50,5484.00,1084.00
806,920.60,1875.81,265.90,5431.00,1089.00
808,920.92,1879.51,289.55,5383.00,1059.00
810,921.23,1883.20,308.90,5380.00,1102.00
812,921.55,1886.90,317.04,5292.00,1053.00
814,921.86,1890.58,311.14,5328.00,1112.00
816,922.17,1894.27,195.64,5161.00,1120.00
818,922.49,1897.95,341.99,5215.00,1089.00
820,922.80,1901.63,329.02,5144.00,1070.00
822,923.11,1905.31,247.07,5059.00,1087.00
824,923.42,1908.98,268.70,5040.00,1101.00
826,923.74,1912.65,295.74,5015.00,1110.00
828,924.05,1916.31,276.51,4928.00,1080.00
830,924.36,1919.98,261.80,4861.00,1068.00
832,924.68,1923.64,319.73,4848.00,1055.00
834,924.99,1927.29,267.88,4770.00,1063.00
836,925.30,1930.94,267.80,4717.00,1042.00
838,925.61,1934.59,290.49,4717.00,1082.00
840,925.93,1938.24,242.97,4635.00,1087.00
842,926.24,1941.88,233.90,4584.00,1080.00
844,926.55,1945.52,242.37,4512.00,1061.00
846,926.86,1949.16,208.21,4467.00,1089.00
848,927.18,1952.79,236.61,4446.00,1068.00
850,927.49,1956.42,217.49,4375.00,1072.00
852,927.80,1960.05,202.23,4453.00,1209.00
854,928.11,1963.67,214.56,4305.00,1087.00
856,928.42,1967.29,192.88,4265.00,1106.00
858,928.74,1970.91,199.35,4203.00,1082.00
860,929.05,1974.52,291.35,4222.00,1072.00
862,929.36,1978.13,200.36,4106.00,1074.00
864,929.67,1981.74,137.21,4020.00,1085.00
866,929.98,1985.35,158.83,4001.00,1084.00
868,930.29,1988.95,94.82,3893.00,1091.00
870,930.61,1992.54,185.90,3905.00,1061.00
872,930.92,1996.14,125.42,3829.00,1087.00
874,931.23,1999.73,81.46,3764.00,1097.00
876,931.54,2003.32,70.16,3711.00,1093.00
878,931.85,2006.90,54.11,3635.00,1078.00
880,932.16,2010.48,42.22,3584.00,1080.00
882,932.47,2014.06,94.42,3588.00,1074.00
884,932.78,2017.63,98.82,3567.00,1089.00
886,933.09,2021.21,76.78,3514.00,1084.00
888,933.41,2024.77,45.08,3443.00,1095.00
890,933.72,2028.34,86.52,3476.00,1131.00
892,934.03,2031.90,10.48,3346.00,1091.00
894,934.34,2035.46,0.00,3269.00,1101.00
896,934.65,2039.01,59.81,3284.00,1078.00
898,934.96,2042.57,16.18,3250.00,1106.00
900,935.27,2046.11,0.00,3217.00,1146.00
902,935.58,2049.66,50.57,3155.00,1040.00
904,935.89,2053.20,42.28,3132.00,1078.00
906,936.20,2056.74,59.22,3126.00,1084.00
908,936.51,2060.28,29.25,3084.00,1093.00
910,936.82,2063.81,53.34,3102.00,1123.00
912,937.13,2067.34,69.06,3029.00,1085.00
914,937.44,2070.86,30.32,2980.00,1095.00
916,937.75,2074.39,26.03,2917.00,1055.00
918,938.06,2077.91,0.00,2860.00,1082.00
920,938.37,2081.42,0.00,2836.00,1085.00
922,938.68,2084.94,0.35,2796.00,1063.00
924,938.99,2088.45,15.63,2798.00,1074.00
926,939.30,2091.95,0.00,2769.00,1102.00
928,939.60,2095.46,22.82,2748.00,1070.00
930,939.91,2098.96,0.81,2756.00,1121.00
932,940.22,2102.45,0.80,2705.00,1089.00
934,940.53,2105.95,27.76,2691.00,1068.00
936,940.84,2109.44,23.76,2665.00,1066.00
938,941.15,2112.92,27.38,2686.00,1097.00
940,941.46,2116.41,3.32,2629.00,1082.00
942,941.77,2119.89,26.64,2644.00,1091.00
944,942.07,2123.37,16.00,2617.00,1087.00
946,942.38,2126.84,15.35,2616.00,1106.00
948,942.69,2130.31,0.00,2564.00,1095.00
950,943.00,2133.78,9.29,2551.00,1082.00
952,943.31,2137.24,1.41,2538.00,1091.00
954,943.62,2140.70,0.32,2530.00,1099.00
956,943.92,2144.16,0.00,2466.00,1080.00
958,944.23,2147.62,14.29,2507.00,1091.00
960,944.54,2151.07,0.00,2507.00,1120.00
962,944.85,2154.52,2.24,2524.00,1139.00
964,945.16,2157.96,69.55,2534.00,1106.00
966,945.46,2161.40,0.00,2471.00,1116.00
968,945.77,2164.84,0.31,2386.00,1038.00
970,946.08,2168.28,46.28,2464.00,1093.00
972,946.39,2171.71,30.81,2445.00,1084.00
974,946.69,2175.14,4.95,2414.00,1089.00
976,947.00,2178.57,16.35,2409.00,1080.00
978,947.31,2181.99,18.56,2382.00,1059.00
980,947.61,2185.41,0.00,2376.00,1085.00
982,947.92,2188.82,59.22,2441.00,1095.00
984,948.23,2192.24,57.34,2390.00,1055.00
986,948.53,2195.65,92.62,2441.00,1087.00
988,948.84,2199.05,56.14,2344.00,1023.00
990,949.15,2202.46,68.52,2416.00,1085.00
992,949.45,2205.86,55.81,2390.00,1078.00
994,949.76,2209.25,86.57,2382.00,1061.00
996,950.07,2212.65,91.90,2411.00,1074.00
998,950.37,2216.04,23.95,2325.00,1051.00
1000,950.68,2219.43,97.03,2409.00,1076.00
1002,950.98,2222.81,105.66,2418.00,1112.00
1004,951.29,2226.19,131.21,2373.00,1047.00
1006,951.60,2229.57,62.09,2319.00,1042.00
1008,951.90,2232.94,90.63,2359.00,1061.00
1010,952.21,2236.32,117.54,2367.00,1059.00
1012,952.51,2239.68,89.75,2365.00,1093.00
1014,952.82,2243.05,136.53,2346.00,1040.00
1016,953.12,2246.41,85.24,2393.00,1129.00
1018,953.43,2249.77,124.17,2458.00,1175.00
1020,953.73,2253.12,95.33,2359.00,1108.00
1022,954.04,2256.48,87.85,2295.00,1051.00
1024,954.34,2259.83,94.59,2365.00,1120.00
1026,954.65,2263.17,80.67,2285.00,1063.00
1028,954.95,2266.51,111.71,2323.00,1085.00
1030,955.26,2269.85,99.33,2369.00,1135.00
1032,955.56,2273.19,57.06,2310.00,1118.00
1034,955.87,2276.52,88.87,2312.00,1108.00
1036,956.17,2279.85,164.79,2367.00,1121.00
1038,956.48,2283.18,111.37,2264.00,1055.00
1040,956.78,2286.50,107.77,2264.00,1055.00
1042,957.08,2289.82,94.62,2234.00,1040.00
1044,957.39,2293.14,104.46,2285.00,1097.00
1046,957.69,2296.45,124.15,2253.00,1065.00
1048,957.99,2299.76,108.37,2297.00,1120.00
1050,958.30,2303.07,129.55,2276.00,1087.00
1052,958.60,2306.38,158.42,2276.00,1080.00
1054,958.91,2309.68,76.55,2232.00,1097.00
1056,959.21,2312.98,71.08,2194.00,1061.00
1058,959.51,2316.27,79.48,2211.00,1084.00
1060,959.82,2319.56,81.81,2224.00,1106.00
1062,960.12,2322.85,86.84,2190.00,1072.00
1064,960.42,2326.14,71.59,2168.00,1070.00
1066,960.72,2329.42,110.69,2223.00,1106.00
1068,961.03,2332.70,120.76,2224.00,1102.00
1070,961.33,2335.97,75.73,2181.00,1087.00
1072,961.63,2339.25,56.89,2149.00,1078.00
1074,961.93,2342.52,113.79,2162.00,1066.00
1076,962.24,2345.78,114.91,2162.00,1074.00
1078,962.54,2349.05,44.34,2128.00,1091.00
1080,962.84,2352.31,63.58,2141.00,1095.00
1082,963.14,2355.56,68.21,2107.00,1063.00
1084,963.45,2358.82,37.54,2086.00,1072.00
1086,963.75,2362.07,20.27,2097.00,1101.00
1088,964.05,2365.32,21.26,2135.00,1139.00
1090,964.35,2368.56,23.43,2082.00,1087.00
1092,964.65,2371.80,29.48,2107.00,1116.00
1094,964.95,2375.04,31.88,2074.00,1093.00
1096,965.25,2378.27,84.96,2080.00,1068.00
1098,965.56,2381.51,71.38,2114.00,1108.00
1100,965.86,2384.73,104.56,2099.00,1087.00
1102,966.16,2387.96,144.20,2099.00,1070.00
1104,966.46,2391.18,52.68,2116.00,1137.00
1106,966.76,2394.40,49.15,2063.00,1091.00
1108,967.06,2397.62,125.35,2105.00,1101.00
1110,967.36,2400.83,114.76,2048.00,1066.00
1112,967.66,2404.04,96.21,2107.00,1125.00
1114,967.96,2407.25,36.05,1993.00,1057.00
1116,968.26,2410.45,15.99,2000.00,1089.00
1118,968.56,2413.65,12.03,1962.00,1061.00
1120,968.86,2416.85,20.76,2050.00,1142.00
1122,969.16,2420.04,0.29,1970.00,1084.00
1124,969.46,2423.23,0.00,1936.00,1074.00
1126,969.76,2426.42,0.00,1962.00,1091.00
1128,970.06,2429.60,0.00,1919.00,1049.00
1130,970.36,2432.79,4.72,1953.00,1074.00
1132,970.66,2435.96,11.85,1947.00,1065.00
1134,970.96,2439.14,19.11,1968.00,1087.00
1136,971.26,2442.31,0.00,1987.00,1125.00
1138,971.56,2445.48,72.05,2006.00,1095.00
1140,971.86,2448.65,33.77,1970.00,1074.00
1142,972.16,2451.81,35.83,2002.00,1099.00
1144,972.45,2454.97,134.15,2019.00,1068.00
1146,972.75,2458.13,132.16,2033.00,1091.00
1148,973.05,2461.28,66.41,1983.00,1072.00
1150,973.35,2464.43,86.83,2029.00,1102.00
1152,973.65,2467.58,32.73,1987.00,1093.00
1154,973.95,2470.72,78.66,2019.00,1093.00
1156,974.24,2473.86,81.58,1991.00,1066.00
1158,974.54,2477.00,79.51,1974.00,1051.00
1160,974.84,2480.13,57.97,2018.00,1110.00
1162,975.14,2483.27,64.82,1993.00,1084.00
1164,975.43,2486.40,121.90,1976.00,1040.00
1166,975.73,2489.52,91.99,1999.00,1070.00
1168,976.03,2492.64,26.33,1976.00,1084.00
1170,976.33,2495.76,33.12,2006.00,1108.00
1172,976.62,2498.88,36.03,1972.00,1074.00
1174,976.92,2501.99,87.64,2042.00,1116.00
1176,977.22,2505.10,110.28,2037.00,1099.00
1178,977.51,2508.21,83.05,2016.00,1091.00
1180,977.81,2511.31,190.48,2061.00,1076.00
1182,978.11,2514.41,205.98,2054.00,1068.00
1184,978.40,2517.51,237.73,2093.00,1087.00
1186,978.70,2520.61,204.77,2086.00,1099.00
1188,979.00,2523.70,223.49,2092.00,1101.00
1190,979.29,2526.79,188.82,2050.00,1082.00
1192,979.59,2529.87,143.11,2048.00,1085.00
1194,979.88,2532.95,33.15,1961.00,1065.00
1196,980.18,2536.03,30.52,2010.00,1118.00
1198,980.48,2539.11,0.00,2000.00,1133.00
1200,980.77,2542.18,8.80,1962.00,1084.00
1202,981.07,2545.25,10.72,2000.00,1120.00
1204,981.36,2548.32,6.67,1964.00,1085.00
1206,981.66,2551.38,35.18,2027.00,1129.00
1208,981.95,2554.44,132.59,2027.00,1085.00
1210,982.25,2557.50,45.58,2042.00,1131.00
1212,982.54,2560.56,74.40,2069.00,1133.00
1214,982.84,2563.61,97.86,2080.00,1139.00
1216,983.13,2566.66,138.45,2073.00,1116.00
1218,983.43,2569.70,18.27,2019.00,1110.00
1220,983.72,2572.74,28.67,2044.00,1120.00
1222,984.01,2575.78,4.19,2023.00,1114.00
1224,984.31,2578.82,29.36,1999.00,1072.00
1226,984.60,2581.85,70.61,2050.00,1108.00
1228,984.90,2584.88,22.16,1985.00,1057.00
1230,985.19,2587.91,30.10,2040.00,1097.00
1232,985.48,2590.93,50.11,2078.00,1125.00
1234,985.78,2593.96,58.72,2074.00,1120.00
1236,986.07,2596.97,63.49,2061.00,1102.00
1238,986.36,2599.99,173.43,2162.00,1140.00
1240,986.66,2603.00,135.25,2149.00,1140.00
1242,986.95,2606.01,228.12,2205.00,1146.00
1244,987.24,2609.01,363.23,2245.00,1131.00
1246,987.54,2612.02,398.87,2166.00,1044.00
1248,987.83,2615.02,392.25,2238.00,1112.00
1250,988.12,2618.01,290.76,2226.00,1135.00
1252,988.41,2621.01,244.14,2204.00,1123.00
1254,988.71,2624.00,162.84,2122.00,1084.00
1256,989.00,2626.99,294.90,2205.00,1120.00
1258,989.29,2629.97,178.11,2152.00,1112.00
1260,989.58,2632.95,81.30,2135.00,1129.00
1262,989.87,2635.93,94.99,2135.00,1121.00
1264,990.16,2638.91,41.17,2063.00,1080.00
1266,990.46,2641.88,0.00,2095.00,1131.00
1268,990.75,2644.85,48.12,2164.00,1158.00
1270,991.04,2647.81,0.00,2042.00,1114.00
1272,991.33,2650.78,0.00,2082.00,1112.00
1274,991.62,2653.74,2.22,2086.00,1091.00
1276,991.91,2656.70,42.14,2116.00,1091.00
1278,992.20,2659.65,96.45,2168.00,1121.00
1280,992.49,2662.60,33.18,2124.00,1097.00
1282,992.78,2665.55,231.09,2242.00,1135.00
1284,993.07,2668.50,102.48,2219.00,1150.00
1286,993.36,2671.44,126.64,2234.00,1129.00
1288,993.65,2674.38,0.00,2181.00,1150.00
1290,993.94,2677.31,22.37,2187.00,1116.00
1292,994.23,2680.25,29.50,2183.00,1099.00
1294,994.52,2683.18,0.00,2198.00,1120.00
1296,994.81,2686.10,7.86,2219.00,1118.00
1298,995.10,2689.03,3.25,2238.00,1125.00
1300,995.39,2691.95,20.91,2247.00,1099.00
1302,995.68,2694.87,103.44,2350.00,1163.00
1304,995.97,2697.78,328.70,2395.00,1131.00
1306,996.26,2700.70,312.64,2374.00,1091.00
1308,996.55,2703.61,287.18,2428.00,1120.00
1310,996.84,2706.51,386.02,2513.00,1148.00
1312,997.13,2709.42,571.92,2557.00,1133.00
1314,997.41,2712.32,681.15,2595.00,1144.00
1316,997.70,2715.21,789.80,2600.00,1097.00
1318,997.99,2718.11,585.44,2566.00,1101.00
1320,998.28,2721.00,324.57,2485.00,1093.00
1322,998.57,2723.89,231.94,2500.00,1135.00
1324,998.86,2726.77,246.84,2483.00,1108.00
1326,999.14,2729.66,332.81,2528.00,1108.00
1328,999.43,2732.54,302.99,2547.00,1121.00
1330,999.72,2735.41,372.20,2583.00,1118.00
1332,1000.01,2738.29,722.09,2756.00,1156.00
1334,1000.29,2741.16,976.81,2817.00,1127.00
1336,1000.58,2744.03,1189.80,2855.00,1091.00
1338,1000.87,2746.89,1508.32,3005.00,1142.00
1340,1001.15,2749.75,1483.20,2969.00,1120.00
1342,1001.44,2752.61,1367.52,2923.00,1097.00
1344,1001.73,2755.47,948.98,2800.00,1099.00
1346,1002.01,2758.32,669.82,2731.00,1101.00
1348,1002.30,2761.17,375.34,2714.00,1142.00
1350,1002.59,2764.02,59.74,2616.00,1188.00
1352,1002.87,2766.86,96.20,2562.00,1118.00
1354,1003.16,2769.70,229.54,2585.00,1106.00
1356,1003.44,2772.54,121.53,2542.00,1089.00
1358,1003.73,2775.38,142.30,2602.00,1121.00
1360,1004.01,2778.21,83.98,2538.00,1076.00
1362,1004.30,2781.04,115.95,2572.00,1102.00
1364,1004.58,2783.87,91.87,2579.00,1101.00
1366,1004.87,2786.69,0.00,2496.00,1082.00
1368,1005.15,2789.51,10.39,2591.00,1120.00
1370,1005.44,2792.33,4.53,2619.00,1139.00
1372,1005.72,2795.14,0.00,2572.00,1146.00
1374,1006.01,2797.95,0.00,2629.00,1142.00
1376,1006.29,2800.76,0.00,2623.00,1099.00
1378,1006.58,2803.57,0.00,2726.00,1178.00
1380,1006.86,2806.37,0.00,2680.00,1104.00
1382,1007.14,2809.17,45.66,2752.00,1099.00
1384,1007.43,2811.97,0.00,2754.00,1095.00
1386,1007.71,2814.77,0.00,2773.00,1070.00
1388,1008.00,2817.56,0.11,2874.00,1106.00
1390,1008.28,2820.35,0.00,2925.00,1135.00
1392,1008.56,2823.13,52.93,2986.00,1099.00
1394,1008.85,2825.91,147.61,3075.00,1118.00
1396,1009.13,2828.69,337.81,3174.00,1123.00
1398,1009.41,2831.47,723.32,3316.00,1148.00
1400,1009.69,2834.24,1490.61,3455.00,1074.00
1402,1009.98,2837.02,1989.29,3624.00,1108.00
1404,1010.26,2839.78,2616.92,3834.00,1129.00
1406,1010.54,2842.55,3451.35,4043.00,1085.00
1408,1010.82,2845.31,4298.77,4343.00,1120.00
1410,1011.11,2848.07,5186.55,4643.00,1135.00
1412,1011.39,2850.83,6675.14,5112.00,1131.00
1414,1011.67,2853.58,8567.85,5714.00,1131.00
1416,1011.95,2856.33,10835.53,6382.00,1139.00
1418,1012.23,2859.08,15263.57,7460.00,1110.00
1420,1012.51,2861.83,20304.52,8457.00,1091.00
1422,1012.80,2864.57,24490.43,9338.00,1180.00
1424,1013.08,2867.31,24283.02,9315.00,1150.00
1426,1013.36,2870.04,20960.96,8751.00,1131.00
1428,1013.64,2872.78,17732.80,8098.00,1118.00
1430,1013.92,2875.51,16783.14,7872.00,1152.00
1432,1014.20,2878.24,16916.18,7758.00,1139.00
1434,1014.48,2880.96,17415.65,7736.00,1097.00
1436,1014.76,2883.68,17998.60,7829.00,1097.00
1438,1015.04,2886.40,18985.59,8019.00,1104.00
1440,1015.32,2889.12,20316.01,8294.00,1139.00
1442,1015.60,2891.83,21141.83,8402.00,1116.00
1444,1015.88,2894.54,21303.74,8442.00,1135.00
1446,1016.16,2897.25,21357.72,8442.00,1085.00
1448,1016.44,2899.96,21033.91,8487.00,1146.00
1450,1016.72,2902.66,21252.25,8571.00,1133.00
1452,1017.00,2905.36,23036.20,9038.00,1182.00
1454,1017.28,2908.06,25686.88,9497.00,1114.00
1456,1017.55,2910.75,29159.42,10187.00,1159.00
1458,1017.83,2913.44,32747.93,10752.00,1085.00
1460,1018.11,2916.13,34762.39,11092.00,1140.00
1462,1018.39,2918.81,35959.35,11257.00,1129.00
1464,1018.67,2921.49,33686.26,10767.00,1114.00
1466,1018.95,2924.17,30086.70,10097.00,1112.00
1468,1019.22,2926.85,26657.63,9431.00,1118.00
1470,1019.50,2929.52,24414.03,8842.00,1101.00
1472,1019.78,2932.20,24359.30,8588.00,1076.00
1474,1020.06,2934.86,24483.10,8402.00,1104.00
1476,1020.33,2937.53,23532.25,8165.00,1156.00
1478,1020.61,2940.19,20448.10,7540.00,1118.00
1480,1020.89,2942.85,17625.44,7047.00,1135.00
1482,1021.17,2945.51,15830.23,6648.00,1121.00
1484,1021.44,2948.16,15634.22,6485.00,1125.00
1486,1021.72,2950.81,16497.10,6441.00,1114.00
1488,1022.00,2953.46,17017.55,6399.00,1144.00
1490,1022.27,2956.11,15461.37,6033.00,1123.00
1492,1022.55,2958.75,12343.16,5484.00,1133.00
1494,1022.82,2961.39,9574.48,4972.00,1118.00
1496,1023.10,2964.03,7041.85,4493.00,1154.00
1498,1023.38,2966.66,5075.67,4005.00,1120.00
1500,1023.65,2969.29,4173.81,3812.00,1158.00
1502,1023.93,2971.92,3011.97,3536.00,1156.00
1504,1024.20,2974.55,2443.85,3377.00,1137.00
1506,1024.48,2977.17,1950.48,3246.00,1129.00
1508,1024.75,2979.79,1304.70,3086.00,1108.00
1510,1025.03,2982.41,710.70,2978.00,1112.00
1512,1025.30,2985.02,290.35,2876.00,1087.00
1514,1025.58,2987.63,54.36,2821.00,1123.00
1516,1025.85,2990.24,0.00,2716.00,1102.00
1518,1026.13,2992.85,8.70,2714.00,1131.00
1520,1026.40,2995.45,32.61,2669.00,1120.00
1522,1026.68,2998.05,0.00,2610.00,1114.00
1524,1026.95,3000.65,0.00,2589.00,1156.00
1526,1027.22,3003.25,60.33,2557.00,1112.00
1528,1027.50,3005.84,0.00,2466.00,1121.00
1530,1027.77,3008.43,59.74,2523.00,1133.00
1532,1028.04,3011.02,152.72,2528.00,1150.00
1534,1028.32,3013.60,0.00,2454.00,1140.00
1536,1028.59,3016.18,42.40,2471.00,1139.00
1538,1028.86,3018.76,0.00,2352.00,1059.00
1540,1029.14,3021.34,10.97,2414.00,1108.00
1542,1029.41,3023.91,0.00,2369.00,1101.00
1544,1029.68,3026.48,246.86,2407.00,1085.00
1546,1029.95,3029.05,0.00,2405.00,1135.00
1548,1030.22,3031.61,95.75,2405.00,1110.00
1550,1030.50,3034.17,65.06,2388.00,1097.00
1552,1030.77,3036.73,0.00,2361.00,1089.00
1554,1031.04,3039.29,0.00,2392.00,1135.00
1556,1031.31,3041.84,113.50,2367.00,1066.00
1558,1031.58,3044.39,132.71,2464.00,1169.00
1560,1031.85,3046.94,175.63,2447.00,1142.00
1562,1032.13,3049.49,278.90,2430.00,1106.00
1564,1032.40,3052.03,356.91,2485.00,1148.00
1566,1032.67,3054.57,397.40,2445.00,1095.00
1568,1032.94,3057.11,279.43,2494.00,1165.00
1570,1033.21,3059.64,535.93,2447.00,1084.00
1572,1033.48,3062.18,446.66,2507.00,1156.00
1574,1033.75,3064.70,557.30,2513.00,1142.00
1576,1034.02,3067.23,958.96,2572.00,1144.00
1578,1034.29,3069.75,806.19,2485.00,1080.00
1580,1034.56,3072.28,663.66,2523.00,1137.00
1582,1034.83,3074.79,1091.33,2536.00,1085.00
1584,1035.10,3077.31,842.01,2551.00,1137.00
1586,1035.37,3079.82,1133.53,2572.00,1120.00
1588,1035.64,3082.33,1331.97,2640.00,1167.00
1590,1035.91,3084.84,1148.61,2583.00,1135.00
1592,1036.17,3087.34,1503.15,2600.00,1101.00
1594,1036.44,3089.85,1498.10,2669.00,1173.00
1596,1036.71,3092.35,1529.30,2614.00,1114.00
1598,1036.98,3094.84,1960.61,2644.00,1085.00
1600,1037.25,3097.34,1751.93,2612.00,1091.00
1602,1037.52,3099.83,2218.29,2684.00,1112.00
1604,1037.78,3102.32,2231.35,2693.00,1120.00
1606,1038.05,3104.80,2157.64,2720.00,1152.00
1608,1038.32,3107.29,2448.17,2710.00,1108.00
1610,1038.59,3109.77,2866.87,2764.00,1120.00
1612,1038.85,3112.24,2558.47,2701.00,1102.00
1614,1039.12,3114.72,2630.63,2766.00,1156.00
1616,1039.39,3117.19,2276.57,2650.00,1084.00
1618,1039.66,3119.66,2841.99,2769.00,1139.00
1620,1039.92,3122.13,2522.16,2726.00,1148.00
1622,1040.19,3124.59,2728.13,2726.00,1129.00
1624,1040.45,3127.05,2440.81,2665.00,1104.00
1626,1040.72,3129.51,2407.74,2720.00,1165.00
1628,1040.99,3131.97,2743.24,2737.00,1142.00
1630,1041.25,3134.42,2102.12,2691.00,1178.00
1632,1041.52,3136.87,2456.54,2638.00,1097.00
1634,1041.78,3139.32,2526.05,2652.00,1114.00
1636,1042.05,3141.77,2376.90,2769.00,1245.00
1638,1042.32,3144.21,2097.86,2616.00,1118.00
1640,1042.58,3146.65,2114.55,2655.00,1159.00
1642,1042.85,3149.09,2312.55,2629.00,1125.00
1644,1043.11,3151.52,2055.32,2574.00,1110.00
1646,1043.38,3153.96,2191.45,2604.00,1129.00
1648,1043.64,3156.39,1923.68,2562.00,1120.00
1650,1043.90,3158.81,1890.61,2562.00,1133.00
1652,1044.17,3161.24,1875.75,2566.00,1142.00
1654,1044.43,3163.66,1280.36,2462.00,1093.00
1656,1044.70,3166.08,1013.16,2521.00,1177.00
1658,1044.96,3168.49,1415.86,2517.00,1135.00
1660,1045.22,3170.91,1208.18,2466.00,1127.00
1662,1045.49,3173.32,1513.50,2469.00,1116.00
1664,1045.75,3175.73,1360.93,2485.00,1148.00
1666,1046.01,3178.13,1053.21,2439.00,1123.00
1668,1046.28,3180.54,664.73,2430.00,1146.00
1670,1046.54,3182.94,559.68,2454.00,1182.00
1672,1046.80,3185.34,909.56,2439.00,1142.00
1674,1047.07,3187.73,995.92,2395.00,1114.00
1676,1047.33,3190.12,785.23,2393.00,1140.00
1678,1047.59,3192.51,880.31,2412.00,1148.00
1680,1047.85,3194.90,439.48,2416.00,1190.00
1682,1048.11,3197.29,524.95,2412.00,1182.00
1684,1048.38,3199.67,823.39,2392.00,1144.00
1686,1048.64,3202.05,620.60,2399.00,1175.00
1688,1048.90,3204.43,478.71,2346.00,1137.00
1690,1049.16,3206.80,604.17,2350.00,1133.00
1692,1049.42,3209.17,434.77,2355.00,1159.00
1694,1049.68,3211.54,210.97,2281.00,1110.00
1696,1049.94,3213.91,332.16,2316.00,1139.00
1698,1050.20,3216.27,50.73,2297.00,1148.00
1700,1050.46,3218.63,526.69,2369.00,1180.00
1702,1050.72,3220.99,117.18,2289.00,1142.00
1704,1050.98,3223.35,242.64,2308.00,1152.00
1706,1051.24,3225.70,281.29,2285.00,1133.00
1708,1051.50,3228.05,405.24,2262.00,1112.00
1710,1051.76,3230.40,294.39,2308.00,1175.00
1712,1052.02,3232.75,266.91,2283.00,1154.00
1714,1052.28,3235.09,237.65,2317.00,1184.00
1716,1052.54,3237.43,34.31,2247.00,1142.00
1718,1052.80,3239.77,0.00,2228.00,1137.00
1720,1053.06,3242.11,434.37,2268.00,1142.00
1722,1053.32,3244.44,1042.24,2249.00,1101.00
1724,1053.58,3246.77,891.53,2314.00,1180.00
1726,1053.84,3249.10,441.76,2245.00,1144.00
1728,1054.10,3251.42,754.72,2270.00,1150.00
1730,1054.35,3253.75,1071.32,2249.00,1125.00
1732,1054.61,3256.07,1274.62,2274.00,1161.00
1734,1054.87,3258.39,2227.93,2297.00,1137.00
1736,1055.13,3260.70,1780.35,2247.00,1125.00
1738,1055.38,3263.01,2253.33,2283.00,1135.00
1740,1055.64,3265.32,2742.57,2312.00,1140.00
1742,1055.90,3267.63,2475.33,2253.00,1114.00
1744,1056.16,3269.94,2937.76,2342.00,1186.00
1746,1056.41,3272.24,3760.58,2388.00,1188.00
1748,1056.67,3274.54,3818.04,2355.00,1156.00
1750,1056.93,3276.84,4633.33,2407.00,1154.00
1752,1057.18,3279.13,5575.42,2430.00,1127.00
1754,1057.44,3281.42,7012.45,2488.00,1116.00
1756,1057.69,3283.71,9357.42,2621.00,1127.00
1758,1057.95,3286.00,10893.10,2762.00,1201.00
1760,1058.21,3288.28,12983.10,2777.00,1118.00
1762,1058.46,3290.57,14858.95,2908.00,1171.00
1764,1058.72,3292.85,15562.68,2902.00,1156.00
1766,1058.97,3295.12,16003.40,2868.00,1120.00
1768,1059.23,3297.40,15473.07,2822.00,1116.00
1770,1059.48,3299.67,13057.78,2728.00,1159.00
1772,1059.74,3301.94,11640.98,2597.00,1102.00
1774,1059.99,3304.21,9052.85,2515.00,1173.00
1776,1060.25,3306.47,7303.18,2411.00,1184.00
1778,1060.50,3308.73,6620.20,2289.00,1120.00
1780,1060.76,3310.99,5658.50,2228.00,1137.00
1782,1061.01,3313.25,5298.15,2204.00,1150.00
1784,1061.26,3315.50,4468.67,2145.00,1144.00
1786,1061.52,3317.76,3288.54,2111.00,1182.00
1788,1061.77,3320.01,3639.77,2111.00,1173.00
1790,1062.02,3322.25,2954.30,1993.00,1118.00
1792,1062.28,3324.50,3880.55,2019.00,1116.00
1794,1062.53,3326.74,3673.91,1993.00,1106.00
1796,1062.78,3328.98,2479.32,1959.00,1135.00
1798,1063.04,3331.22,2845.36,1962.00,1123.00
1800,1063.29,3333.45,2510.37,1942.00,1133.00
1802,1063.54,3335.68,2604.14,1942.00,1137.00
1804,1063.79,3337.91,3157.92,1997.00,1167.00
1806,1064.05,3340.14,3560.66,2042.00,1199.00
1808,1064.30,3342.36,4964.84,2002.00,1108.00
1810,1064.55,3344.59,6652.34,2105.00,1169.00
1812,1064.80,3346.81,8087.66,2095.00,1129.00
1814,1065.05,3349.02,8505.35,2118.00,1137.00
1816,1065.30,3351.24,6442.50,2073.00,1165.00
1818,1065.55,3353.45,5812.48,2025.00,1135.00
1820,1065.81,3355.66,5822.50,2084.00,1205.00
1822,1066.06,3357.87,6052.52,2006.00,1148.00
1824,1066.31,3360.07,6296.42,1953.00,1116.00
1826,1066.56,3362.27,6117.72,1981.00,1163.00
1828,1066.81,3364.47,5350.80,1909.00,1112.00
1830,1067.06,3366.67,3162.44,1847.00,1140.00
1832,1067.31,3368.87,2036.50,1778.00,1133.00
1834,1067.56,3371.06,2001.62,1725.00,1097.00
1836,1067.81,3373.25,2022.93,1718.00,1097.00
1838,1068.06,3375.44,1198.09,1691.00,1104.00
1840,1068.31,3377.62,384.80,1659.00,1118.00
1842,1068.56,3379.81,245.00,1630.00,1106.00
1844,1068.80,3381.99,1365.95,1740.00,1184.00
1846,1069.05,3384.16,852.03,1668.00,1146.00
1848,1069.30,3386.34,824.82,1653.00,1135.00
1850,1069.55,3388.51,925.15,1644.00,1108.00
1852,1069.80,3390.68,132.93,1617.00,1133.00
1854,1070.05,3392.85,278.43,1687.00,1203.00
1856,1070.30,3395.02,1070.08,1623.00,1125.00
1858,1070.54,3397.18,1061.73,1570.00,1089.00
1860,1070.79,3399.34,347.20,1587.00,1131.00
1862,1071.04,3401.50,458.31,1579.00,1116.00
1864,1071.29,3403.66,314.02,1532.00,1082.00
1866,1071.53,3405.81,298.30,1579.00,1142.00
1868,1071.78,3407.96,461.18,1568.00,1137.00
1870,1072.03,3410.11,739.30,1571.00,1142.00
1872,1072.27,3412.26,1452.10,1571.00,1125.00
1874,1072.52,3414.40,383.70,1526.00,1116.00
1876,1072.77,3416.54,184.23,1530.00,1133.00
1878,1073.01,3418.68,282.18,1552.00,1158.00
1880,1073.26,3420.82,1493.70,1499.00,1074.00
1882,1073.51,3422.96,2132.44,1547.00,1120.00
1884,1073.75,3425.09,1203.26,1545.00,1148.00
1886,1074.00,3427.22,814.54,1469.00,1085.00
1888,1074.24,3429.35,999.95,1547.00,1159.00
1890,1074.49,3431.47,293.50,1480.00,1127.00
1892,1074.73,3433.59,1500.57,1467.00,1085.00
1894,1074.98,3435.71,2222.93,1562.00,1169.00
1896,1075.22,3437.83,1344.48,1505.00,1139.00
1898,1075.47,3439.95,846.35,1497.00,1148.00
1900,1075.71,3442.06,1062.54,1509.00,1156.00
1902,1075.96,3444.17,1126.19,1469.00,1123.00
1904,1076.20,3446.28,1307.99,1378.00,1038.00
1906,1076.44,3448.38,1998.85,1530.00,1180.00
1908,1076.69,3450.49,1911.04,1486.00,1140.00
1910,1076.93,3452.59,768.76,1446.00,1135.00
1912,1077.17,3454.69,1713.68,1437.00,1099.00
1914,1077.42,3456.79,2137.48,1471.00,1129.00
1916,1077.66,3458.88,1452.24,1425.00,1114.00
1918,1077.90,3460.97,2820.47,1439.00,1101.00
1920,1078.15,3463.06,1620.53,1465.00,1161.00
1922,1078.39,3465.15,767.17,1416.00,1137.00
1924,1078.63,3467.23,830.73,1355.00,1078.00
1926,1078.87,3469.32,1913.54,1440.00,1139.00
1928,1079.12,3471.40,1443.13,1389.00,1108.00
1930,1079.36,3473.47,753.00,1458.00,1199.00
1932,1079.60,3475.55,1235.44,1374.00,1104.00
1934,1079.84,3477.62,787.18,1397.00,1146.00
1936,1080.08,3479.69,935.78,1357.00,1110.00
1938,1080.33,3481.76,1507.96,1344.00,1091.00
1940,1080.57,3483.83,1443.81,1376.00,1125.00
1942,1080.81,3485.89,1043.04,1380.00,1135.00
1944,1081.05,3487.95,208.77,1385.00,1169.00
1946,1081.29,3490.01,0.00,1345.00,1144.00
1948,1081.53,3492.07,1111.35,1345.00,1116.00
1950,1081.77,3494.12,1116.13,1336.00,1116.00
1952,1082.01,3496.18,2052.77,1385.00,1150.00
1954,1082.25,3498.23,1347.98,1313.00,1091.00
1956,1082.49,3500.27,1164.05,1338.00,1118.00
1958,1082.73,3502.32,1019.69,1311.00,1097.00
1960,1082.97,3504.36,648.47,1345.00,1148.00
1962,1083.21,3506.40,1273.25,1306.00,1102.00
1964,1083.45,3508.44,1616.09,1285.00,1080.00
1966,1083.69,3510.48,1154.78,1372.00,1178.00
1968,1083.93,3512.51,1567.72,1332.00,1129.00
1970,1084.16,3514.54,433.25,1296.00,1121.00
1972,1084.40,3516.57,937.68,1302.00,1118.00
1974,1084.64,3518.60,755.89,1283.00,1108.00
1976,1084.88,3520.62,1685.46,1340.00,1150.00
1978,1085.12,3522.65,596.03,1347.00,1182.00
1980,1085.36,3524.67,696.90,1296.00,1131.00
1982,1085.59,3526.68,1066.60,1277.00,1106.00
1984,1085.83,3528.70,1182.23,1319.00,1148.00
1986,1086.07,3530.71,811.51,1254.00,1095.00
1988,1086.31,3532.72,1688.64,1317.00,1146.00
1990,1086.54,3534.73,1427.01,1254.00,1093.00
1992,1086.78,3536.74,1340.18,1325.00,1167.00
1994,1087.02,3538.74,1053.93,1292.00,1139.00
1996,1087.25,3540.74,1102.70,1235.00,1082.00
1998,1087.49,3542.74,658.47,1271.00,1131.00
2000,1087.73,3544.74,662.87,1251.00,1114.00
2002,1087.96,3546.74,1225.89,1266.00,1120.00
2004,1088.20,3548.73,611.26,1298.00,1167.00
2006,1088.43,3550.72,1965.98,1277.00,1125.00
2008,1088.67,3552.71,641.15,1241.00,1116.00
2010,1088.90,3554.69,1348.99,1216.00,1082.00
2012,1089.14,3556.68,1820.74,1266.00,1125.00
2014,1089.38,3558.66,0.00,1196.00,1093.00
2016,1089.61,3560.64,1077.54,1218.00,1089.00
2018,1089.84,3562.62,163.60,1252.00,1144.00
2020,1090.08,3564.59,322.96,1213.00,1104.00
2022,1090.31,3566.56,2080.86,1226.00,1091.00
2024,1090.55,3568.53,143.13,1199.00,1097.00
2026,1090.78,3570.50,1715.72,1192.00,1068.00
2028,1091.02,3572.47,555.23,1199.00,1093.00
2030,1091.25,3574.43,0.00,1171.00,1082.00
2032,1091.48,3576.39,1249.76,1144.00,1025.00
2034,1091.72,3578.35,1253.08,1163.00,1047.00
2036,1091.95,3580.31,1759.85,1192.00,1072.00
2038,1092.18,3582.26,960.10,1152.00,1046.00
2040,1092.42,3584.22,731.99,1146.00,1044.00
2042,1092.65,3586.17,258.61,1161.00,1066.00
2044,1092.88,3588.12,143.93,1139.00,1046.00
2046,1093.11,3590.06,0.00,1133.00,1051.00
2047,1093.23,3591.03,464.07,1131.00,1023.00