File: plugins/Raman/MatchingLibrary/785X/benzyl alcohol.csv
ENLIGHTEN Version,4.1.22
Measurement ID,20250220-195538-746734-WP-01977
Serial Number,WP-01977
Model,WP-785X-F13-R-ILC
Detector,S16011-1106
Label,benzyl alcohol
Declared Match,
Declared Score,0
Scan Averaging,10
Boxcar,0
Technique,Raman
Baseline Correction Algo,AirPLS
ROI Pixel Start,47
ROI Pixel End,2047
ROI Start Line,0
ROI Stop Line,63
CCD C4,1.38617e-12
Slit Width,25
Cropped,True
Interpolated,False
Wavenumber Correction,-0.100481
Raman Intensity Corrected,True
Deconvolved,True
Region,
High Gain Mode,False
Laser Power mW,
Electrical Dark Correction,False
Battery %,
Device ID,<DeviceID USB:0x24aa:0x1000:0:1>
FW Version,10.0.0.10
FPGA Version,035-001
BLE Version,
Prefix,enlighten
Suffix,
Preset,
Auto-Raman,True
Session Count,0
Plugin Name,
Integration Time,78
Timestamp,2025-02-20 19:55:38.7467
Note,
Temperature,0
CCD C0,793.274
CCD C1,0.153259
CCD C2,1.40788e-05
CCD C3,-1.132e-08
CCD Offset,0
CCD Gain,1.9
CCD Offset Odd,0
CCD Gain Odd,1.9
Laser Wavelength,785.032
Laser Enable,False
Laser Power %,0
Laser Temperature,0
Pixel Count,2048

Pixel,Wavelength,Wavenumber,Processed,Raw,Dark
0,793.27,132.25,NA,869.80,859.70
2,793.58,137.12,NA,873.00,863.70
4,793.89,141.99,NA,867.40,860.30
6,794.19,146.86,NA,870.40,862.00
8,794.50,151.72,NA,870.70,863.80
10,794.81,156.58,NA,871.80,863.20
12,795.12,161.44,NA,868.60,859.00
14,795.42,166.30,NA,872.00,856.50
16,795.73,171.16,NA,872.00,860.70
18,796.04,176.01,NA,877.40,863.90
20,796.35,180.86,NA,875.20,865.60
22,796.65,185.71,NA,881.40,867.30
24,796.96,190.56,NA,875.30,862.00
26,797.27,195.41,NA,877.70,864.30
28,797.58,200.25,NA,880.20,863.50
30,797.88,205.09,NA,879.60,864.50
32,798.19,209.93,NA,879.70,864.50
34,798.50,214.77,NA,881.50,862.60
36,798.81,219.60,NA,888.80,861.70
38,799.12,224.43,NA,907.90,864.80
40,799.43,229.27,NA,1012.10,864.70
42,799.74,234.09,NA,1397.40,863.60
44,800.04,238.92,NA,1948.90,871.40
46,800.35,243.75,NA,2101.00,865.00
48,800.66,248.57,280.85,2038.00,864.40
50,800.97,253.39,144.33,1936.40,869.60
52,801.28,258.21,82.77,1851.40,868.90
54,801.59,263.02,56.37,1788.40,869.40
56,801.90,267.83,43.48,1738.30,866.00
58,802.21,272.65,24.22,1693.70,868.20
60,802.52,277.46,6.41,1641.20,865.90
62,802.83,282.26,0.00,1607.30,869.80
64,803.14,287.07,0.01,1585.10,868.80
66,803.45,291.87,0.00,1556.30,868.20
68,803.76,296.67,0.00,1524.40,870.80
70,804.07,301.47,0.00,1499.00,866.10
72,804.38,306.26,0.00,1474.50,865.50
74,804.69,311.06,0.00,1455.50,866.60
76,805.00,315.85,0.00,1453.80,863.90
78,805.31,320.64,0.00,1440.40,865.50
80,805.62,325.42,0.00,1431.30,867.60
82,805.93,330.21,0.00,1431.90,865.80
84,806.24,334.99,0.11,1433.60,864.50
86,806.55,339.77,9.73,1445.40,862.60
88,806.86,344.55,40.62,1475.30,867.60
90,807.17,349.32,65.54,1504.20,865.60
92,807.48,354.10,81.58,1522.10,864.80
94,807.80,358.87,95.09,1541.90,869.20
96,808.11,363.63,122.78,1571.70,866.80
98,808.42,368.40,138.32,1592.40,865.30
100,808.73,373.16,174.81,1634.70,864.50
102,809.04,377.93,208.20,1676.60,864.30
104,809.35,382.68,255.24,1741.80,862.60
106,809.66,387.44,304.49,1825.10,869.10
108,809.98,392.19,412.22,1966.90,863.50
110,810.29,396.95,536.24,2151.00,868.20
112,810.60,401.70,724.52,2398.00,866.10
114,810.91,406.44,911.73,2621.90,866.90
116,811.22,411.19,961.32,2673.60,866.70
118,811.54,415.93,838.37,2519.80,865.00
120,811.85,420.67,625.45,2246.40,864.90
122,812.16,425.41,424.41,1969.10,865.90
124,812.47,430.14,288.18,1764.60,866.60
126,812.79,434.87,231.29,1656.50,862.40
128,813.10,439.60,196.33,1590.30,862.30
130,813.41,444.33,168.74,1553.50,864.60
132,813.72,449.06,176.67,1566.30,863.20
134,814.04,453.78,222.31,1638.00,867.80
136,814.35,458.50,352.98,1804.20,860.00
138,814.66,463.22,488.78,1990.70,862.80
140,814.98,467.93,613.70,2190.90,864.60
142,815.29,472.65,756.11,2426.20,869.10
144,815.60,477.36,973.17,2719.70,863.80
146,815.92,482.06,1206.71,2976.10,862.00
148,816.23,486.77,1209.02,2929.90,865.90
150,816.54,491.47,829.18,2475.90,870.40
152,816.86,496.17,397.09,1895.50,864.30
154,817.17,500.87,176.71,1534.70,868.30
156,817.48,505.57,84.43,1347.10,863.70
158,817.80,510.26,43.38,1256.60,859.10
160,818.11,514.95,10.17,1208.80,865.20
162,818.42,519.64,0.03,1178.00,867.20
164,818.74,524.32,0.00,1164.20,864.30
166,819.05,529.00,0.00,1152.90,864.60
168,819.37,533.68,0.00,1145.40,865.50
170,819.68,538.36,0.00,1144.90,866.00
172,819.99,543.04,0.00,1138.50,865.90
174,820.31,547.71,0.00,1136.30,864.80
176,820.62,552.38,0.00,1138.50,862.10
178,820.94,557.05,0.53,1149.00,862.80
180,821.25,561.71,7.46,1155.40,861.40
182,821.57,566.37,18.98,1178.80,865.10
184,821.88,571.03,35.57,1208.60,864.40
186,822.20,575.69,59.56,1256.00,864.80
188,822.51,580.34,105.58,1336.90,863.70
190,822.83,584.99,197.16,1493.80,863.10
192,823.14,589.64,364.89,1730.90,867.20
194,823.46,594.29,524.44,1909.90,863.10
196,823.77,598.93,474.05,1879.10,864.40
198,824.09,603.57,337.94,1776.50,860.70
200,824.40,608.21,358.68,1984.60,864.60
202,824.72,612.85,881.85,3041.30,866.40
204,825.03,617.48,2857.84,5269.20,867.00
206,825.35,622.11,3450.47,5734.50,868.30
208,825.66,626.74,1182.89,3507.30,865.10
210,825.98,631.36,306.25,1957.90,863.40
212,826.29,635.99,156.52,1491.50,865.00
214,826.61,640.61,104.01,1341.50,863.00
216,826.92,645.22,71.17,1278.80,860.90
218,827.24,649.84,61.42,1254.90,861.00
220,827.56,654.45,42.78,1234.30,868.60
222,827.87,659.06,19.82,1195.50,863.10
224,828.19,663.67,4.31,1176.30,863.70
226,828.50,668.27,0.00,1166.50,872.40
228,828.82,672.87,0.00,1162.40,865.20
230,829.13,677.47,0.09,1164.90,862.80
232,829.45,682.06,0.00,1160.20,863.00
234,829.77,686.66,0.00,1165.80,867.60
236,830.08,691.25,5.22,1206.90,862.40
238,830.40,695.83,57.17,1272.20,863.20
240,830.72,700.42,112.16,1332.50,862.20
242,831.03,705.00,71.40,1294.90,858.40
244,831.35,709.58,18.10,1238.80,862.70
246,831.66,714.15,2.27,1206.50,859.80
248,831.98,718.73,4.06,1219.30,863.10
250,832.30,723.30,26.74,1267.20,860.00
252,832.61,727.87,90.60,1385.50,865.30
254,832.93,732.43,208.25,1579.30,856.70
256,833.25,736.99,377.78,1885.20,865.40
258,833.56,741.55,622.63,2310.10,861.60
260,833.88,746.11,974.16,2847.60,866.00
262,834.20,750.66,1346.27,3285.30,862.60
264,834.51,755.22,1264.16,3176.70,864.60
266,834.83,759.76,759.65,2566.40,867.40
268,835.15,764.31,404.84,2022.90,865.40
270,835.47,768.85,304.62,1815.80,860.80
272,835.78,773.39,337.71,1863.00,863.10
274,836.10,777.93,478.13,2139.00,862.60
276,836.42,782.46,791.47,2774.80,860.90
278,836.73,787.00,1516.76,4054.10,860.20
280,837.05,791.52,2840.64,5981.70,862.80
282,837.37,796.05,3981.73,7571.70,864.90
284,837.69,800.57,4103.81,8009.20,862.80
286,838.00,805.09,3828.64,7883.60,860.90
288,838.32,809.61,3846.86,7897.00,865.30
290,838.64,814.13,4176.07,8030.40,867.60
292,838.95,818.64,3807.36,7286.20,864.60
294,839.27,823.15,2307.43,5295.20,860.40
296,839.59,827.65,1120.44,3472.30,864.40
298,839.91,832.15,614.60,2491.50,861.90
300,840.22,836.65,415.90,2073.60,868.20
302,840.54,841.15,398.27,1967.70,861.30
304,840.86,845.65,429.65,1955.20,865.40
306,841.18,850.14,323.73,1808.80,866.90
308,841.50,854.63,167.78,1601.30,868.80
310,841.81,859.11,73.97,1438.60,864.30
312,842.13,863.60,46.58,1377.10,864.10
314,842.45,868.07,42.03,1353.90,860.50
316,842.77,872.55,28.43,1337.60,866.50
318,843.08,877.03,7.78,1317.30,867.00
320,843.40,881.50,0.19,1294.30,861.30
322,843.72,885.97,1.52,1305.00,864.00
324,844.04,890.43,4.34,1306.40,860.20
326,844.36,894.89,28.19,1355.40,863.10
328,844.67,899.35,74.64,1423.70,866.20
330,844.99,903.81,117.85,1478.80,860.10
332,845.31,908.26,118.25,1492.70,864.60
334,845.63,912.71,115.10,1477.00,865.20
336,845.95,917.16,78.81,1423.60,865.40
338,846.27,921.61,13.22,1386.90,907.00
340,846.58,926.05,0.03,1296.50,860.80
342,846.90,930.49,0.00,1283.50,864.90
344,847.22,934.92,0.00,1283.00,864.50
346,847.54,939.36,0.00,1289.50,858.90
348,847.86,943.79,0.12,1313.90,862.20
350,848.18,948.21,13.67,1353.10,861.90
352,848.49,952.64,50.11,1407.90,862.90
354,848.81,957.06,101.73,1495.30,859.10
356,849.13,961.48,164.30,1616.10,865.30
358,849.45,965.89,271.72,1788.30,866.50
360,849.77,970.31,360.51,1939.00,861.90
362,850.09,974.71,452.35,2148.00,860.80
364,850.40,979.12,626.94,2520.00,864.80
366,850.72,983.52,1117.67,3329.10,870.20
368,851.04,987.92,1856.52,4929.70,862.60
370,851.36,992.32,2447.95,8100.40,860.20
372,851.68,996.72,7943.30,20004.10,862.50
374,852.00,1001.11,30358.58,42820.90,864.80
376,852.32,1005.50,25070.22,38557.50,861.50
378,852.63,1009.88,5216.00,15517.60,871.10
380,852.95,1014.26,1597.52,6398.90,863.70
382,853.27,1018.64,1538.24,5072.90,865.80
384,853.59,1023.02,3022.27,7094.80,863.70
386,853.91,1027.39,6456.48,10914.30,862.20
388,854.23,1031.76,6593.36,11078.80,861.70
390,854.55,1036.13,3225.18,7352.60,862.20
392,854.87,1040.49,1523.10,4481.00,859.50
394,855.18,1044.86,956.91,3146.10,864.50
396,855.50,1049.21,574.08,2372.80,863.00
398,855.82,1053.57,316.27,1925.80,862.20
400,856.14,1057.92,159.21,1645.40,863.80
402,856.46,1062.27,99.87,1528.70,861.90
404,856.78,1066.62,68.87,1473.10,860.60
406,857.10,1070.96,95.46,1522.60,861.70
408,857.42,1075.30,173.04,1634.60,864.70
410,857.74,1079.64,286.43,1743.40,864.30
412,858.06,1083.97,225.25,1669.70,861.60
414,858.37,1088.30,58.84,1481.50,859.20
416,858.69,1092.63,2.35,1363.50,860.20
418,859.01,1096.95,0.00,1319.80,859.00
420,859.33,1101.27,0.00,1328.60,860.80
422,859.65,1105.59,0.00,1328.20,863.50
424,859.97,1109.91,0.21,1327.90,860.80
426,860.29,1114.22,0.00,1313.90,861.50
428,860.61,1118.53,0.00,1308.40,860.80
430,860.93,1122.84,0.00,1324.10,861.70
432,861.25,1127.14,0.17,1353.10,865.30
434,861.56,1131.44,20.54,1401.80,861.00
436,861.88,1135.74,65.08,1475.40,861.80
438,862.20,1140.03,125.66,1614.80,862.70
440,862.52,1144.32,234.03,1889.90,861.60
442,862.84,1148.61,533.82,2524.60,864.20
444,863.16,1152.89,1458.50,3760.10,861.70
446,863.48,1157.17,2284.73,4622.20,862.90
448,863.80,1161.45,1610.44,4108.30,860.90
450,864.12,1165.73,1048.09,3539.40,863.60
452,864.44,1170.00,1326.40,3911.20,862.10
454,864.76,1174.27,2185.88,4847.20,863.00
456,865.07,1178.53,2482.35,5178.00,861.30
458,865.39,1182.80,1872.88,4617.40,863.90
460,865.71,1187.06,1464.89,4162.60,862.30
462,866.03,1191.31,1603.41,4376.70,865.00
464,866.35,1195.57,2179.61,5265.00,861.80
466,866.67,1199.82,2986.76,6588.60,865.30
468,866.99,1204.06,4120.10,8165.90,865.00
470,867.31,1208.31,5173.21,9212.10,865.40
472,867.63,1212.55,4392.46,8214.80,861.40
474,867.95,1216.79,2292.35,5641.80,860.30
476,868.27,1221.02,1101.10,3717.90,862.40
478,868.58,1225.25,703.07,2836.60,860.80
480,868.90,1229.48,540.58,2453.60,866.20
482,869.22,1233.71,417.81,2231.00,864.80
484,869.54,1237.93,312.21,2065.40,865.50
486,869.86,1242.15,237.99,1942.70,863.40
488,870.18,1246.36,180.40,1844.20,860.20
490,870.50,1250.58,131.88,1771.90,863.30
492,870.82,1254.79,67.32,1686.70,867.00
494,871.14,1258.99,28.41,1631.20,863.20
496,871.46,1263.20,14.88,1615.90,866.60
498,871.78,1267.40,22.86,1623.00,861.30
500,872.10,1271.59,51.14,1663.60,862.00
502,872.41,1275.79,86.54,1704.20,858.60
504,872.73,1279.98,113.09,1739.30,862.70
506,873.05,1284.17,89.04,1717.70,863.40
508,873.37,1288.35,59.38,1676.30,858.40
510,873.69,1292.53,62.36,1685.40,863.10
512,874.01,1296.71,83.41,1709.00,861.90
514,874.33,1300.88,107.29,1731.20,859.00
516,874.65,1305.06,111.63,1741.50,861.00
518,874.97,1309.22,91.00,1716.20,860.70
520,875.29,1313.39,87.80,1713.10,861.70
522,875.60,1317.55,75.82,1698.10,864.20
524,875.92,1321.71,81.37,1703.70,862.80
526,876.24,1325.87,95.08,1722.60,861.60
528,876.56,1330.02,112.49,1741.60,861.90
530,876.88,1334.17,133.85,1767.20,862.20
532,877.20,1338.32,112.97,1745.70,860.80
534,877.52,1342.46,106.53,1741.30,859.10
536,877.84,1346.60,113.21,1756.20,862.50
538,878.16,1350.73,145.58,1803.10,860.90
540,878.47,1354.87,198.25,1887.10,861.00
542,878.79,1359.00,257.23,1983.30,860.30
544,879.11,1363.13,365.25,2130.90,862.80
546,879.43,1367.25,450.59,2229.40,862.20
548,879.75,1371.37,443.00,2222.00,858.10
550,880.07,1375.49,363.57,2135.50,862.90
552,880.39,1379.60,304.80,2054.20,862.00
554,880.71,1383.71,265.96,1990.70,862.20
556,881.03,1387.82,261.15,1971.00,860.40
558,881.34,1391.93,273.70,1973.20,856.70
560,881.66,1396.03,269.59,1965.90,861.70
562,881.98,1400.13,243.76,1934.50,864.40
564,882.30,1404.22,208.98,1886.40,864.30
566,882.62,1408.31,198.90,1861.00,859.70
568,882.94,1412.40,183.75,1839.90,864.00
570,883.26,1416.49,172.93,1819.00,861.10
572,883.57,1420.57,164.59,1806.90,862.40
574,883.89,1424.65,158.28,1798.40,859.70
576,884.21,1428.73,171.93,1821.30,863.00
578,884.53,1432.80,199.72,1862.90,863.50
580,884.85,1436.87,237.04,1928.80,861.30
582,885.17,1440.93,306.74,2058.20,858.70
584,885.49,1445.00,452.00,2317.40,860.00
586,885.80,1449.06,733.16,2734.60,861.90
588,886.12,1453.11,1189.88,3307.80,866.70
590,886.44,1457.17,1469.96,3656.10,863.40
592,886.76,1461.22,1476.82,3693.20,860.60
594,887.08,1465.26,1306.36,3481.80,864.00
596,887.40,1469.31,1013.63,3074.90,857.40
598,887.71,1473.35,720.54,2654.50,858.60
600,888.03,1477.38,475.91,2302.00,862.90
602,888.35,1481.42,292.27,2029.90,863.70
604,888.67,1485.45,207.31,1898.70,865.60
606,888.99,1489.48,201.20,1869.80,859.00
608,889.31,1493.50,282.48,1935.70,863.60
610,889.62,1497.52,343.55,1965.90,860.30
612,889.94,1501.54,186.21,1815.00,859.30
614,890.26,1505.56,70.35,1665.90,861.80
616,890.58,1509.57,34.73,1594.00,861.90
618,890.90,1513.57,23.76,1560.50,859.70
620,891.21,1517.58,11.10,1542.50,862.80
622,891.53,1521.58,1.11,1526.00,863.10
624,891.85,1525.58,0.34,1521.50,860.00
626,892.17,1529.57,0.00,1521.20,865.80
628,892.49,1533.57,0.00,1514.10,861.60
630,892.80,1537.56,0.65,1517.30,859.20
632,893.12,1541.54,3.29,1519.30,861.90
634,893.44,1545.52,21.22,1540.30,862.60
636,893.76,1549.50,29.49,1545.90,857.00
638,894.07,1553.48,49.74,1582.50,862.70
640,894.39,1557.45,78.41,1619.00,859.80
642,894.71,1561.42,131.89,1696.60,859.60
644,895.03,1565.39,195.28,1788.40,858.20
646,895.34,1569.35,301.41,1967.30,866.30
648,895.66,1573.31,444.27,2257.00,860.40
650,895.98,1577.26,753.43,2861.90,860.90
652,896.30,1581.22,1689.22,4056.10,859.00
654,896.61,1585.17,3285.77,5506.60,861.50
656,896.93,1589.11,2865.71,5332.40,863.00
658,897.25,1593.06,1817.38,4538.40,861.40
660,897.57,1597.00,1987.87,4917.70,861.40
662,897.88,1600.93,3128.17,6250.80,865.20
664,898.20,1604.87,5159.58,8070.40,862.50
666,898.52,1608.80,5625.18,8342.00,861.60
668,898.84,1612.72,3102.48,6062.40,859.30
670,899.15,1616.65,1355.00,3888.50,864.50
672,899.47,1620.57,794.72,2805.80,859.90
674,899.79,1624.49,586.80,2324.00,861.30
676,900.10,1628.40,393.97,2014.30,859.90
678,900.42,1632.31,257.35,1821.90,863.70
680,900.74,1636.22,184.01,1696.90,856.70
682,901.05,1640.12,141.76,1633.80,867.20
684,901.37,1644.02,113.70,1581.40,861.30
686,901.69,1647.92,89.80,1544.50,861.80
688,902.00,1651.82,77.73,1519.40,861.00
690,902.32,1655.71,73.14,1503.20,859.70
692,902.64,1659.60,54.21,1472.60,858.60
694,902.95,1663.48,37.25,1451.00,859.90
696,903.27,1667.36,24.06,1431.10,858.40
698,903.59,1671.24,17.02,1423.10,866.50
700,903.90,1675.11,19.54,1413.00,861.50
702,904.22,1678.99,39.88,1435.40,859.40
704,904.54,1682.85,71.19,1477.70,864.60
706,904.85,1686.72,139.12,1550.60,860.20
708,905.17,1690.58,218.66,1630.20,861.10
710,905.49,1694.44,263.78,1673.80,858.70
712,905.80,1698.29,273.24,1681.70,861.40
714,906.12,1702.15,259.98,1647.70,862.20
716,906.43,1706.00,202.89,1573.70,861.10
718,906.75,1709.84,101.17,1457.80,863.80
720,907.07,1713.68,50.04,1375.20,862.10
722,907.38,1717.52,41.98,1340.10,859.70
724,907.70,1721.36,34.08,1312.20,858.10
726,908.01,1725.19,18.26,1289.70,861.40
728,908.33,1729.02,6.88,1267.00,860.30
730,908.65,1732.85,0.67,1249.00,863.20
732,908.96,1736.67,0.72,1240.00,863.40
734,909.28,1740.49,1.82,1229.00,859.00
736,909.59,1744.30,0.00,1217.50,862.90
738,909.91,1748.12,0.13,1211.20,859.90
740,910.22,1751.93,0.00,1202.10,859.90
742,910.54,1755.73,0.00,1202.80,868.80
744,910.85,1759.54,0.00,1190.30,865.20
746,911.17,1763.34,0.00,1183.80,859.80
748,911.49,1767.13,0.00,1177.60,863.40
750,911.80,1770.93,0.00,1172.60,858.80
752,912.12,1774.72,0.00,1172.90,861.70
754,912.43,1778.50,0.12,1169.90,858.70
756,912.75,1782.29,5.56,1173.20,857.60
758,913.06,1786.07,9.78,1172.20,858.20
760,913.38,1789.84,9.97,1172.20,859.10
762,913.69,1793.62,15.28,1177.50,862.00
764,914.01,1797.39,14.39,1172.30,861.20
766,914.32,1801.15,16.30,1173.10,861.00
768,914.64,1804.92,13.76,1164.10,858.70
770,914.95,1808.68,21.35,1169.90,859.60
772,915.26,1812.44,20.86,1170.20,862.90
774,915.58,1816.19,20.34,1160.00,856.60
776,915.89,1819.94,18.40,1159.80,861.50
778,916.21,1823.69,17.79,1156.00,859.70
780,916.52,1827.43,16.03,1154.20,865.90
782,916.84,1831.17,21.14,1146.40,856.90
784,917.15,1834.91,10.71,1137.60,859.80
786,917.47,1838.64,7.44,1133.30,863.00
788,917.78,1842.38,11.05,1131.50,861.80
790,918.09,1846.10,8.05,1123.80,860.40
792,918.41,1849.83,6.28,1120.70,861.30
794,918.72,1853.55,2.80,1111.70,859.90
796,919.04,1857.27,9.33,1116.50,859.80
798,919.35,1860.98,6.48,1108.50,858.10
800,919.66,1864.69,9.87,1109.50,857.70
802,919.98,1868.40,8.68,1109.30,862.30
804,920.29,1872.11,14.41,1108.10,858.80
806,920.60,1875.81,14.30,1104.80,857.50
808,920.92,1879.51,13.80,1103.40,859.30
810,921.23,1883.20,13.93,1103.70,861.60
812,921.55,1886.90,15.78,1099.30,858.00
814,921.86,1890.58,20.03,1103.40,861.40
816,922.17,1894.27,12.42,1093.70,862.80
818,922.49,1897.95,19.03,1096.70,861.90
820,922.80,1901.63,13.66,1088.90,862.10
822,923.11,1905.31,8.58,1082.00,862.60
824,923.42,1908.98,17.92,1087.40,861.70
826,923.74,1912.65,17.96,1083.40,861.80
828,924.05,1916.31,14.33,1079.30,860.70
830,924.36,1919.98,17.54,1079.70,859.40
832,924.68,1923.64,31.51,1090.40,859.90
834,924.99,1927.29,39.29,1093.90,858.80
836,925.30,1930.94,38.12,1091.20,859.60
838,925.61,1934.59,46.31,1098.90,861.80
840,925.93,1938.24,44.13,1091.10,859.50
842,926.24,1941.88,33.71,1081.70,862.00
844,926.55,1945.52,27.66,1073.80,861.80
846,926.86,1949.16,29.89,1069.80,859.50
848,927.18,1952.79,31.73,1068.60,860.10
850,927.49,1956.42,32.43,1066.60,858.30
852,927.80,1960.05,33.72,1075.20,869.20
854,928.11,1963.67,46.23,1073.80,859.70
856,928.42,1967.29,41.08,1071.60,864.10
858,928.74,1970.91,42.84,1067.30,859.10
860,929.05,1974.52,41.94,1060.90,857.90
862,929.36,1978.13,42.19,1058.00,858.70
864,929.67,1981.74,35.44,1050.10,859.00
866,929.98,1985.35,23.64,1038.60,861.80
868,930.29,1988.95,26.32,1036.20,860.00
870,930.61,1992.54,24.46,1027.20,856.80
872,930.92,1996.14,18.36,1022.40,859.50
874,931.23,1999.73,18.64,1022.80,863.00
876,931.54,2003.32,24.78,1023.30,861.60
878,931.85,2006.90,15.71,1012.90,861.00
880,932.16,2010.48,17.42,1011.30,860.10
882,932.47,2014.06,24.38,1014.10,859.20
884,932.78,2017.63,20.84,1011.20,861.20
886,933.09,2021.21,21.72,1007.80,859.60
888,933.41,2024.77,26.39,1012.10,863.10
890,933.72,2028.34,27.87,1009.20,862.50
892,934.03,2031.90,20.98,999.60,862.30
894,934.34,2035.46,13.90,990.40,860.70
896,934.65,2039.01,8.21,981.80,857.50
898,934.96,2042.57,4.26,978.90,862.70
900,935.27,2046.11,8.32,976.60,860.90
902,935.58,2049.66,3.52,964.50,856.40
904,935.89,2053.20,7.73,971.20,860.30
906,936.20,2056.74,3.11,965.50,860.70
908,936.51,2060.28,6.58,964.20,858.30
910,936.82,2063.81,6.41,965.40,863.30
912,937.13,2067.34,5.99,961.50,861.60
914,937.44,2070.86,6.66,957.00,859.00
916,937.75,2074.39,5.49,955.00,861.20
918,938.06,2077.91,8.94,953.60,857.90
920,938.37,2081.42,0.42,948.40,863.10
922,938.68,2084.94,2.63,945.20,859.10
924,938.99,2088.45,6.46,944.00,858.80
926,939.30,2091.95,0.00,941.50,864.00
928,939.60,2095.46,0.01,935.50,858.70
930,939.91,2098.96,0.00,936.40,862.10
932,940.22,2102.45,0.00,931.20,859.50
934,940.53,2105.95,2.02,931.90,859.00
936,940.84,2109.44,0.00,928.50,859.20
938,941.15,2112.92,0.16,931.90,861.90
940,941.46,2116.41,2.28,929.80,857.50
942,941.77,2119.89,7.72,936.90,863.30
944,942.07,2123.37,9.76,933.60,860.50
946,942.38,2126.84,8.45,933.80,861.10
948,942.69,2130.31,1.49,927.70,862.00
950,943.00,2133.78,0.52,922.90,859.70
952,943.31,2137.24,2.95,923.30,859.10
954,943.62,2140.70,3.95,924.50,860.60
956,943.92,2144.16,0.00,920.90,864.00
958,944.23,2147.62,0.35,922.70,862.60
960,944.54,2151.07,2.27,923.90,862.90
962,944.85,2154.52,0.00,921.00,863.80
964,945.16,2157.96,1.56,921.50,861.60
966,945.46,2161.40,0.00,919.70,862.00
968,945.77,2164.84,0.00,915.10,857.50
970,946.08,2168.28,0.05,919.10,861.30
972,946.39,2171.71,1.26,917.80,857.40
974,946.69,2175.14,5.79,923.70,861.10
976,947.00,2178.57,4.44,922.60,861.90
978,947.31,2181.99,10.93,926.30,859.80
980,947.61,2185.41,8.89,926.60,861.70
982,947.92,2188.82,12.96,929.90,860.00
984,948.23,2192.24,11.53,928.40,859.50
986,948.53,2195.65,21.35,938.80,861.10
988,948.84,2199.05,28.29,938.80,856.50
990,949.15,2202.46,47.56,955.30,860.60
992,949.45,2205.86,51.29,955.60,860.80
994,949.76,2209.25,33.40,942.80,858.70
996,950.07,2212.65,18.99,933.10,857.70
998,950.37,2216.04,6.64,924.20,859.50
1000,950.68,2219.43,2.14,919.70,861.50
1002,950.98,2222.81,5.62,922.60,862.30
1004,951.29,2226.19,9.26,921.00,859.10
1006,951.60,2229.57,10.84,922.10,858.10
1008,951.90,2232.94,14.18,924.30,856.80
1010,952.21,2236.32,13.66,924.90,859.20
1012,952.51,2239.68,22.69,931.50,861.40
1014,952.82,2243.05,18.15,924.00,855.30
1016,953.12,2246.41,7.43,925.20,863.70
1018,953.43,2249.77,10.91,928.30,864.60
1020,953.73,2253.12,9.66,924.70,863.40
1022,954.04,2256.48,6.04,916.00,857.60
1024,954.34,2259.83,11.11,924.40,862.60
1026,954.65,2263.17,13.07,919.70,857.70
1028,954.95,2266.51,7.52,919.90,861.30
1030,955.26,2269.85,5.68,919.60,862.30
1032,955.56,2273.19,2.02,915.30,861.90
1034,955.87,2276.52,4.84,917.50,862.60
1036,956.17,2279.85,3.02,918.10,863.10
1038,956.48,2283.18,0.43,909.80,857.30
1040,956.78,2286.50,0.00,910.20,860.40
1042,957.08,2289.82,0.20,908.40,856.90
1044,957.39,2293.14,0.00,910.60,859.50
1046,957.69,2296.45,0.00,909.50,857.90
1048,957.99,2299.76,0.00,915.70,864.90
1050,958.30,2303.07,2.40,919.20,862.80
1052,958.60,2306.38,13.22,925.80,859.20
1054,958.91,2309.68,29.50,934.50,859.50
1056,959.21,2312.98,44.19,942.10,858.70
1058,959.51,2316.27,34.84,941.20,862.80
1060,959.82,2319.56,33.99,943.80,864.00
1062,960.12,2322.85,16.23,927.00,858.30
1064,960.42,2326.14,10.27,924.50,860.40
1066,960.72,2329.42,9.71,921.80,859.30
1068,961.03,2332.70,5.58,921.50,861.10
1070,961.33,2335.97,0.75,918.90,861.00
1072,961.63,2339.25,0.00,915.10,860.30
1074,961.93,2342.52,0.00,916.20,860.20
1076,962.24,2345.78,4.49,920.80,858.90
1078,962.54,2349.05,7.16,922.90,860.70
1080,962.84,2352.31,10.60,925.70,859.70
1082,963.14,2355.56,10.93,925.50,858.90
1084,963.45,2358.82,15.69,929.00,858.60
1086,963.75,2362.07,12.03,929.60,861.70
1088,964.05,2365.32,19.63,935.00,862.20
1090,964.35,2368.56,5.01,929.40,864.10
1092,964.65,2371.80,0.00,924.20,865.00
1094,964.95,2375.04,1.55,924.50,860.90
1096,965.25,2378.27,3.43,925.20,859.70
1098,965.56,2381.51,6.52,929.00,861.40
1100,965.86,2384.73,8.18,929.80,860.50
1102,966.16,2387.96,8.58,930.20,858.50
1104,966.46,2391.18,7.30,935.50,863.40
1106,966.76,2394.40,13.08,937.90,861.60
1108,967.06,2397.62,21.95,944.50,862.60
1110,967.36,2400.83,26.55,947.50,861.30
1112,967.66,2404.04,31.88,956.40,865.70
1114,967.96,2407.25,45.63,957.50,858.20
1116,968.26,2410.45,50.87,965.30,861.20
1118,968.56,2413.65,47.85,962.50,858.30
1120,968.86,2416.85,54.39,973.20,865.40
1122,969.16,2420.04,67.28,975.20,859.70
1124,969.46,2423.23,67.31,975.70,858.70
1126,969.76,2426.42,65.79,978.40,861.10
1128,970.06,2429.60,63.15,975.00,858.60
1130,970.36,2432.79,68.89,979.20,859.00
1132,970.66,2435.96,69.08,980.20,860.00
1134,970.96,2439.14,72.60,983.70,861.10
1136,971.26,2442.31,77.05,987.90,862.50
1138,971.56,2445.48,74.95,986.10,861.10
1140,971.86,2448.65,68.38,981.50,861.40
1142,972.16,2451.81,78.18,985.50,861.40
1144,972.45,2454.97,65.99,980.10,861.80
1146,972.75,2458.13,38.43,967.20,862.70
1148,973.05,2461.28,27.64,958.90,861.30
1150,973.35,2464.43,32.21,961.50,862.30
1152,973.65,2467.58,25.47,955.40,860.20
1154,973.95,2470.72,22.94,956.10,861.50
1156,974.24,2473.86,24.92,955.70,859.40
1158,974.54,2477.00,22.04,952.30,858.10
1160,974.84,2480.13,31.67,961.20,861.40
1162,975.14,2483.27,21.74,955.60,861.70
1164,975.43,2486.40,34.49,958.50,857.10
1166,975.73,2489.52,23.39,956.80,861.70
1168,976.03,2492.64,19.38,953.00,859.60
1170,976.33,2495.76,10.80,951.20,861.90
1172,976.62,2498.88,1.97,945.50,861.30
1174,976.92,2501.99,0.44,946.90,863.40
1176,977.22,2505.10,2.35,948.80,863.20
1178,977.51,2508.21,2.82,946.50,860.80
1180,977.81,2511.31,1.60,943.90,858.70
1182,978.11,2514.41,2.17,946.60,860.00
1184,978.40,2517.51,0.00,945.50,860.90
1186,978.70,2520.61,5.22,952.30,861.60
1188,979.00,2523.70,9.76,955.10,863.90
1190,979.29,2526.79,14.83,952.20,858.60
1192,979.59,2529.87,7.75,953.30,861.80
1194,979.88,2532.95,5.35,952.00,860.20
1196,980.18,2536.03,0.00,952.10,863.60
1198,980.48,2539.11,1.38,953.70,863.20
1200,980.77,2542.18,1.92,954.40,863.00
1202,981.07,2545.25,1.77,954.40,862.10
1204,981.36,2548.32,11.04,960.00,860.40
1206,981.66,2551.38,25.51,965.80,861.20
1208,981.95,2554.44,25.46,966.00,860.60
1210,982.25,2557.50,30.88,975.10,865.40
1212,982.54,2560.56,37.36,978.50,864.40
1214,982.84,2563.61,42.51,982.20,864.20
1216,983.13,2566.66,62.47,993.60,865.20
1218,983.43,2569.70,84.66,999.60,861.00
1220,983.72,2572.74,80.45,1001.00,863.40
1222,984.01,2575.78,95.53,1009.50,862.90
1224,984.31,2578.82,97.56,1007.00,859.50
1226,984.60,2581.85,109.93,1015.70,861.90
1228,984.90,2584.88,122.92,1018.70,857.90
1230,985.19,2587.91,125.78,1023.00,860.20
1232,985.48,2590.93,139.22,1031.30,862.40
1234,985.78,2593.96,148.19,1033.00,859.40
1236,986.07,2596.97,141.77,1035.00,862.70
1238,986.36,2599.99,144.90,1042.40,867.50
1240,986.66,2603.00,155.84,1043.10,864.80
1242,986.95,2606.01,178.45,1050.50,865.30
1244,987.24,2609.01,184.57,1050.10,862.90
1246,987.54,2612.02,152.48,1033.20,858.60
1248,987.83,2615.02,133.10,1030.60,864.30
1250,988.12,2618.01,115.80,1021.00,863.70
1252,988.41,2621.01,97.26,1012.10,863.10
1254,988.71,2624.00,66.27,997.20,862.80
1256,989.00,2626.99,61.97,995.90,863.60
1258,989.29,2629.97,46.07,984.90,861.60
1260,989.58,2632.95,39.80,980.70,860.50
1262,989.87,2635.93,14.48,976.40,864.00
1264,990.16,2638.91,1.70,967.40,862.60
1266,990.46,2641.88,0.78,966.90,863.50
1268,990.75,2644.85,10.51,973.80,865.70
1270,991.04,2647.81,11.85,971.40,863.30
1272,991.33,2650.78,4.21,967.40,861.80
1274,991.62,2653.74,19.01,974.00,860.80
1276,991.91,2656.70,13.02,971.10,862.30
1278,992.20,2659.65,23.13,975.30,862.20
1280,992.49,2662.60,25.54,974.60,859.80
1282,992.78,2665.55,17.82,978.40,867.20
1284,993.07,2668.50,15.67,975.20,864.20
1286,993.36,2671.44,1.38,971.90,866.70
1288,993.65,2674.38,0.00,967.80,866.30
1290,993.94,2677.31,0.00,968.30,864.20
1292,994.23,2680.25,0.00,966.30,862.70
1294,994.52,2683.18,0.36,970.90,863.60
1296,994.81,2686.10,0.00,970.30,863.10
1298,995.10,2689.03,0.48,973.50,862.80
1300,995.39,2691.95,8.30,981.30,863.50
1302,995.68,2694.87,37.56,992.00,864.00
1304,995.97,2697.78,45.12,997.70,865.80
1306,996.26,2700.70,59.21,1002.10,861.00
1308,996.55,2703.61,76.22,1011.20,862.70
1310,996.84,2706.51,89.32,1018.50,863.40
1312,997.13,2709.42,82.07,1018.10,862.90
1314,997.41,2712.32,110.78,1032.30,864.20
1316,997.70,2715.21,142.90,1042.90,863.10
1318,997.99,2718.11,158.75,1048.70,863.70
1320,998.28,2721.00,165.08,1049.20,861.70
1322,998.57,2723.89,169.50,1057.30,866.40
1324,998.86,2726.77,137.03,1043.60,862.40
1326,999.14,2729.66,128.67,1042.80,862.70
1328,999.43,2732.54,100.83,1036.30,865.50
1330,999.72,2735.41,86.55,1027.40,861.80
1332,1000.01,2738.29,69.45,1024.00,866.80
1334,1000.29,2741.16,64.97,1018.00,860.90
1336,1000.58,2744.03,15.72,1006.10,859.60
1338,1000.87,2746.89,1.38,1006.40,863.30
1340,1001.15,2749.75,0.00,1000.20,862.90
1342,1001.44,2752.61,0.00,998.20,861.60
1344,1001.73,2755.47,0.00,997.90,862.80
1346,1002.01,2758.32,0.00,999.10,861.70
1348,1002.30,2761.17,0.00,1007.90,863.10
1350,1002.59,2764.02,0.00,1010.50,866.20
1352,1002.87,2766.86,0.00,1014.70,861.40
1354,1003.16,2769.70,0.00,1021.10,860.80
1356,1003.44,2772.54,3.88,1030.70,858.50
1358,1003.73,2775.38,19.19,1043.00,863.40
1360,1004.01,2778.21,49.86,1051.50,860.10
1362,1004.30,2781.04,28.46,1054.50,863.00
1364,1004.58,2783.87,25.02,1062.00,863.60
1366,1004.87,2786.69,5.22,1062.00,859.80
1368,1005.15,2789.51,0.00,1064.60,865.80
1370,1005.44,2792.33,0.00,1068.80,863.60
1372,1005.72,2795.14,0.00,1073.60,863.60
1374,1006.01,2797.95,0.00,1083.20,861.90
1376,1006.29,2800.76,0.99,1096.10,863.30
1378,1006.58,2803.57,17.52,1113.70,866.20
1380,1006.86,2806.37,61.93,1124.30,861.60
1382,1007.14,2809.17,116.23,1142.50,862.10
1384,1007.43,2811.97,179.41,1164.80,862.90
1386,1007.71,2814.77,209.86,1177.30,861.40
1388,1008.00,2817.56,247.98,1193.90,860.10
1390,1008.28,2820.35,256.54,1205.50,864.60
1392,1008.56,2823.13,306.35,1222.30,862.90
1394,1008.85,2825.91,320.66,1233.70,865.50
1396,1009.13,2828.69,331.70,1239.50,862.50
1398,1009.41,2831.47,367.77,1259.80,867.60
1400,1009.69,2834.24,438.62,1277.60,861.30
1402,1009.98,2837.02,502.98,1298.10,861.10
1404,1010.26,2839.78,574.41,1324.60,864.30
1406,1010.54,2842.55,678.26,1355.90,860.50
1408,1010.82,2845.31,757.37,1389.80,865.90
1410,1011.11,2848.07,911.72,1438.00,864.80
1412,1011.39,2850.83,1088.38,1491.50,865.20
1414,1011.67,2853.58,1290.42,1550.80,865.60
1416,1011.95,2856.33,1564.90,1626.60,863.90
1418,1012.23,2859.08,1844.40,1704.30,866.00
1420,1012.51,2861.83,2142.41,1779.60,861.50
1422,1012.80,2864.57,2437.82,1863.70,867.60
1424,1013.08,2867.31,2721.64,1935.30,867.40
1426,1013.36,2870.04,2955.71,1988.20,865.50
1428,1013.64,2872.78,3129.48,2024.90,863.90
1430,1013.92,2875.51,3175.78,2036.90,867.70
1432,1014.20,2878.24,3097.69,2011.10,863.60
1434,1014.48,2880.96,2907.12,1957.50,861.40
1436,1014.76,2883.68,2711.28,1906.90,861.50
1438,1015.04,2886.40,2397.34,1830.90,861.70
1440,1015.32,2889.12,2061.25,1756.30,867.70
1442,1015.60,2891.83,1807.63,1687.00,861.20
1444,1015.88,2894.54,1623.71,1644.30,866.40
1446,1016.16,2897.25,1510.02,1607.70,861.00
1448,1016.44,2899.96,1432.45,1587.30,865.30
1450,1016.72,2902.66,1482.30,1592.70,864.00
1452,1017.00,2905.36,1519.06,1602.90,868.30
1454,1017.28,2908.06,1573.08,1611.20,862.80
1456,1017.55,2910.75,1564.55,1608.70,863.30
1458,1017.83,2913.44,1720.19,1640.90,860.60
1460,1018.11,2916.13,1817.10,1663.50,862.50
1462,1018.39,2918.81,1868.99,1679.90,866.80
1464,1018.67,2921.49,1991.35,1705.70,864.10
1466,1018.95,2924.17,2131.83,1735.70,864.50
1468,1019.22,2926.85,2284.29,1767.00,865.80
1470,1019.50,2929.52,2412.48,1787.10,862.40
1472,1019.78,2932.20,2516.52,1804.70,861.60
1474,1020.06,2934.86,2587.64,1819.20,862.90
1476,1020.33,2937.53,2514.35,1806.60,869.80
1478,1020.61,2940.19,2565.70,1804.20,861.80
1480,1020.89,2942.85,2445.81,1779.00,867.20
1482,1021.17,2945.51,2292.41,1743.30,865.10
1484,1021.44,2948.16,2127.90,1707.40,865.60
1486,1021.72,2950.81,1888.71,1651.80,864.10
1488,1022.00,2953.46,1683.75,1605.00,862.90
1490,1022.27,2956.11,1459.45,1558.30,864.30
1492,1022.55,2958.75,1218.61,1506.40,864.10
1494,1022.82,2961.39,1021.34,1462.50,864.20
1496,1023.10,2964.03,841.78,1427.30,868.20
1498,1023.38,2966.66,677.31,1391.30,862.30
1500,1023.65,2969.29,500.76,1366.80,866.60
1502,1023.93,2971.92,401.60,1354.10,868.80
1504,1024.20,2974.55,436.31,1358.80,865.80
1506,1024.48,2977.17,634.84,1385.10,864.40
1508,1024.75,2979.79,994.31,1420.10,861.20
1510,1025.03,2982.41,1179.51,1433.00,863.10
1512,1025.30,2985.02,912.56,1403.50,862.50
1514,1025.58,2987.63,452.14,1357.70,866.20
1516,1025.85,2990.24,151.61,1305.00,862.10
1518,1026.13,2992.85,56.13,1281.80,865.50
1520,1026.40,2995.45,72.42,1281.30,863.00
1522,1026.68,2998.05,258.17,1326.70,865.00
1524,1026.95,3000.65,707.02,1388.10,866.40
1526,1027.22,3003.25,1379.99,1455.40,865.00
1528,1027.50,3005.84,1797.89,1494.20,863.70
1530,1027.77,3008.43,1597.83,1479.00,866.80
1532,1028.04,3011.02,1152.46,1428.60,865.50
1534,1028.32,3013.60,886.74,1391.60,862.40
1536,1028.59,3016.18,821.12,1380.90,863.70
1538,1028.86,3018.76,924.27,1389.60,862.20
1540,1029.14,3021.34,1308.60,1449.70,865.40
1542,1029.41,3023.91,1858.12,1526.70,862.30
1544,1029.68,3026.48,2459.97,1615.20,862.20
1546,1029.95,3029.05,3202.65,1734.10,865.00
1548,1030.22,3031.61,3933.04,1847.10,862.00
1550,1030.50,3034.17,4712.39,1970.90,862.20
1552,1030.77,3036.73,5594.54,2106.90,862.50
1554,1031.04,3039.29,6637.35,2265.80,863.00
1556,1031.31,3041.84,7628.46,2418.90,861.30
1558,1031.58,3044.39,8699.93,2604.20,867.30
1560,1031.85,3046.94,9878.40,2800.30,867.80
1562,1032.13,3049.49,11549.95,3041.80,863.70
1564,1032.40,3052.03,13912.59,3349.20,866.90
1566,1032.67,3054.57,16553.64,3657.60,861.00
1568,1032.94,3057.11,18126.77,3836.40,869.60
1570,1033.21,3059.64,18846.55,3908.10,862.70
1572,1033.48,3062.18,18573.46,3850.50,866.80
1574,1033.75,3064.70,17741.11,3697.90,866.40
1576,1034.02,3067.23,16210.45,3461.30,865.40
1578,1034.29,3069.75,13620.12,3105.10,861.40
1580,1034.56,3072.28,10670.86,2714.10,868.60
1582,1034.83,3074.79,8325.24,2373.30,860.20
1584,1035.10,3077.31,6497.28,2097.60,862.20
1586,1035.37,3079.82,5018.36,1860.60,862.90
1588,1035.64,3082.33,4070.39,1704.10,867.00
1590,1035.91,3084.84,3323.78,1575.20,865.80
1592,1036.17,3087.34,2703.14,1465.50,860.00
1594,1036.44,3089.85,2253.73,1398.20,867.20
1596,1036.71,3092.35,1809.11,1323.00,861.90
1598,1036.98,3094.84,1445.26,1268.20,862.80
1600,1037.25,3097.34,1144.74,1219.30,860.50
1602,1037.52,3099.83,921.38,1182.80,861.30
1604,1037.78,3102.32,761.06,1157.30,864.60
1606,1038.05,3104.80,629.47,1134.40,864.40
1608,1038.32,3107.29,457.90,1109.80,866.00
1610,1038.59,3109.77,314.59,1085.00,864.10
1612,1038.85,3112.24,233.55,1070.50,864.20
1614,1039.12,3114.72,174.34,1061.50,865.00
1616,1039.39,3117.19,51.97,1035.00,859.30
1618,1039.66,3119.66,24.52,1028.50,863.90
1620,1039.92,3122.13,10.02,1018.70,866.50
1622,1040.19,3124.59,34.19,1008.60,862.40
1624,1040.45,3127.05,15.07,997.90,861.20
1626,1040.72,3129.51,0.00,991.10,865.40
1628,1040.99,3131.97,0.00,984.00,868.40
1630,1041.25,3134.42,0.00,976.30,867.90
1632,1041.52,3136.87,0.00,964.00,861.70
1634,1041.78,3139.32,0.00,969.10,864.20
1636,1042.05,3141.77,0.00,970.00,870.00
1638,1042.32,3144.21,25.65,965.80,862.60
1640,1042.58,3146.65,0.00,966.80,869.00
1642,1042.85,3149.09,0.00,960.10,864.90
1644,1043.11,3151.52,10.44,960.60,861.90
1646,1043.38,3153.96,17.75,962.00,864.60
1648,1043.64,3156.39,26.70,960.70,863.70
1650,1043.90,3158.81,47.43,964.80,866.10
1652,1044.17,3161.24,148.78,975.70,865.90
1654,1044.43,3163.66,231.99,977.50,862.90
1656,1044.70,3166.08,333.68,989.40,869.50
1658,1044.96,3168.49,434.05,988.40,863.90
1660,1045.22,3170.91,518.94,993.70,863.50
1662,1045.49,3173.32,340.33,982.20,865.00
1664,1045.75,3175.73,176.36,971.50,867.80
1666,1046.01,3178.13,109.44,960.80,863.70
1668,1046.28,3180.54,88.19,960.40,866.00
1670,1046.54,3182.94,41.49,955.40,868.60
1672,1046.80,3185.34,58.59,953.40,865.90
1674,1047.07,3187.73,56.95,949.50,864.40
1676,1047.33,3190.12,155.49,955.70,862.90
1678,1047.59,3192.51,120.09,954.70,866.60
1680,1047.85,3194.90,135.68,957.40,868.40
1682,1048.11,3197.29,168.82,960.60,869.30
1684,1048.38,3199.67,197.66,959.60,867.00
1686,1048.64,3202.05,299.51,966.70,866.40
1688,1048.90,3204.43,342.72,967.80,865.60
1690,1049.16,3206.80,369.35,965.60,863.10
1692,1049.42,3209.17,418.76,971.40,866.40
1694,1049.68,3211.54,405.00,967.50,864.60
1696,1049.94,3213.91,361.85,962.30,863.50
1698,1050.20,3216.27,322.14,963.00,868.10
1700,1050.46,3218.63,286.62,960.10,868.90
1702,1050.72,3220.99,234.78,953.70,867.60
1704,1050.98,3223.35,227.90,948.60,863.80
1706,1051.24,3225.70,182.32,944.20,864.20
1708,1051.50,3228.05,199.93,943.20,862.70
1710,1051.76,3230.40,153.91,944.30,868.80
1712,1052.02,3232.75,158.06,941.10,866.40
1714,1052.28,3235.09,180.54,942.80,867.00
1716,1052.54,3237.43,105.92,935.20,866.00
1718,1052.80,3239.77,134.87,935.30,864.70
1720,1053.06,3242.11,162.62,935.80,864.60
1722,1053.32,3244.44,194.09,933.20,860.70
1724,1053.58,3246.77,194.90,941.70,869.70
1726,1053.84,3249.10,231.54,938.70,865.10
1728,1054.10,3251.42,283.20,940.70,864.90
1730,1054.35,3253.75,247.79,938.10,865.40
1732,1054.61,3256.07,241.48,940.80,868.60
1734,1054.87,3258.39,173.90,931.70,865.30
1736,1055.13,3260.70,270.56,935.10,863.00
1738,1055.38,3263.01,195.79,931.20,865.10
1740,1055.64,3265.32,254.38,934.70,864.80
1742,1055.90,3267.63,262.58,932.10,862.70
1744,1056.16,3269.94,312.44,936.60,865.40
1746,1056.41,3272.24,302.05,936.30,867.20
1748,1056.67,3274.54,269.94,932.40,866.40
1750,1056.93,3276.84,329.61,935.50,866.10
1752,1057.18,3279.13,288.06,932.10,864.90
1754,1057.44,3281.42,221.28,929.80,867.20
1756,1057.69,3283.71,283.10,930.20,864.50
1758,1057.95,3286.00,256.82,931.00,868.60
1760,1058.21,3288.28,326.20,930.90,865.40
1762,1058.46,3290.57,358.59,931.40,865.50
1764,1058.72,3292.85,357.01,929.30,864.70
1766,1058.97,3295.12,315.26,925.50,863.30
1768,1059.23,3297.40,265.60,925.10,865.40
1770,1059.48,3299.67,254.26,927.00,868.40
1772,1059.74,3301.94,306.75,922.70,862.50
1774,1059.99,3304.21,270.27,924.80,868.40
1776,1060.25,3306.47,352.11,927.90,867.30
1778,1060.50,3308.73,288.54,922.20,865.20
1780,1060.76,3310.99,296.13,920.50,864.00
1782,1061.01,3313.25,399.11,925.20,864.50
1784,1061.26,3315.50,354.48,923.30,865.30
1786,1061.52,3317.76,294.49,924.00,868.80
1788,1061.77,3320.01,251.37,921.30,869.20
1790,1062.02,3322.25,413.38,920.40,861.20
1792,1062.28,3324.50,343.40,918.70,865.00
1794,1062.53,3326.74,417.07,917.60,860.60
1796,1062.78,3328.98,353.67,919.00,865.00
1798,1063.04,3331.22,292.96,916.70,866.00
1800,1063.29,3333.45,294.36,916.30,866.10
1802,1063.54,3335.68,356.12,916.90,864.50
1804,1063.79,3337.91,383.12,917.80,865.40
1806,1064.05,3340.14,349.83,919.60,869.80
1808,1064.30,3342.36,511.11,916.60,859.00
1810,1064.55,3344.59,252.07,913.80,868.80
1812,1064.80,3346.81,345.69,913.80,864.40
1814,1065.05,3349.02,375.76,913.30,863.90
1816,1065.30,3351.24,452.19,916.80,865.40
1818,1065.55,3353.45,438.43,910.70,860.70
1820,1065.81,3355.66,424.82,919.60,870.40
1822,1066.06,3357.87,399.54,913.00,865.00
1824,1066.31,3360.07,367.41,908.20,861.70
1826,1066.56,3362.27,276.55,907.60,865.60
1828,1066.81,3364.47,378.04,909.50,863.30
1830,1067.06,3366.67,404.93,910.20,864.10
1832,1067.31,3368.87,397.26,908.80,864.40
1834,1067.56,3371.06,474.20,907.10,860.40
1836,1067.81,3373.25,375.48,905.20,863.00
1838,1068.06,3375.44,356.74,905.10,863.80
1840,1068.31,3377.62,381.15,907.60,865.20
1842,1068.56,3379.81,320.27,901.40,861.80
1844,1068.80,3381.99,425.09,912.00,868.60
1846,1069.05,3384.16,350.54,905.80,866.40
1848,1069.30,3386.34,424.78,905.80,863.70
1850,1069.55,3388.51,286.00,900.90,864.90
1852,1069.80,3390.68,432.18,904.60,863.70
1854,1070.05,3392.85,443.17,909.30,869.20
1856,1070.30,3395.02,466.83,903.70,863.10
1858,1070.54,3397.18,476.49,902.80,861.50
1860,1070.79,3399.34,404.05,902.20,863.50
1862,1071.04,3401.50,353.93,899.60,863.20
1864,1071.29,3403.66,389.75,896.40,859.60
1866,1071.53,3405.81,431.52,899.80,863.00
1868,1071.78,3407.96,442.36,899.40,863.20
1870,1072.03,3410.11,433.58,902.70,866.40
1872,1072.27,3412.26,340.21,898.90,865.10
1874,1072.52,3414.40,201.37,895.50,867.20
1876,1072.77,3416.54,427.60,897.80,862.00
1878,1073.01,3418.68,254.95,897.60,869.10
1880,1073.26,3420.82,414.97,893.00,859.70
1882,1073.51,3422.96,408.50,897.50,864.70
1884,1073.75,3425.09,337.30,893.70,863.50
1886,1074.00,3427.22,474.87,895.60,861.00
1888,1074.24,3429.35,304.81,896.00,867.40
1890,1074.49,3431.47,323.71,891.10,862.40
1892,1074.73,3433.59,289.94,889.00,861.90
1894,1074.98,3435.71,347.93,896.70,867.80
1896,1075.22,3437.83,312.34,893.40,865.40
1898,1075.47,3439.95,347.99,892.50,863.60
1900,1075.71,3442.06,420.56,894.90,865.00
1902,1075.96,3444.17,435.97,892.40,863.40
1904,1076.20,3446.28,441.44,883.90,854.90
1906,1076.44,3448.38,322.72,892.90,866.60
1908,1076.69,3450.49,214.54,889.00,865.80
1910,1076.93,3452.59,363.10,892.40,864.90
1912,1077.17,3454.69,480.74,891.30,862.10
1914,1077.42,3456.79,510.18,889.70,861.20
1916,1077.66,3458.88,385.71,888.00,862.90
1918,1077.90,3460.97,297.80,886.40,863.20
1920,1078.15,3463.06,266.97,889.70,867.00
1922,1078.39,3465.15,225.11,886.80,865.50
1924,1078.63,3467.23,420.57,887.20,860.80
1926,1078.87,3469.32,332.29,889.70,866.80
1928,1079.12,3471.40,160.62,881.90,864.00
1930,1079.36,3473.47,273.71,891.10,870.30
1932,1079.60,3475.55,292.04,882.00,860.40
1934,1079.84,3477.62,322.18,889.80,867.20
1936,1080.08,3479.69,116.26,879.20,863.10
1938,1080.33,3481.76,378.05,881.30,859.60
1940,1080.57,3483.83,357.21,884.60,864.00
1942,1080.81,3485.89,229.03,882.40,864.40
1944,1081.05,3487.95,215.91,885.00,866.90
1946,1081.29,3490.01,229.65,883.40,865.10
1948,1081.53,3492.07,280.83,880.80,862.00
1950,1081.77,3494.12,351.62,881.60,861.90
1952,1082.01,3496.18,354.68,885.50,865.70
1954,1082.25,3498.23,264.70,880.40,862.40
1956,1082.49,3500.27,125.94,880.90,866.60
1958,1082.73,3502.32,294.02,878.20,860.40
1960,1082.97,3504.36,186.20,881.00,866.00
1962,1083.21,3506.40,225.87,878.50,862.50
1964,1083.45,3508.44,183.84,875.90,860.90
1966,1083.69,3510.48,217.78,882.80,867.40
1968,1083.93,3512.51,278.07,881.00,865.00
1970,1084.16,3514.54,397.83,880.10,862.40
1972,1084.40,3516.57,307.66,877.90,862.20
1974,1084.64,3518.60,213.16,875.90,861.80
1976,1084.88,3520.62,291.56,882.70,865.80
1978,1085.12,3522.65,51.37,880.40,869.40
1980,1085.36,3524.67,37.52,875.60,865.20
1982,1085.59,3526.68,133.42,875.50,863.30
1984,1085.83,3528.70,234.92,879.40,866.10
1986,1086.07,3530.71,302.28,877.80,863.50
1988,1086.31,3532.72,80.57,875.70,865.40
1990,1086.54,3534.73,378.94,876.10,859.70
1992,1086.78,3536.74,74.31,879.70,869.60
1994,1087.02,3538.74,31.10,874.10,865.00
1996,1087.25,3540.74,36.42,873.20,864.10
1998,1087.49,3542.74,348.60,879.70,864.70
2000,1087.73,3544.74,440.97,879.70,864.70
2002,1087.96,3546.74,483.40,877.60,862.00
2004,1088.20,3548.73,163.21,881.30,870.40
2006,1088.43,3550.72,130.76,876.00,865.40
2008,1088.67,3552.71,230.86,874.70,862.00
2010,1088.90,3554.69,0.00,870.70,863.70
2012,1089.14,3556.68,365.10,878.50,865.10
2014,1089.38,3558.66,427.48,875.70,861.70
2016,1089.61,3560.64,376.87,875.20,861.70
2018,1089.84,3562.62,291.53,877.10,864.70
2020,1090.08,3564.59,421.09,874.40,859.80
2022,1090.31,3566.56,337.42,874.60,862.10
2024,1090.55,3568.53,321.65,874.60,862.60
2026,1090.78,3570.50,423.99,873.00,858.80
2028,1091.02,3572.47,0.00,869.60,863.10
2030,1091.25,3574.43,281.61,872.50,860.30
2032,1091.48,3576.39,139.85,868.00,858.90
2034,1091.72,3578.35,222.26,871.00,861.00
2036,1091.95,3580.31,592.19,876.00,861.40
2038,1092.18,3582.26,399.24,870.40,858.80
2040,1092.42,3584.22,204.27,867.00,857.80
2042,1092.65,3586.17,360.30,870.50,857.90
2044,1092.88,3588.12,80.73,867.50,858.60
2046,1093.11,3590.06,16.57,864.20,856.20
2047,1093.23,3591.03,4.81,862.90,855.40