File: plugins/Raman/MatchingLibrary/785X/benzene.csv
ENLIGHTEN Version,4.1.22
Measurement ID,20250220-202605-414334-WP-01977
Serial Number,WP-01977
Model,WP-785X-F13-R-ILC
Detector,S16011-1106
Label,benzene
Declared Match,
Declared Score,0
Scan Averaging,10
Boxcar,0
Technique,Raman
Baseline Correction Algo,AirPLS
ROI Pixel Start,47
ROI Pixel End,2047
ROI Start Line,0
ROI Stop Line,63
CCD C4,1.38617e-12
Slit Width,25
Cropped,True
Interpolated,False
Wavenumber Correction,-0.100481
Raman Intensity Corrected,True
Deconvolved,True
Region,
High Gain Mode,False
Laser Power mW,
Electrical Dark Correction,False
Battery %,
Device ID,<DeviceID USB:0x24aa:0x1000:0:1>
FW Version,10.0.0.10
FPGA Version,035-001
BLE Version,
Prefix,enlighten
Suffix,
Preset,
Auto-Raman,True
Session Count,0
Plugin Name,
Integration Time,32
Timestamp,2025-02-20 20:26:05.414334
Note,
Temperature,0
CCD C0,793.274
CCD C1,0.153259
CCD C2,1.40788e-05
CCD C3,-1.132e-08
CCD Offset,0
CCD Gain,1.9
CCD Offset Odd,0
CCD Gain Odd,1.9
Laser Wavelength,785.032
Laser Enable,False
Laser Power %,0
Laser Temperature,0
Pixel Count,2048

Pixel,Wavelength,Wavenumber,Processed,Raw,Dark
0,793.27,132.25,NA,853.20,850.10
2,793.58,137.12,NA,853.40,849.60
4,793.89,141.99,NA,849.00,849.40
6,794.19,146.86,NA,852.00,851.70
8,794.50,151.72,NA,851.80,850.10
10,794.81,156.58,NA,852.40,848.60
12,795.12,161.44,NA,852.60,848.80
14,795.42,166.30,NA,849.60,850.60
16,795.73,171.16,NA,852.60,847.70
18,796.04,176.01,NA,852.00,851.40
20,796.35,180.86,NA,852.90,849.40
22,796.65,185.71,NA,853.10,853.80
24,796.96,190.56,NA,850.40,847.60
26,797.27,195.41,NA,853.10,850.60
28,797.58,200.25,NA,852.40,853.40
30,797.88,205.09,NA,852.90,848.90
32,798.19,209.93,NA,852.20,852.70
34,798.50,214.77,NA,854.00,849.80
36,798.81,219.60,NA,853.00,850.60
38,799.12,224.43,NA,854.80,849.80
40,799.43,229.27,NA,866.20,851.40
42,799.74,234.09,NA,897.00,850.00
44,800.04,238.92,NA,940.00,853.00
46,800.35,243.75,NA,952.00,849.60
48,800.66,248.57,20.38,951.10,853.50
50,800.97,253.39,13.96,944.10,851.20
52,801.28,258.21,2.36,932.00,852.20
54,801.59,263.02,0.66,928.40,853.60
56,801.90,267.83,2.15,926.20,852.40
58,802.21,272.65,1.09,923.60,850.80
60,802.52,277.46,0.00,918.70,852.40
62,802.83,282.26,0.00,918.50,854.80
64,803.14,287.07,0.00,916.50,852.40
66,803.45,291.87,0.24,917.00,851.80
68,803.76,296.67,0.00,916.00,852.30
70,804.07,301.47,0.00,915.80,853.60
72,804.38,306.26,0.00,913.30,852.60
74,804.69,311.06,0.00,913.70,852.20
76,805.00,315.85,0.45,915.40,851.20
78,805.31,320.64,4.65,919.70,852.60
80,805.62,325.42,0.00,916.20,853.90
82,805.93,330.21,0.00,914.50,852.90
84,806.24,334.99,1.40,917.30,852.00
86,806.55,339.77,1.98,917.10,850.80
88,806.86,344.55,5.14,924.80,853.60
90,807.17,349.32,7.01,926.80,852.10
92,807.48,354.10,11.10,930.70,851.20
94,807.80,358.87,13.83,936.70,852.10
96,808.11,363.63,13.51,936.20,851.70
98,808.42,368.40,18.74,942.70,851.00
100,808.73,373.16,19.38,946.70,851.70
102,809.04,377.93,26.58,955.10,851.20
104,809.35,382.68,38.38,969.60,849.00
106,809.66,387.44,40.75,977.60,850.80
108,809.98,392.19,53.78,996.20,850.60
110,810.29,396.95,69.36,1017.60,851.40
112,810.60,401.70,80.56,1029.90,851.20
114,810.91,406.44,83.75,1031.90,848.40
116,811.22,411.19,63.89,1014.20,852.50
118,811.54,415.93,49.76,994.00,851.50
120,811.85,420.67,38.65,977.20,850.30
122,812.16,425.41,34.65,971.70,851.50
124,812.47,430.14,29.44,962.20,850.20
126,812.79,434.87,22.94,954.90,851.10
128,813.10,439.60,22.60,953.10,849.60
130,813.41,444.33,19.00,946.90,848.80
132,813.72,449.06,13.53,941.20,850.80
134,814.04,453.78,11.67,940.60,853.10
136,814.35,458.50,11.48,938.20,850.20
138,814.66,463.22,7.85,931.80,848.40
140,814.98,467.93,9.44,934.30,849.80
142,815.29,472.65,5.81,930.00,848.80
144,815.60,477.36,7.49,934.80,852.20
146,815.92,482.06,8.85,932.60,848.80
148,816.23,486.77,1.64,927.60,852.00
150,816.54,491.47,4.29,931.60,853.30
152,816.86,496.17,4.49,927.70,848.40
154,817.17,500.87,1.37,924.50,849.40
156,817.48,505.57,2.88,925.90,848.20
158,817.80,510.26,1.06,925.20,850.00
160,818.11,514.95,2.23,927.30,850.20
162,818.42,519.64,0.00,924.10,850.40
164,818.74,524.32,0.00,923.20,850.20
166,819.05,529.00,3.04,926.60,848.80
168,819.37,533.68,1.09,929.70,853.00
170,819.68,538.36,3.28,932.00,851.80
172,819.99,543.04,6.12,934.90,851.00
174,820.31,547.71,6.59,939.00,852.40
176,820.62,552.38,12.89,942.70,849.00
178,820.94,557.05,14.54,950.30,851.00
180,821.25,561.71,20.44,959.50,850.20
182,821.57,566.37,29.28,971.40,849.80
184,821.88,571.03,40.07,989.40,851.10
186,822.20,575.69,47.55,1004.50,849.80
188,822.51,580.34,61.24,1031.50,852.00
190,822.83,584.99,96.25,1089.30,853.20
192,823.14,589.64,137.50,1176.30,851.70
194,823.46,594.29,239.96,1402.90,850.60
196,823.77,598.93,517.36,1926.80,851.00
198,824.09,603.57,1283.06,2878.90,852.00
200,824.40,608.21,1806.41,3370.20,850.70
202,824.72,612.85,1025.40,2610.90,852.10
204,825.03,617.48,404.34,1745.50,852.50
206,825.35,622.11,205.32,1329.90,850.50
208,825.66,626.74,131.88,1160.70,851.20
210,825.98,631.36,97.07,1087.10,847.80
212,826.29,635.99,70.21,1045.50,850.60
214,826.61,640.61,52.83,1016.80,850.80
216,826.92,645.22,45.45,1002.40,850.00
218,827.24,649.84,36.81,985.20,846.30
220,827.56,654.45,33.87,983.00,850.00
222,827.87,659.06,32.55,982.50,850.80
224,828.19,663.67,32.47,982.20,850.90
226,828.50,668.27,38.22,993.70,853.80
228,828.82,672.87,42.79,1000.80,850.90
230,829.13,677.47,52.86,1012.80,851.20
232,829.45,682.06,58.12,1017.60,850.70
234,829.77,686.66,46.58,1009.10,855.60
236,830.08,691.25,38.61,993.20,850.80
238,830.40,695.83,27.27,975.40,851.80
240,830.72,700.42,22.89,965.80,850.00
242,831.03,705.00,18.83,956.70,848.40
244,831.35,709.58,14.30,950.70,850.60
246,831.66,714.15,6.35,939.20,849.60
248,831.98,718.73,3.95,937.40,853.00
250,832.30,723.30,2.11,931.20,850.80
252,832.61,727.87,2.14,935.10,853.10
254,832.93,732.43,0.00,926.00,849.00
256,833.25,736.99,0.15,927.00,849.20
258,833.56,741.55,0.00,927.00,851.70
260,833.88,746.11,0.08,926.90,849.00
262,834.20,750.66,0.00,925.60,850.60
264,834.51,755.22,0.85,931.10,851.20
266,834.83,759.76,0.00,927.20,847.60
268,835.15,764.31,0.00,932.20,852.70
270,835.47,768.85,0.00,931.00,850.30
272,835.78,773.39,0.00,932.20,849.60
274,836.10,777.93,2.72,938.40,847.10
276,836.42,782.46,2.37,946.30,851.40
278,836.73,787.00,12.04,964.10,849.00
280,837.05,791.52,24.33,988.60,849.20
282,837.37,796.05,53.24,1041.70,851.80
284,837.69,800.57,104.06,1101.20,850.40
286,838.00,805.09,102.94,1104.00,850.80
288,838.32,809.61,58.54,1053.40,848.20
290,838.64,814.13,28.82,1013.60,853.20
292,838.95,818.64,29.39,1007.90,850.60
294,839.27,823.15,33.69,1012.60,849.00
296,839.59,827.65,39.13,1028.00,850.70
298,839.91,832.15,58.42,1063.10,850.10
300,840.22,836.65,79.21,1110.70,854.40
302,840.54,841.15,122.48,1185.70,851.70
304,840.86,845.65,201.44,1295.90,852.10
306,841.18,850.14,257.54,1359.30,852.20
308,841.50,854.63,191.11,1286.70,857.20
310,841.81,859.11,109.23,1168.80,848.40
312,842.13,863.60,50.56,1074.70,850.50
314,842.45,868.07,31.44,1031.10,848.40
316,842.77,872.55,18.62,1012.90,853.00
318,843.08,877.03,10.38,996.80,850.80
320,843.40,881.50,5.38,987.10,847.40
322,843.72,885.97,1.60,986.80,851.00
324,844.04,890.43,3.60,985.50,846.80
326,844.36,894.89,0.00,982.90,848.90
328,844.67,899.35,0.44,989.10,850.40
330,844.99,903.81,0.00,987.80,848.90
332,845.31,908.26,0.00,992.20,853.20
334,845.63,912.71,1.18,997.30,850.10
336,845.95,917.16,0.02,998.50,849.80
338,846.27,921.61,0.00,1020.30,869.70
340,846.58,926.05,2.23,1010.40,849.00
342,846.90,930.49,7.85,1020.90,849.40
344,847.22,934.92,15.80,1035.50,849.40
346,847.54,939.36,20.19,1047.30,849.50
348,847.86,943.79,32.88,1070.00,848.40
350,848.18,948.21,48.36,1100.40,849.00
352,848.49,952.64,77.95,1151.70,847.90
354,848.81,957.06,111.64,1214.70,848.00
356,849.13,961.48,157.75,1314.30,854.10
358,849.45,965.89,246.34,1503.20,852.40
360,849.77,970.31,417.13,1896.00,852.50
362,850.09,974.71,952.23,2924.60,850.40
364,850.40,979.12,2040.16,5308.90,850.00
366,850.72,983.52,3484.91,10140.20,853.80
368,851.04,987.92,12034.65,24929.70,849.80
370,851.36,992.32,33183.71,44194.00,850.70
372,851.68,996.72,17907.87,31388.80,851.70
374,852.00,1001.11,3477.36,11401.60,849.60
376,852.32,1005.50,1148.49,4407.50,850.00
378,852.63,1009.88,640.28,2399.80,852.00
380,852.95,1014.26,339.23,1683.60,848.10
382,853.27,1018.64,200.76,1420.80,853.00
384,853.59,1023.02,139.63,1295.60,849.40
386,853.91,1027.39,113.21,1240.40,847.90
388,854.23,1031.76,92.70,1203.10,851.80
390,854.55,1036.13,76.27,1172.50,848.80
392,854.87,1040.49,47.29,1132.10,851.20
394,855.18,1044.86,34.58,1110.30,850.80
396,855.50,1049.21,21.17,1088.40,851.20
398,855.82,1053.57,12.81,1074.70,851.30
400,856.14,1057.92,7.57,1064.30,847.10
402,856.46,1062.27,1.35,1059.60,852.20
404,856.78,1066.62,1.89,1058.70,850.20
406,857.10,1070.96,8.92,1067.70,848.10
408,857.42,1075.30,16.25,1078.60,851.00
410,857.74,1079.64,23.74,1086.10,850.80
412,858.06,1083.97,19.98,1079.50,850.30
414,858.37,1088.30,11.14,1067.80,849.10
416,858.69,1092.63,0.85,1050.40,850.00
418,859.01,1096.95,0.00,1040.70,848.40
420,859.33,1101.27,0.00,1043.00,850.60
422,859.65,1105.59,0.00,1046.90,851.30
424,859.97,1109.91,0.00,1043.20,850.40
426,860.29,1114.22,5.58,1057.00,848.60
428,860.61,1118.53,9.78,1066.40,851.60
430,860.93,1122.84,17.59,1080.90,851.60
432,861.25,1127.14,26.71,1098.50,851.60
434,861.56,1131.44,42.97,1127.30,850.60
436,861.88,1135.74,67.49,1170.30,851.80
438,862.20,1140.03,100.66,1226.80,852.30
440,862.52,1144.32,141.90,1291.70,849.80
442,862.84,1148.61,182.83,1358.70,851.20
444,863.16,1152.89,217.42,1424.40,848.10
446,863.48,1157.17,264.83,1529.50,850.90
448,863.80,1161.45,371.01,1750.30,850.20
450,864.12,1165.73,570.29,2172.30,851.50
452,864.44,1170.00,1090.72,3027.30,850.40
454,864.76,1174.27,1991.96,4118.10,853.60
456,865.07,1178.53,2349.26,4474.00,848.30
458,865.39,1182.80,1557.88,3628.30,850.80
460,865.71,1187.06,791.27,2564.60,852.90
462,866.03,1191.31,445.27,1918.60,850.40
464,866.35,1195.57,288.38,1588.00,852.20
466,866.67,1199.82,202.27,1415.90,851.10
468,866.99,1204.06,135.11,1302.80,852.10
470,867.31,1208.31,105.20,1249.00,852.30
472,867.63,1212.55,91.33,1215.40,851.60
474,867.95,1216.79,73.13,1182.50,850.00
476,868.27,1221.02,47.49,1146.60,850.80
478,868.58,1225.25,29.44,1115.90,848.60
480,868.90,1229.48,18.66,1099.60,849.50
482,869.22,1233.71,13.58,1089.50,850.80
484,869.54,1237.93,9.66,1084.90,852.80
486,869.86,1242.15,4.03,1076.30,850.70
488,870.18,1246.36,0.22,1070.60,850.00
490,870.50,1250.58,0.00,1069.50,850.60
492,870.82,1254.79,0.00,1067.30,851.20
494,871.14,1258.99,0.00,1067.30,848.70
496,871.46,1263.20,0.00,1072.40,851.60
498,871.78,1267.40,0.00,1073.20,850.60
500,872.10,1271.59,0.02,1078.40,851.40
502,872.41,1275.79,4.74,1086.40,848.40
504,872.73,1279.98,5.12,1088.10,849.20
506,873.05,1284.17,7.94,1098.60,851.40
508,873.37,1288.35,17.40,1111.50,848.80
510,873.69,1292.53,17.50,1115.20,849.00
512,874.01,1296.71,19.90,1125.90,851.20
514,874.33,1300.88,25.18,1136.80,852.60
516,874.65,1305.06,39.78,1158.00,850.80
518,874.97,1309.22,43.30,1166.40,850.60
520,875.29,1313.39,52.11,1181.30,849.80
522,875.60,1317.55,54.01,1190.30,852.40
524,875.92,1321.71,54.05,1192.60,851.00
526,876.24,1325.87,57.11,1198.30,851.60
528,876.56,1330.02,60.92,1204.20,849.40
530,876.88,1334.17,62.69,1215.50,853.30
532,877.20,1338.32,65.30,1215.90,847.80
534,877.52,1342.46,74.06,1229.00,847.20
536,877.84,1346.60,76.76,1239.90,851.20
538,878.16,1350.73,80.44,1245.60,849.10
540,878.47,1354.87,82.90,1252.50,849.30
542,878.79,1359.00,93.78,1270.00,848.40
544,879.11,1363.13,94.02,1272.10,847.40
546,879.43,1367.25,99.33,1279.80,848.40
548,879.75,1371.37,100.72,1282.20,849.40
550,880.07,1375.49,81.16,1263.10,852.00
552,880.39,1379.60,77.65,1257.10,850.40
554,880.71,1383.71,69.62,1245.60,849.70
556,881.03,1387.82,61.54,1238.50,850.40
558,881.34,1391.93,61.88,1241.80,848.20
560,881.66,1396.03,75.04,1268.10,847.30
562,881.98,1400.13,101.35,1309.00,851.30
564,882.30,1404.22,165.01,1375.80,853.30
566,882.62,1408.31,145.92,1355.10,851.60
568,882.94,1412.40,81.17,1287.60,849.80
570,883.26,1416.49,47.18,1233.90,849.40
572,883.57,1420.57,39.67,1221.50,850.20
574,883.89,1424.65,32.61,1208.00,849.20
576,884.21,1428.73,39.62,1216.30,849.80
578,884.53,1432.80,28.53,1206.00,852.70
580,884.85,1436.87,32.14,1210.20,850.80
582,885.17,1440.93,27.94,1207.00,849.60
584,885.49,1445.00,26.41,1205.70,849.30
586,885.80,1449.06,24.13,1202.40,848.80
588,886.12,1453.11,20.87,1202.10,851.90
590,886.44,1457.17,21.64,1206.90,852.60
592,886.76,1461.22,21.79,1209.00,851.60
594,887.08,1465.26,27.05,1215.40,849.00
596,887.40,1469.31,27.87,1219.80,847.60
598,887.71,1473.35,38.24,1238.80,851.00
600,888.03,1477.38,53.29,1254.90,850.40
602,888.35,1481.42,59.20,1263.90,849.60
604,888.67,1485.45,45.45,1251.40,850.20
606,888.99,1489.48,31.62,1235.90,850.20
608,889.31,1493.50,21.35,1224.10,852.60
610,889.62,1497.52,20.66,1221.80,852.20
612,889.94,1501.54,17.93,1217.60,850.40
614,890.26,1505.56,10.38,1210.30,851.60
616,890.58,1509.57,12.19,1213.30,850.80
618,890.90,1513.57,14.23,1215.40,850.60
620,891.21,1517.58,20.79,1216.90,847.00
622,891.53,1521.58,26.12,1224.70,849.20
624,891.85,1525.58,29.53,1231.40,849.40
626,892.17,1529.57,37.52,1240.30,849.40
628,892.49,1533.57,48.02,1251.70,849.80
630,892.80,1537.56,52.97,1259.30,849.00
632,893.12,1541.54,67.62,1278.00,847.80
634,893.44,1545.52,84.96,1303.70,849.80
636,893.76,1549.50,98.78,1322.40,849.20
638,894.07,1553.48,127.57,1363.20,849.00
640,894.39,1557.45,156.39,1408.20,849.60
642,894.71,1561.42,204.36,1479.40,849.40
644,895.03,1565.39,271.08,1581.00,849.20
646,895.34,1569.35,373.11,1742.40,851.60
648,895.66,1573.31,517.78,1981.60,849.40
650,895.98,1577.26,763.67,2372.70,846.90
652,896.30,1581.22,1220.71,2941.10,848.00
654,896.61,1585.17,1818.24,3504.70,849.40
656,896.93,1589.11,1750.49,3452.20,849.80
658,897.25,1593.06,1119.92,2887.30,850.00
660,897.57,1597.00,791.00,2511.60,849.00
662,897.88,1600.93,934.03,2598.60,850.80
664,898.20,1604.87,1329.92,2885.80,851.40
666,898.52,1608.80,1281.64,2799.00,849.80
668,898.84,1612.72,812.91,2340.50,850.00
670,899.15,1616.65,498.66,1938.10,851.10
672,899.47,1620.57,359.84,1694.10,847.40
674,899.79,1624.49,272.63,1542.40,849.80
676,900.10,1628.40,214.22,1447.80,848.80
678,900.42,1632.31,167.51,1377.50,848.80
680,900.74,1636.22,139.35,1329.40,845.80
682,901.05,1640.12,115.65,1298.80,852.00
684,901.37,1644.02,90.49,1258.20,847.80
686,901.69,1647.92,72.94,1234.00,850.80
688,902.00,1651.82,65.89,1218.70,849.60
690,902.32,1655.71,60.00,1207.40,849.40
692,902.64,1659.60,50.71,1191.10,847.20
694,902.95,1663.48,46.40,1184.80,849.70
696,903.27,1667.36,40.04,1173.30,848.60
698,903.59,1671.24,41.12,1171.00,848.40
700,903.90,1675.11,29.77,1158.20,851.20
702,904.22,1678.99,27.57,1150.20,847.20
704,904.54,1682.85,32.48,1158.90,852.50
706,904.85,1686.72,31.67,1153.90,849.50
708,905.17,1690.58,33.11,1154.00,849.70
710,905.49,1694.44,43.92,1162.80,849.20
712,905.80,1698.29,50.16,1170.50,850.40
714,906.12,1702.15,44.35,1159.80,847.60
716,906.43,1706.00,44.88,1158.40,849.70
718,906.75,1709.84,33.61,1142.70,848.40
720,907.07,1713.68,24.94,1129.50,848.20
722,907.38,1717.52,21.93,1124.50,850.30
724,907.70,1721.36,11.24,1111.00,850.40
726,908.01,1725.19,6.31,1103.80,853.10
728,908.33,1729.02,6.88,1097.90,848.00
730,908.65,1732.85,1.17,1093.40,851.40
732,908.96,1736.67,0.68,1086.80,849.50
734,909.28,1740.49,5.16,1087.20,848.80
736,909.59,1744.30,4.87,1087.60,851.80
738,909.91,1748.12,1.84,1080.50,850.00
740,910.22,1751.93,1.02,1080.50,852.20
742,910.54,1755.73,0.03,1075.50,852.60
744,910.85,1759.54,1.82,1075.20,851.80
746,911.17,1763.34,0.00,1064.10,848.00
748,911.49,1767.13,0.00,1065.80,851.40
750,911.80,1770.93,3.82,1067.70,848.40
752,912.12,1774.72,3.54,1064.70,849.60
754,912.43,1778.50,2.78,1063.40,850.50
756,912.75,1782.29,6.04,1064.60,849.20
758,913.06,1786.07,1.68,1056.50,849.50
760,913.38,1789.84,3.30,1056.60,849.00
762,913.69,1793.62,0.96,1054.40,851.60
764,914.01,1797.39,3.85,1054.20,850.80
766,914.32,1801.15,6.80,1052.90,848.20
768,914.64,1804.92,0.00,1046.60,852.60
770,914.95,1808.68,4.21,1051.10,849.30
772,915.26,1812.44,10.10,1051.60,849.80
774,915.58,1816.19,7.66,1046.00,847.80
776,915.89,1819.94,10.33,1053.10,852.20
778,916.21,1823.69,5.84,1044.40,850.30
780,916.52,1827.43,4.82,1045.80,854.90
782,916.84,1831.17,15.36,1047.80,848.40
784,917.15,1834.91,13.92,1043.10,846.90
786,917.47,1838.64,8.18,1040.00,850.60
788,917.78,1842.38,13.85,1044.10,850.80
790,918.09,1846.10,15.68,1042.00,848.60
792,918.41,1849.83,11.38,1039.80,852.10
794,918.72,1853.55,15.63,1038.40,848.00
796,919.04,1857.27,18.47,1039.70,848.60
798,919.35,1860.98,16.33,1037.10,849.20
800,919.66,1864.69,18.74,1037.60,849.10
802,919.98,1868.40,17.49,1034.80,849.60
804,920.29,1872.11,18.38,1033.90,848.80
806,920.60,1875.81,21.21,1035.10,849.60
808,920.92,1879.51,22.28,1035.00,849.70
810,921.23,1883.20,25.59,1036.70,849.50
812,921.55,1886.90,24.93,1035.30,851.20
814,921.86,1890.58,19.98,1026.30,849.20
816,922.17,1894.27,24.06,1031.70,851.20
818,922.49,1897.95,21.69,1025.20,848.40
820,922.80,1901.63,16.10,1019.90,852.20
822,923.11,1905.31,24.03,1021.80,847.90
824,923.42,1908.98,22.39,1021.60,851.90
826,923.74,1912.65,21.91,1019.10,849.30
828,924.05,1916.31,17.83,1014.70,849.80
830,924.36,1919.98,28.99,1021.80,848.00
832,924.68,1923.64,30.84,1022.70,848.80
834,924.99,1927.29,33.45,1027.30,850.80
836,925.30,1930.94,43.94,1033.90,849.20
838,925.61,1934.59,52.97,1041.00,851.00
840,925.93,1938.24,47.44,1031.90,848.20
842,926.24,1941.88,41.02,1027.00,849.80
844,926.55,1945.52,31.38,1011.80,846.40
846,926.86,1949.16,27.48,1007.50,848.50
848,927.18,1952.79,28.26,1005.30,848.40
850,927.49,1956.42,27.87,1002.40,847.60
852,927.80,1960.05,23.26,1003.20,854.70
854,928.11,1963.67,25.38,996.80,849.20
856,928.42,1967.29,24.18,994.40,849.40
858,928.74,1970.91,20.84,990.00,848.10
860,929.05,1974.52,23.21,989.90,847.40
862,929.36,1978.13,24.34,990.10,849.00
864,929.67,1981.74,31.90,996.60,850.40
866,929.98,1985.35,37.82,998.60,849.60
868,930.29,1988.95,31.56,991.20,849.60
870,930.61,1992.54,25.01,982.40,848.30
872,930.92,1996.14,11.69,973.00,852.40
874,931.23,1999.73,9.92,967.60,850.80
876,931.54,2003.32,13.02,965.10,848.60
878,931.85,2006.90,14.48,964.50,848.50
880,932.16,2010.48,9.05,958.30,848.50
882,932.47,2014.06,11.97,962.00,848.70
884,932.78,2017.63,17.03,965.40,849.00
886,933.09,2021.21,33.07,974.40,849.20
888,933.41,2024.77,30.08,971.00,850.60
890,933.72,2028.34,15.72,962.20,851.60
892,934.03,2031.90,4.28,949.50,851.90
894,934.34,2035.46,2.18,944.40,852.20
896,934.65,2039.01,10.95,946.10,847.10
898,934.96,2042.57,9.42,946.10,851.40
900,935.27,2046.11,11.19,944.90,850.20
902,935.58,2049.66,6.04,939.00,849.60
904,935.89,2053.20,2.86,936.10,851.20
906,936.20,2056.74,0.00,931.10,851.40
908,936.51,2060.28,1.29,929.30,848.90
910,936.82,2063.81,5.11,932.90,850.20
912,937.13,2067.34,4.28,929.40,848.80
914,937.44,2070.86,2.53,926.50,849.40
916,937.75,2074.39,1.77,923.40,848.60
918,938.06,2077.91,1.31,921.30,847.70
920,938.37,2081.42,0.85,922.80,850.20
922,938.68,2084.94,0.00,919.40,850.00
924,938.99,2088.45,1.81,916.70,846.90
926,939.30,2091.95,0.17,917.10,849.40
928,939.60,2095.46,0.00,916.40,851.00
930,939.91,2098.96,0.18,917.80,851.60
932,940.22,2102.45,6.02,916.70,846.40
934,940.53,2105.95,0.69,914.40,850.40
936,940.84,2109.44,10.72,920.60,847.80
938,941.15,2112.92,2.71,915.60,851.00
940,941.46,2116.41,11.18,919.70,848.20
942,941.77,2119.89,9.66,916.70,849.20
944,942.07,2123.37,5.80,913.50,849.00
946,942.38,2126.84,0.80,909.80,850.50
948,942.69,2130.31,0.70,908.00,849.80
950,943.00,2133.78,0.00,906.50,850.60
952,943.31,2137.24,0.57,906.20,849.80
954,943.62,2140.70,1.90,907.90,850.80
956,943.92,2144.16,7.97,907.90,848.20
958,944.23,2147.62,1.87,906.80,850.60
960,944.54,2151.07,0.00,904.50,851.90
962,944.85,2154.52,0.35,904.40,850.90
964,945.16,2157.96,4.12,906.60,850.70
966,945.46,2161.40,8.10,907.60,849.00
968,945.77,2164.84,3.83,903.00,847.80
970,946.08,2168.28,7.91,906.00,848.40
972,946.39,2171.71,5.45,906.10,850.20
974,946.69,2175.14,1.86,904.60,852.10
976,947.00,2178.57,7.63,908.40,849.20
978,947.31,2181.99,9.80,911.90,851.40
980,947.61,2185.41,26.59,919.50,847.00
982,947.92,2188.82,42.44,928.90,848.70
984,948.23,2192.24,29.24,921.70,849.20
986,948.53,2195.65,20.87,917.00,847.40
988,948.84,2199.05,8.38,905.10,848.60
990,949.15,2202.46,13.90,906.50,846.70
992,949.45,2205.86,5.96,902.80,850.60
994,949.76,2209.25,9.70,905.20,848.60
996,950.07,2212.65,13.90,907.50,848.20
998,950.37,2216.04,23.79,910.30,847.00
1000,950.68,2219.43,26.32,912.20,848.60
1002,950.98,2222.81,9.40,904.70,851.00
1004,951.29,2226.19,1.33,896.90,851.10
1006,951.60,2229.57,3.54,895.40,848.30
1008,951.90,2232.94,5.90,897.80,849.60
1010,952.21,2236.32,0.00,892.80,850.40
1012,952.51,2239.68,1.00,892.80,849.20
1014,952.82,2243.05,0.00,891.00,849.40
1016,953.12,2246.41,3.86,896.60,851.50
1018,953.43,2249.77,0.62,894.90,852.80
1020,953.73,2253.12,4.16,893.90,849.40
1022,954.04,2256.48,6.15,892.90,848.10
1024,954.34,2259.83,0.04,892.10,851.80
1026,954.65,2263.17,3.55,893.40,848.70
1028,954.95,2266.51,6.14,892.80,848.60
1030,955.26,2269.85,3.97,894.60,852.40
1032,955.56,2273.19,5.67,894.50,850.00
1034,955.87,2276.52,3.39,894.20,852.00
1036,956.17,2279.85,6.72,894.70,850.60
1038,956.48,2283.18,11.28,894.00,845.80
1040,956.78,2286.50,10.42,898.20,848.40
1042,957.08,2289.82,20.74,909.10,848.90
1044,957.39,2293.14,44.61,924.00,852.00
1046,957.69,2296.45,78.67,937.00,850.10
1048,957.99,2299.76,48.28,925.20,852.10
1050,958.30,2303.07,24.10,910.60,849.40
1052,958.60,2306.38,9.36,896.00,850.00
1054,958.91,2309.68,9.61,893.90,849.20
1056,959.21,2312.98,5.97,892.50,851.60
1058,959.51,2316.27,7.89,891.00,849.60
1060,959.82,2319.56,5.94,890.50,851.00
1062,960.12,2322.85,2.76,888.40,851.40
1064,960.42,2326.14,6.61,889.70,850.20
1066,960.72,2329.42,4.69,887.90,849.80
1068,961.03,2332.70,2.46,886.60,850.50
1070,961.33,2335.97,10.39,889.20,847.60
1072,961.63,2339.25,11.51,890.90,848.80
1074,961.93,2342.52,9.63,891.40,850.60
1076,962.24,2345.78,19.70,897.10,849.20
1078,962.54,2349.05,17.14,897.70,852.40
1080,962.84,2352.31,28.05,899.80,847.80
1082,963.14,2355.56,23.14,897.90,849.40
1084,963.45,2358.82,21.12,896.90,849.50
1086,963.75,2362.07,19.51,896.70,851.40
1088,964.05,2365.32,17.92,898.00,853.00
1090,964.35,2368.56,13.52,891.30,848.40
1092,964.65,2371.80,17.07,894.50,849.60
1094,964.95,2375.04,23.14,897.10,849.80
1096,965.25,2378.27,26.19,898.10,849.60
1098,965.56,2381.51,33.06,901.50,849.80
1100,965.86,2384.73,34.54,900.80,848.80
1102,966.16,2387.96,18.78,892.40,849.00
1104,966.46,2391.18,12.37,892.60,853.70
1106,966.76,2394.40,14.86,887.40,848.10
1108,967.06,2397.62,14.34,888.80,850.00
1110,967.36,2400.83,6.39,882.70,849.30
1112,967.66,2404.04,11.64,887.00,850.40
1114,967.96,2407.25,12.48,884.00,848.20
1116,968.26,2410.45,12.62,883.10,847.60
1118,968.56,2413.65,6.29,882.10,850.40
1120,968.86,2416.85,0.00,880.50,855.00
1122,969.16,2420.04,7.24,882.20,850.00
1124,969.46,2423.23,8.31,881.10,849.00
1126,969.76,2426.42,8.85,884.10,851.40
1128,970.06,2429.60,13.99,885.10,848.20
1130,970.36,2432.79,11.70,883.30,848.40
1132,970.66,2435.96,19.05,887.50,849.00
1134,970.96,2439.14,17.40,887.60,849.60
1136,971.26,2442.31,21.69,894.20,851.00
1138,971.56,2445.48,29.25,897.10,848.00
1140,971.86,2448.65,47.31,908.10,847.40
1142,972.16,2451.81,71.71,923.80,847.80
1144,972.45,2454.97,119.58,947.00,849.40
1146,972.75,2458.13,157.18,956.00,847.00
1148,973.05,2461.28,101.35,936.20,848.60
1150,973.35,2464.43,54.66,918.50,849.60
1152,973.65,2467.58,27.17,899.00,851.10
1154,973.95,2470.72,24.76,893.80,851.40
1156,974.24,2473.86,25.51,890.00,848.40
1158,974.54,2477.00,21.81,886.40,846.80
1160,974.84,2480.13,22.71,888.30,849.30
1162,975.14,2483.27,23.41,888.50,849.30
1164,975.43,2486.40,15.46,886.40,851.40
1166,975.73,2489.52,22.73,890.10,850.80
1168,976.03,2492.64,18.76,884.50,848.80
1170,976.33,2495.76,25.19,889.30,850.00
1172,976.62,2498.88,24.20,888.40,848.80
1174,976.92,2501.99,26.48,892.50,850.60
1176,977.22,2505.10,30.23,894.30,850.40
1178,977.51,2508.21,46.14,899.50,847.70
1180,977.81,2511.31,55.07,903.40,849.40
1182,978.11,2514.41,63.00,906.60,848.60
1184,978.40,2517.51,51.12,902.50,848.60
1186,978.70,2520.61,43.58,902.90,852.50
1188,979.00,2523.70,44.68,901.50,851.10
1190,979.29,2526.79,47.68,901.90,850.40
1192,979.59,2529.87,51.81,904.40,849.60
1194,979.88,2532.95,51.39,906.40,850.40
1196,980.18,2536.03,66.03,917.80,852.60
1198,980.48,2539.11,95.21,932.30,851.00
1200,980.77,2542.18,144.01,953.00,848.80
1202,981.07,2545.25,188.52,970.10,850.10
1204,981.36,2548.32,197.76,972.30,851.80
1206,981.66,2551.38,179.84,964.40,849.40
1208,981.95,2554.44,112.33,937.40,850.40
1210,982.25,2557.50,67.32,916.40,850.40
1212,982.54,2560.56,41.52,902.10,852.60
1214,982.84,2563.61,40.03,896.40,850.00
1216,983.13,2566.66,34.62,891.00,848.80
1218,983.43,2569.70,30.09,888.60,850.10
1220,983.72,2572.74,38.38,889.60,848.30
1222,984.01,2575.78,36.13,891.40,851.40
1224,984.31,2578.82,39.07,889.90,847.60
1226,984.60,2581.85,24.19,883.10,848.00
1228,984.90,2584.88,28.22,886.00,848.80
1230,985.19,2587.91,31.96,885.10,847.70
1232,985.48,2590.93,30.39,887.10,850.60
1234,985.78,2593.96,32.10,888.20,849.40
1236,986.07,2596.97,36.01,892.80,851.60
1238,986.36,2599.99,50.23,897.60,850.20
1240,986.66,2603.00,65.44,906.00,851.60
1242,986.95,2606.01,72.87,913.70,851.00
1244,987.24,2609.01,80.48,928.00,854.40
1246,987.54,2612.02,154.30,961.70,846.30
1248,987.83,2615.02,296.03,1014.70,852.60
1250,988.12,2618.01,487.45,1063.90,851.30
1252,988.41,2621.01,408.69,1043.60,850.20
1254,988.71,2624.00,198.83,978.90,850.20
1256,989.00,2626.99,104.50,936.70,851.10
1258,989.29,2629.97,70.83,912.50,850.20
1260,989.58,2632.95,45.42,895.30,849.60
1262,989.87,2635.93,20.60,885.20,854.10
1264,990.16,2638.91,24.86,882.20,849.60
1266,990.46,2641.88,14.72,880.30,853.50
1268,990.75,2644.85,11.28,877.30,852.60
1270,991.04,2647.81,15.92,876.00,849.20
1272,991.33,2650.78,7.47,875.10,852.40
1274,991.62,2653.74,8.58,873.00,850.20
1276,991.91,2656.70,8.76,872.50,850.30
1278,992.20,2659.65,13.42,874.30,850.40
1280,992.49,2662.60,8.52,872.70,849.40
1282,992.78,2665.55,0.83,872.80,853.80
1284,993.07,2668.50,6.85,871.60,849.60
1286,993.36,2671.44,6.75,873.70,852.60
1288,993.65,2674.38,15.29,875.70,851.40
1290,993.94,2677.31,11.11,872.50,850.20
1292,994.23,2680.25,6.77,871.80,850.60
1294,994.52,2683.18,6.11,875.00,853.60
1296,994.81,2686.10,18.74,876.60,849.30
1298,995.10,2689.03,26.72,880.10,851.60
1300,995.39,2691.95,36.77,882.10,850.70
1302,995.68,2694.87,28.45,881.40,853.00
1304,995.97,2697.78,37.28,884.10,851.50
1306,996.26,2700.70,23.11,879.30,851.20
1308,996.55,2703.61,21.56,879.00,851.20
1310,996.84,2706.51,31.21,881.60,850.00
1312,997.13,2709.42,25.51,880.20,852.00
1314,997.41,2712.32,43.75,885.20,850.80
1316,997.70,2715.21,47.90,885.00,850.00
1318,997.99,2718.11,46.16,883.70,849.80
1320,998.28,2721.00,47.12,882.30,848.20
1322,998.57,2723.89,32.52,881.30,851.20
1324,998.86,2726.77,17.36,873.40,848.20
1326,999.14,2729.66,6.39,872.60,852.80
1328,999.43,2732.54,16.31,873.90,849.80
1330,999.72,2735.41,3.89,870.00,851.40
1332,1000.01,2738.29,12.53,874.00,852.00
1334,1000.29,2741.16,40.87,879.40,848.80
1336,1000.58,2744.03,15.97,874.60,852.00
1338,1000.87,2746.89,20.62,877.10,851.00
1340,1001.15,2749.75,31.34,880.90,850.00
1342,1001.44,2752.61,53.57,887.70,850.40
1344,1001.73,2755.47,75.02,891.60,850.60
1346,1002.01,2758.32,105.23,897.00,848.20
1348,1002.30,2761.17,80.92,895.50,851.80
1350,1002.59,2764.02,49.26,890.70,854.60
1352,1002.87,2766.86,42.90,886.30,851.20
1354,1003.16,2769.70,52.96,888.40,850.40
1356,1003.44,2772.54,65.41,890.30,849.70
1358,1003.73,2775.38,85.08,897.60,851.00
1360,1004.01,2778.21,113.59,903.50,849.20
1362,1004.30,2781.04,151.27,916.60,853.80
1364,1004.58,2783.87,153.12,911.90,849.20
1366,1004.87,2786.69,106.15,901.20,850.80
1368,1005.15,2789.51,80.86,894.80,850.60
1370,1005.44,2792.33,54.91,886.80,851.20
1372,1005.72,2795.14,34.67,879.10,850.90
1374,1006.01,2797.95,24.03,878.10,853.70
1376,1006.29,2800.76,24.71,873.90,849.80
1378,1006.58,2803.57,24.41,876.60,853.50
1380,1006.86,2806.37,18.75,872.30,850.70
1382,1007.14,2809.17,12.99,869.40,849.40
1384,1007.43,2811.97,15.66,870.40,850.20
1386,1007.71,2814.77,28.36,871.10,848.30
1388,1008.00,2817.56,3.89,866.40,850.60
1390,1008.28,2820.35,6.94,869.00,852.00
1392,1008.56,2823.13,9.11,868.80,850.00
1394,1008.85,2825.91,2.87,868.20,852.40
1396,1009.13,2828.69,12.25,869.40,851.00
1398,1009.41,2831.47,0.00,866.40,852.60
1400,1009.69,2834.24,11.44,866.20,848.80
1402,1009.98,2837.02,6.32,866.60,850.00
1404,1010.26,2839.78,7.69,867.40,849.60
1406,1010.54,2842.55,0.00,864.60,850.20
1408,1010.82,2845.31,13.52,868.00,849.40
1410,1011.11,2848.07,8.58,866.80,849.00
1412,1011.39,2850.83,1.21,868.80,853.20
1414,1011.67,2853.58,4.56,866.40,849.80
1416,1011.95,2856.33,0.00,865.10,853.20
1418,1012.23,2859.08,0.00,867.00,852.20
1420,1012.51,2861.83,12.74,870.00,849.20
1422,1012.80,2864.57,13.26,871.50,850.20
1424,1013.08,2867.31,8.65,872.60,850.80
1426,1013.36,2870.04,4.84,874.40,852.80
1428,1013.64,2872.78,8.33,874.70,851.80
1430,1013.92,2875.51,11.97,876.60,852.70
1432,1014.20,2878.24,15.14,872.50,847.20
1434,1014.48,2880.96,0.00,872.70,851.00
1436,1014.76,2883.68,1.23,875.10,850.80
1438,1015.04,2886.40,0.00,874.10,849.60
1440,1015.32,2889.12,0.00,875.90,850.90
1442,1015.60,2891.83,0.00,876.40,850.70
1444,1015.88,2894.54,7.80,881.00,850.80
1446,1016.16,2897.25,0.00,878.90,850.00
1448,1016.44,2899.96,0.00,883.70,853.90
1450,1016.72,2902.66,0.36,884.50,850.50
1452,1017.00,2905.36,3.05,888.60,852.10
1454,1017.28,2908.06,27.79,892.50,848.00
1456,1017.55,2910.75,26.58,897.00,852.50
1458,1017.83,2913.44,60.84,906.00,850.30
1460,1018.11,2916.13,85.05,914.90,851.40
1462,1018.39,2918.81,144.46,928.60,849.80
1464,1018.67,2921.49,184.07,938.20,850.10
1466,1018.95,2924.17,229.06,950.10,852.40
1468,1019.22,2926.85,286.79,961.30,852.20
1470,1019.50,2929.52,319.28,967.50,850.80
1472,1019.78,2932.20,306.68,965.50,847.00
1474,1020.06,2934.86,249.33,964.60,851.20
1476,1020.33,2937.53,249.61,975.90,850.20
1478,1020.61,2940.19,267.49,992.70,850.60
1480,1020.89,2942.85,449.17,1044.10,853.30
1482,1021.17,2945.51,1026.68,1133.70,848.50
1484,1021.44,2948.16,1870.57,1230.70,852.80
1486,1021.72,2950.81,1719.00,1210.90,849.20
1488,1022.00,2953.46,798.54,1102.30,852.30
1490,1022.27,2956.11,313.91,1010.00,849.60
1492,1022.55,2958.75,179.71,973.20,852.20
1494,1022.82,2961.39,133.28,951.70,850.30
1496,1023.10,2964.03,90.66,939.00,852.20
1498,1023.38,2966.66,63.66,931.10,851.70
1500,1023.65,2969.29,41.05,926.90,852.20
1502,1023.93,2971.92,20.76,923.40,851.20
1504,1024.20,2974.55,6.08,922.30,850.60
1506,1024.48,2977.17,0.00,923.40,855.60
1508,1024.75,2979.79,0.00,920.50,851.30
1510,1025.03,2982.41,0.00,921.30,852.20
1512,1025.30,2985.02,17.07,923.30,847.20
1514,1025.58,2987.63,2.14,926.40,850.90
1516,1025.85,2990.24,0.00,924.40,849.20
1518,1026.13,2992.85,0.67,929.90,850.90
1520,1026.40,2995.45,5.91,934.60,851.70
1522,1026.68,2998.05,20.04,938.40,850.40
1524,1026.95,3000.65,86.21,952.40,851.70
1526,1027.22,3003.25,150.00,960.80,851.80
1528,1027.50,3005.84,198.14,969.60,852.30
1530,1027.77,3008.43,230.63,976.90,852.80
1532,1028.04,3011.02,310.05,991.80,852.80
1534,1028.32,3013.60,383.73,1005.00,853.20
1536,1028.59,3016.18,506.57,1024.40,850.70
1538,1028.86,3018.76,603.90,1041.70,850.70
1540,1029.14,3021.34,764.80,1068.80,849.40
1542,1029.41,3023.91,946.59,1100.90,850.40
1544,1029.68,3026.48,1194.70,1141.40,848.10
1546,1029.95,3029.05,1427.39,1184.00,849.80
1548,1030.22,3031.61,1758.33,1244.10,850.40
1550,1030.50,3034.17,2196.08,1322.30,850.60
1552,1030.77,3036.73,2773.52,1420.80,851.20
1554,1031.04,3039.29,3575.38,1545.70,852.00
1556,1031.31,3041.84,4592.40,1685.30,849.00
1558,1031.58,3044.39,5757.98,1849.40,852.80
1560,1031.85,3046.94,6652.47,1990.20,853.00
1562,1032.13,3049.49,7202.10,2120.70,851.40
1564,1032.40,3052.03,7692.54,2265.50,852.40
1566,1032.67,3054.57,9124.66,2508.20,851.70
1568,1032.94,3057.11,12311.41,2881.40,852.80
1570,1033.21,3059.64,16972.48,3302.20,851.00
1572,1033.48,3062.18,19342.43,3455.80,853.10
1574,1033.75,3064.70,16680.39,3197.90,850.90
1576,1034.02,3067.23,11274.26,2653.50,851.90
1578,1034.29,3069.75,7317.45,2163.30,849.20
1580,1034.56,3072.28,5251.34,1833.00,849.00
1582,1034.83,3074.79,4026.06,1595.80,853.00
1584,1035.10,3077.31,3395.05,1460.30,853.60
1586,1035.37,3079.82,2766.45,1343.20,851.90
1588,1035.64,3082.33,2289.70,1266.10,854.00
1590,1035.91,3084.84,1904.07,1202.30,852.10
1592,1036.17,3087.34,1678.95,1164.40,851.60
1594,1036.44,3089.85,1450.68,1128.40,851.80
1596,1036.71,3092.35,1207.91,1090.00,849.60
1598,1036.98,3094.84,1044.33,1065.40,848.40
1600,1037.25,3097.34,853.56,1039.50,849.80
1602,1037.52,3099.83,734.67,1021.90,850.90
1604,1037.78,3102.32,634.88,1005.40,850.40
1606,1038.05,3104.80,520.64,990.50,851.60
1608,1038.32,3107.29,432.99,977.60,850.80
1610,1038.59,3109.77,363.70,966.70,850.60
1612,1038.85,3112.24,313.57,957.90,849.60
1614,1039.12,3114.72,212.71,948.70,853.40
1616,1039.39,3117.19,147.43,936.00,848.70
1618,1039.66,3119.66,108.37,935.00,852.20
1620,1039.92,3122.13,45.85,927.70,854.10
1622,1040.19,3124.59,42.89,922.20,851.00
1624,1040.45,3127.05,21.91,917.60,852.00
1626,1040.72,3129.51,9.81,912.90,851.40
1628,1040.99,3131.97,12.77,911.80,852.00
1630,1041.25,3134.42,1.45,908.90,853.30
1632,1041.52,3136.87,0.00,903.30,852.80
1634,1041.78,3139.32,0.00,901.50,852.70
1636,1042.05,3141.77,1.35,905.20,855.90
1638,1042.32,3144.21,22.33,900.40,850.60
1640,1042.58,3146.65,7.63,900.70,854.30
1642,1042.85,3149.09,0.00,894.60,851.40
1644,1043.11,3151.52,30.88,897.40,849.90
1646,1043.38,3153.96,13.32,895.70,850.40
1648,1043.64,3156.39,15.46,896.70,850.80
1650,1043.90,3158.81,28.61,899.40,852.20
1652,1044.17,3161.24,125.52,908.80,851.60
1654,1044.43,3163.66,186.49,909.10,851.70
1656,1044.70,3166.08,345.73,920.60,853.30
1658,1044.96,3168.49,348.56,917.10,849.00
1660,1045.22,3170.91,211.25,908.90,849.00
1662,1045.49,3173.32,113.34,904.00,851.30
1664,1045.75,3175.73,65.96,899.70,852.30
1666,1046.01,3178.13,102.88,901.60,848.80
1668,1046.28,3180.54,136.12,907.60,853.50
1670,1046.54,3182.94,292.70,917.50,852.50
1672,1046.80,3185.34,520.96,927.60,852.20
1674,1047.07,3187.73,679.11,934.40,851.20
1676,1047.33,3190.12,452.74,923.60,851.00
1678,1047.59,3192.51,170.84,905.10,852.00
1680,1047.85,3194.90,89.18,898.30,853.10
1682,1048.11,3197.29,52.70,892.00,853.00
1684,1048.38,3199.67,64.66,889.00,849.80
1686,1048.64,3202.05,39.13,888.20,853.00
1688,1048.90,3204.43,11.76,882.30,851.10
1690,1049.16,3206.80,43.33,884.80,851.40
1692,1049.42,3209.17,83.27,885.20,850.00
1694,1049.68,3211.54,129.40,887.20,849.30
1696,1049.94,3213.91,25.17,881.80,852.00
1698,1050.20,3216.27,54.03,883.80,852.00
1700,1050.46,3218.63,59.15,884.80,852.60
1702,1050.72,3220.99,30.56,880.80,851.00
1704,1050.98,3223.35,0.00,879.50,854.10
1706,1051.24,3225.70,37.95,880.30,850.40
1708,1051.50,3228.05,5.68,878.40,852.90
1710,1051.76,3230.40,50.92,881.00,852.80
1712,1052.02,3232.75,113.86,880.90,849.00
1714,1052.28,3235.09,35.12,879.50,853.30
1716,1052.54,3237.43,115.16,881.50,849.70
1718,1052.80,3239.77,36.02,878.60,852.40
1720,1053.06,3242.11,37.74,878.90,852.20
1722,1053.32,3244.44,27.66,879.50,854.30
1724,1053.58,3246.77,66.10,882.90,854.90
1726,1053.84,3249.10,58.54,878.40,852.40
1728,1054.10,3251.42,129.35,880.50,851.00
1730,1054.35,3253.75,141.13,881.40,851.60
1732,1054.61,3256.07,72.90,877.20,851.40
1734,1054.87,3258.39,79.40,879.50,853.00
1736,1055.13,3260.70,97.02,878.80,851.50
1738,1055.38,3263.01,74.84,877.60,852.90
1740,1055.64,3265.32,133.36,880.70,852.90
1742,1055.90,3267.63,130.30,877.60,850.40
1744,1056.16,3269.94,103.92,877.10,851.60
1746,1056.41,3272.24,98.25,877.30,852.40
1748,1056.67,3274.54,143.14,879.00,851.80
1750,1056.93,3276.84,134.88,878.50,852.60
1752,1057.18,3279.13,155.43,878.10,851.00
1754,1057.44,3281.42,98.11,876.30,852.80
1756,1057.69,3283.71,89.97,875.20,852.50
1758,1057.95,3286.00,177.56,879.40,851.60
1760,1058.21,3288.28,122.86,876.40,852.80
1762,1058.46,3290.57,139.03,876.90,852.50
1764,1058.72,3292.85,100.15,874.50,852.80
1766,1058.97,3295.12,127.34,874.50,851.80
1768,1059.23,3297.40,163.02,874.20,850.40
1770,1059.48,3299.67,175.74,876.50,852.30
1772,1059.74,3301.94,131.60,874.00,851.80
1774,1059.99,3304.21,160.17,875.40,850.80
1776,1060.25,3306.47,120.73,874.70,853.10
1778,1060.50,3308.73,128.73,871.40,850.40
1780,1060.76,3310.99,188.83,876.10,852.70
1782,1061.01,3313.25,167.02,874.80,852.70
1784,1061.26,3315.50,124.15,871.90,852.00
1786,1061.52,3317.76,101.12,870.90,852.50
1788,1061.77,3320.01,195.77,875.30,852.00
1790,1062.02,3322.25,140.72,873.00,853.40
1792,1062.28,3324.50,146.31,872.00,852.50
1794,1062.53,3326.74,180.61,870.40,849.40
1796,1062.78,3328.98,209.05,872.80,850.80
1798,1063.04,3331.22,206.41,873.10,851.80
1800,1063.29,3333.45,225.18,870.10,848.00
1802,1063.54,3335.68,174.92,870.00,850.20
1804,1063.79,3337.91,130.15,869.00,851.60
1806,1064.05,3340.14,199.22,872.70,852.20
1808,1064.30,3342.36,116.25,868.20,852.60
1810,1064.55,3344.59,178.70,871.00,852.80
1812,1064.80,3346.81,136.21,867.70,851.40
1814,1065.05,3349.02,189.88,869.40,850.40
1816,1065.30,3351.24,204.04,871.90,852.90
1818,1065.55,3353.45,154.81,867.10,851.00
1820,1065.81,3355.66,152.81,871.80,855.80
1822,1066.06,3357.87,172.37,868.20,851.00
1824,1066.31,3360.07,108.10,865.40,851.60
1826,1066.56,3362.27,140.97,868.90,854.30
1828,1066.81,3364.47,214.19,868.00,851.20
1830,1067.06,3366.67,276.99,870.10,850.80
1832,1067.31,3368.87,170.88,866.90,851.40
1834,1067.56,3371.06,135.02,862.10,848.00
1836,1067.81,3373.25,134.71,863.30,849.70
1838,1068.06,3375.44,165.38,866.00,852.00
1840,1068.31,3377.62,120.36,863.80,852.20
1842,1068.56,3379.81,169.78,863.00,849.50
1844,1068.80,3381.99,101.25,864.60,853.30
1846,1069.05,3384.16,91.24,865.90,854.60
1848,1069.30,3386.34,124.27,865.50,852.70
1850,1069.55,3388.51,105.13,862.50,851.50
1852,1069.80,3390.68,187.93,865.80,852.40
1854,1070.05,3392.85,212.92,867.20,853.70
1856,1070.30,3395.02,208.03,863.80,850.70
1858,1070.54,3397.18,210.85,863.80,850.30
1860,1070.79,3399.34,227.47,863.30,848.60
1862,1071.04,3401.50,101.50,862.10,852.40
1864,1071.29,3403.66,189.73,862.30,849.30
1866,1071.53,3405.81,251.80,863.90,849.40
1868,1071.78,3407.96,284.67,865.50,850.80
1870,1072.03,3410.11,228.45,865.40,853.00
1872,1072.27,3412.26,240.00,863.50,850.60
1874,1072.52,3414.40,183.51,862.20,850.80
1876,1072.77,3416.54,108.11,859.80,850.90
1878,1073.01,3418.68,108.63,862.40,853.50
1880,1073.26,3420.82,131.82,859.90,850.60
1882,1073.51,3422.96,208.07,863.00,851.70
1884,1073.75,3425.09,153.79,862.40,853.30
1886,1074.00,3427.22,124.54,859.30,851.30
1888,1074.24,3429.35,184.38,863.40,853.50
1890,1074.49,3431.47,182.68,860.30,850.40
1892,1074.73,3433.59,157.12,859.30,850.40
1894,1074.98,3435.71,254.36,861.20,849.60
1896,1075.22,3437.83,275.92,860.00,848.30
1898,1075.47,3439.95,155.97,860.30,852.40
1900,1075.71,3442.06,276.48,862.40,850.80
1902,1075.96,3444.17,144.40,861.00,853.10
1904,1076.20,3446.28,118.27,857.00,849.90
1906,1076.44,3448.38,181.03,862.20,853.50
1908,1076.69,3450.49,219.31,860.90,851.80
1910,1076.93,3452.59,293.22,860.50,849.50
1912,1077.17,3454.69,213.85,861.60,852.20
1914,1077.42,3456.79,132.52,858.30,851.00
1916,1077.66,3458.88,95.65,858.10,852.30
1918,1077.90,3460.97,355.79,861.70,849.00
1920,1078.15,3463.06,349.89,863.10,851.90
1922,1078.39,3465.15,195.09,860.30,853.10
1924,1078.63,3467.23,191.35,856.30,849.00
1926,1078.87,3469.32,123.67,858.40,852.90
1928,1079.12,3471.40,237.21,858.30,849.80
1930,1079.36,3473.47,152.59,861.20,855.10
1932,1079.60,3475.55,237.25,858.30,849.90
1934,1079.84,3477.62,91.92,858.60,854.30
1936,1080.08,3479.69,164.30,857.30,851.40
1938,1080.33,3481.76,183.86,857.40,851.40
1940,1080.57,3483.83,285.48,859.30,850.80
1942,1080.81,3485.89,178.19,858.50,852.00
1944,1081.05,3487.95,79.21,856.20,852.20
1946,1081.29,3490.01,103.19,856.80,852.20
1948,1081.53,3492.07,173.80,855.60,849.90
1950,1081.77,3494.12,315.20,857.40,849.60
1952,1082.01,3496.18,259.58,857.60,851.00
1954,1082.25,3498.23,131.24,856.90,852.50
1956,1082.49,3500.27,187.09,858.20,851.70
1958,1082.73,3502.32,99.73,855.50,851.70
1960,1082.97,3504.36,242.85,857.80,851.00
1962,1083.21,3506.40,299.99,857.90,850.40
1964,1083.45,3508.44,234.47,856.60,850.60
1966,1083.69,3510.48,335.08,860.00,851.80
1968,1083.93,3512.51,123.98,855.90,852.50
1970,1084.16,3514.54,348.07,857.00,849.20
1972,1084.40,3516.57,309.12,857.10,850.20
1974,1084.64,3518.60,269.22,856.00,849.60
1976,1084.88,3520.62,176.20,858.20,853.50
1978,1085.12,3522.65,199.10,857.90,852.70
1980,1085.36,3524.67,153.27,856.70,853.00
1982,1085.59,3526.68,161.36,853.90,850.40
1984,1085.83,3528.70,243.28,858.20,853.10
1986,1086.07,3530.71,185.20,855.80,851.40
1988,1086.31,3532.72,112.99,856.50,853.40
1990,1086.54,3534.73,121.64,854.70,851.40
1992,1086.78,3536.74,112.12,856.20,853.50
1994,1087.02,3538.74,394.90,859.40,851.60
1996,1087.25,3540.74,308.82,855.30,849.60
1998,1087.49,3542.74,274.64,856.30,851.40
2000,1087.73,3544.74,355.95,857.70,851.60
2002,1087.96,3546.74,483.81,857.30,848.80
2004,1088.20,3548.73,249.25,856.50,851.60
2006,1088.43,3550.72,77.93,854.30,852.70
2008,1088.67,3552.71,230.12,853.80,849.30
2010,1088.90,3554.69,243.66,855.20,850.90
2012,1089.14,3556.68,98.97,855.10,853.50
2014,1089.38,3558.66,203.46,854.20,850.70
2016,1089.61,3560.64,356.97,857.00,850.60
2018,1089.84,3562.62,219.18,856.50,852.60
2020,1090.08,3564.59,0.00,851.40,852.40
2022,1090.31,3566.56,259.59,854.60,850.40
2024,1090.55,3568.53,272.97,856.00,852.00
2026,1090.78,3570.50,352.31,856.50,851.40
2028,1091.02,3572.47,197.11,854.60,851.40
2030,1091.25,3574.43,100.44,853.80,851.80
2032,1091.48,3576.39,84.29,852.50,850.60
2034,1091.72,3578.35,113.44,851.60,849.20
2036,1091.95,3580.31,283.74,855.50,850.60
2038,1092.18,3582.26,40.13,853.10,852.20
2040,1092.42,3584.22,274.79,852.30,848.60
2042,1092.65,3586.17,0.00,851.60,851.70
2044,1092.88,3588.12,186.35,850.40,846.60
2046,1093.11,3590.06,17.66,849.30,847.70
2047,1093.23,3591.03,13.26,850.00,847.70