File: plugins/Raman/MatchingLibrary/785X/caffeine.csv
ENLIGHTEN Version,4.1.22
Measurement ID,20250220-203100-186764-WP-01977
Serial Number,WP-01977
Model,WP-785X-F13-R-ILC
Detector,S16011-1106
Label,caffeine
Declared Match,
Declared Score,0
Scan Averaging,4
Boxcar,0
Technique,Raman
Baseline Correction Algo,AirPLS
ROI Pixel Start,47
ROI Pixel End,2047
ROI Start Line,0
ROI Stop Line,63
CCD C4,1.38617e-12
Slit Width,25
Cropped,True
Interpolated,False
Wavenumber Correction,-0.100481
Raman Intensity Corrected,True
Deconvolved,True
Region,
High Gain Mode,False
Laser Power mW,
Electrical Dark Correction,False
Battery %,
Device ID,<DeviceID USB:0x24aa:0x1000:0:1>
FW Version,10.0.0.10
FPGA Version,035-001
BLE Version,
Prefix,enlighten
Suffix,
Preset,
Auto-Raman,True
Session Count,0
Plugin Name,
Integration Time,300
Timestamp,2025-02-20 20:31:00.186764
Note,
Temperature,0
CCD C0,793.274
CCD C1,0.153259
CCD C2,1.40788e-05
CCD C3,-1.132e-08
CCD Offset,0
CCD Gain,1.9
CCD Offset Odd,0
CCD Gain Odd,1.9
Laser Wavelength,785.032
Laser Enable,False
Laser Power %,0
Laser Temperature,0
Pixel Count,2048

Pixel,Wavelength,Wavenumber,Processed,Raw,Dark
0,793.27,132.25,NA,967.50,909.50
2,793.58,137.12,NA,989.25,919.50
4,793.89,141.99,NA,981.50,914.25
6,794.19,146.86,NA,978.00,915.00
8,794.50,151.72,NA,989.00,927.50
10,794.81,156.58,NA,991.25,920.00
12,795.12,161.44,NA,977.25,915.75
14,795.42,166.30,NA,986.25,913.50
16,795.73,171.16,NA,989.00,916.75
18,796.04,176.01,NA,1006.25,923.00
20,796.35,180.86,NA,1006.00,922.00
22,796.65,185.71,NA,1029.75,942.00
24,796.96,190.56,NA,1012.25,927.50
26,797.27,195.41,NA,1022.50,936.25
28,797.58,200.25,NA,1028.50,929.50
30,797.88,205.09,NA,1012.00,917.50
32,798.19,209.93,NA,1021.75,922.50
34,798.50,214.77,NA,1029.25,923.50
36,798.81,219.60,NA,1052.75,926.50
38,799.12,224.43,NA,1140.25,929.75
40,799.43,229.27,NA,1545.50,936.50
42,799.74,234.09,NA,3055.00,929.50
44,800.04,238.92,NA,5013.75,952.50
46,800.35,243.75,NA,5442.25,930.75
48,800.66,248.57,250.11,5168.00,944.75
50,800.97,253.39,0.80,4956.00,940.50
52,801.28,258.21,0.00,4872.25,943.50
54,801.59,263.02,0.00,4843.50,938.75
56,801.90,267.83,0.00,4853.75,936.75
58,802.21,272.65,0.00,4891.00,942.25
60,802.52,277.46,0.72,4961.50,940.50
62,802.83,282.26,42.98,5037.50,951.50
64,803.14,287.07,54.04,5094.00,951.25
66,803.45,291.87,120.00,5196.00,948.00
68,803.76,296.67,141.37,5269.00,952.75
70,804.07,301.47,259.08,5470.75,939.50
72,804.38,306.26,508.49,5796.00,932.25
74,804.69,311.06,820.16,6153.75,937.00
76,805.00,315.85,918.11,6272.00,938.00
78,805.31,320.64,676.33,6051.75,937.75
80,805.62,325.42,316.06,5666.75,941.00
82,805.93,330.21,59.46,5370.00,940.25
84,806.24,334.99,0.71,5257.75,930.50
86,806.55,339.77,0.00,5218.25,935.75
88,806.86,344.55,0.00,5265.25,941.50
90,807.17,349.32,3.41,5397.00,929.25
92,807.48,354.10,187.78,5774.25,936.50
94,807.80,358.87,742.20,6512.50,945.25
96,808.11,363.63,1481.43,7386.75,945.25
98,808.42,368.40,1752.18,7773.25,934.25
100,808.73,373.16,1531.23,7644.00,935.50
102,809.04,377.93,1178.17,7319.75,927.00
104,809.35,382.68,1017.47,7215.25,932.50
106,809.66,387.44,1445.07,7666.75,939.00
108,809.98,392.19,1763.82,7866.25,927.00
110,810.29,396.95,1076.92,7226.75,943.00
112,810.60,401.70,296.28,6346.75,931.25
114,810.91,406.44,8.30,5925.00,934.25
116,811.22,411.19,0.00,5786.50,941.25
118,811.54,415.93,0.00,5867.50,939.50
120,811.85,420.67,16.92,6003.00,929.00
122,812.16,425.41,188.95,6227.50,934.50
124,812.47,430.14,324.38,6616.50,939.75
126,812.79,434.87,791.95,7605.50,929.75
128,813.10,439.60,2564.07,9860.50,927.75
130,813.41,444.33,4426.42,11576.50,939.25
132,813.72,449.06,3026.79,10376.25,927.00
134,814.04,453.78,1004.47,8087.25,931.25
136,814.35,458.50,242.99,6796.50,927.25
138,814.66,463.22,84.13,6457.50,921.50
140,814.98,467.93,128.33,6591.25,929.00
142,815.29,472.65,451.88,7374.50,932.75
144,815.60,477.36,2042.50,9887.00,932.75
146,815.92,482.06,5505.35,13149.25,920.00
148,816.23,486.77,4861.65,12604.00,937.75
150,816.54,491.47,1316.48,8981.75,956.50
152,816.86,496.17,100.18,6830.00,925.00
154,817.17,500.87,0.05,6201.75,937.00
156,817.48,505.57,0.00,6055.00,929.50
158,817.80,510.26,0.00,6006.50,928.50
160,818.11,514.95,0.00,6048.25,938.25
162,818.42,519.64,0.00,6174.00,936.25
164,818.74,524.32,0.00,6445.50,933.50
166,819.05,529.00,57.45,6864.00,936.75
168,819.37,533.68,550.47,7681.25,934.00
170,819.68,538.36,1416.24,9394.75,946.25
172,819.99,543.04,3403.04,13429.25,948.25
174,820.31,547.71,8652.58,21896.25,933.50
176,820.62,552.38,18510.46,33741.25,927.75
178,820.94,557.05,22743.41,38334.50,935.75
180,821.25,561.71,15552.55,31064.50,926.75
182,821.57,566.37,8081.61,21078.75,927.75
184,821.88,571.03,4579.40,14952.00,930.75
186,822.20,575.69,2758.22,11576.25,936.75
188,822.51,580.34,1618.19,9609.00,935.00
190,822.83,584.99,876.89,8338.00,936.25
192,823.14,589.64,251.74,7525.50,933.00
194,823.46,594.29,1.90,6931.50,932.00
196,823.77,598.93,0.00,6622.25,929.50
198,824.09,603.57,0.00,6699.25,917.00
200,824.40,608.21,127.79,6954.00,930.75
202,824.72,612.85,361.42,7008.00,943.50
204,825.03,617.48,39.06,6728.75,932.75
206,825.35,622.11,0.00,6461.00,942.75
208,825.66,626.74,0.00,6328.50,939.25
210,825.98,631.36,4.21,6609.75,925.50
212,826.29,635.99,506.62,8052.50,930.25
214,826.61,640.61,3261.72,11139.50,936.75
216,826.92,645.22,4816.71,12424.00,926.25
218,827.24,649.84,1990.94,9822.00,919.75
220,827.56,654.45,260.19,7208.00,934.50
222,827.87,659.06,5.58,6270.75,934.50
224,828.19,663.67,0.00,6034.50,931.75
226,828.50,668.27,0.00,5971.50,957.25
228,828.82,672.87,0.00,5932.00,937.00
230,829.13,677.47,0.00,5953.50,925.00
232,829.45,682.06,0.00,5984.50,935.50
234,829.77,686.66,0.00,6016.00,966.00
236,830.08,691.25,9.57,6162.25,929.00
238,830.40,695.83,231.02,6412.50,927.00
240,830.72,700.42,338.45,6499.25,923.00
242,831.03,705.00,31.35,6262.75,906.50
244,831.35,709.58,0.00,6126.00,928.50
246,831.66,714.15,0.00,6079.00,916.50
248,831.98,718.73,0.92,6224.25,931.25
250,832.30,723.30,69.78,6439.00,919.25
252,832.61,727.87,342.71,7133.75,938.25
254,832.93,732.43,1173.41,8985.00,906.25
256,833.25,736.99,4124.25,12970.00,935.75
258,833.56,741.55,6724.00,15382.50,925.50
260,833.88,746.11,3761.81,12646.25,924.50
262,834.20,750.66,1123.10,8979.50,926.25
264,834.51,755.22,486.59,7499.00,930.00
266,834.83,759.76,410.75,7094.50,928.75
268,835.15,764.31,469.53,7021.25,932.25
270,835.47,768.85,156.83,6731.50,916.25
272,835.78,773.39,0.86,6428.75,920.50
274,836.10,777.93,0.00,6337.00,921.50
276,836.42,782.46,0.00,6339.50,922.50
278,836.73,787.00,0.33,6430.50,920.75
280,837.05,791.52,56.72,6768.50,915.25
282,837.37,796.05,716.66,8040.00,933.75
284,837.69,800.57,2602.85,9779.25,922.00
286,838.00,805.09,1719.19,9133.00,921.75
288,838.32,809.61,275.49,7327.00,925.50
290,838.64,814.13,64.76,6705.50,932.25
292,838.95,818.64,33.94,6525.75,927.00
294,839.27,823.15,4.18,6487.25,922.75
296,839.59,827.65,0.00,6460.00,929.50
298,839.91,832.15,0.00,6455.75,920.00
300,840.22,836.65,0.00,6468.25,944.00
302,840.54,841.15,0.00,6470.00,920.25
304,840.86,845.65,0.00,6515.50,936.25
306,841.18,850.14,0.92,6587.25,937.50
308,841.50,854.63,29.43,6672.00,954.25
310,841.81,859.11,81.26,6746.50,926.00
312,842.13,863.60,126.06,6846.25,931.25
314,842.45,868.07,134.17,6873.75,922.75
316,842.77,872.55,81.81,6851.75,935.00
318,843.08,877.03,54.48,6824.75,937.00
320,843.40,881.50,23.68,6802.00,912.25
322,843.72,885.97,4.50,6808.75,933.50
324,844.04,890.43,6.27,6815.00,921.25
326,844.36,894.89,37.97,6894.50,923.50
328,844.67,899.35,0.00,6866.50,933.75
330,844.99,903.81,0.00,6875.25,910.50
332,845.31,908.26,0.51,6937.75,929.50
334,845.63,912.71,25.95,7067.00,932.50
336,845.95,917.16,158.35,7469.25,931.50
338,846.27,921.61,712.77,8654.00,1056.50
340,846.58,926.05,2039.04,9975.75,922.50
342,846.90,930.49,2059.72,10042.50,931.75
344,847.22,934.92,715.76,8608.50,930.50
346,847.54,939.36,172.62,7613.25,909.00
348,847.86,943.79,34.49,7286.25,919.00
350,848.18,948.21,0.17,7202.50,923.50
352,848.49,952.64,0.00,7189.00,923.00
354,848.81,957.06,0.00,7215.25,911.25
356,849.13,961.48,0.00,7288.25,945.00
358,849.45,965.89,25.94,7531.25,936.25
360,849.77,970.31,283.75,7900.00,927.00
362,850.09,974.71,492.74,8174.25,926.50
364,850.40,979.12,470.42,8204.25,937.75
366,850.72,983.52,189.52,7968.25,939.75
368,851.04,987.92,6.56,7679.25,912.75
370,851.36,992.32,0.00,7638.00,920.50
372,851.68,996.72,0.00,7615.50,924.00
374,852.00,1001.11,0.00,7727.50,915.00
376,852.32,1005.50,0.34,7880.25,913.50
378,852.63,1009.88,38.48,8161.00,944.50
380,852.95,1014.26,358.60,8808.75,927.50
382,853.27,1018.64,1096.70,9800.50,930.75
384,853.59,1023.02,1413.21,10203.75,923.00
386,853.91,1027.39,988.98,9809.75,918.75
388,854.23,1031.76,344.27,9077.25,917.00
390,854.55,1036.13,23.32,8581.75,925.50
392,854.87,1040.49,0.00,8467.75,917.75
394,855.18,1044.86,0.00,8507.00,930.00
396,855.50,1049.21,1.08,8683.50,926.50
398,855.82,1053.57,70.97,8991.25,930.75
400,856.14,1057.92,404.87,9702.75,924.75
402,856.46,1062.27,1108.36,10885.75,928.25
404,856.78,1066.62,2063.18,12261.75,914.00
406,857.10,1070.96,2526.79,13023.75,915.75
408,857.42,1075.30,2341.54,12954.50,936.00
410,857.74,1079.64,1834.75,12274.00,922.00
412,858.06,1083.97,1218.64,11408.00,918.50
414,858.37,1088.30,577.06,10487.50,917.00
416,858.69,1092.63,217.46,9945.25,914.50
418,859.01,1096.95,28.28,9721.00,912.50
420,859.33,1101.27,0.00,9634.25,927.25
422,859.65,1105.59,0.00,9697.50,923.25
424,859.97,1109.91,0.00,9761.25,915.50
426,860.29,1114.22,0.08,9911.00,915.00
428,860.61,1118.53,34.15,10124.50,919.75
430,860.93,1122.84,160.25,10379.50,923.50
432,861.25,1127.14,274.48,10654.00,932.75
434,861.56,1131.44,428.07,10943.50,920.25
436,861.88,1135.74,469.17,11086.00,917.00
438,862.20,1140.03,356.28,11039.50,924.00
440,862.52,1144.32,196.85,10904.25,922.50
442,862.84,1148.61,85.58,10820.00,931.75
444,863.16,1152.89,35.37,10815.25,920.00
446,863.48,1157.17,1.43,10855.75,930.25
448,863.80,1161.45,0.00,10863.50,923.75
450,864.12,1165.73,0.00,10937.75,922.50
452,864.44,1170.00,0.00,10996.00,917.00
454,864.76,1174.27,0.00,11138.50,923.25
456,865.07,1178.53,0.00,11369.00,913.75
458,865.39,1182.80,39.73,11832.50,926.75
460,865.71,1187.06,377.46,12249.75,918.50
462,866.03,1191.31,323.02,12393.00,922.25
464,866.35,1195.57,19.09,12310.75,927.50
466,866.67,1199.82,0.00,12216.50,925.00
468,866.99,1204.06,0.00,12305.50,924.00
470,867.31,1208.31,0.00,12616.25,932.75
472,867.63,1212.55,0.84,13017.50,923.00
474,867.95,1216.79,94.85,13539.50,911.75
476,868.27,1221.02,466.24,14409.25,928.00
478,868.58,1225.25,1210.75,15768.00,912.25
480,868.90,1229.48,2024.48,17276.00,932.00
482,869.22,1233.71,2713.36,18679.00,934.00
484,869.54,1237.93,3591.34,20088.75,939.50
486,869.86,1242.15,3863.43,20684.50,926.50
488,870.18,1246.36,3188.84,20122.75,914.25
490,870.50,1250.58,2781.91,19436.25,929.25
492,870.82,1254.79,2010.96,18472.00,948.25
494,871.14,1258.99,256.15,16837.00,931.00
496,871.46,1263.20,0.09,15896.50,928.75
498,871.78,1267.40,0.00,15723.00,917.25
500,872.10,1271.59,0.51,16516.00,920.75
502,872.41,1275.79,314.25,18303.75,921.25
504,872.73,1279.98,2638.12,21432.00,932.00
506,873.05,1284.17,4977.77,23962.25,932.25
508,873.37,1288.35,4190.69,23597.00,905.50
510,873.69,1292.53,1572.88,21135.00,917.50
512,874.01,1296.71,192.82,19286.50,918.25
514,874.33,1300.88,4.09,18751.75,909.50
516,874.65,1305.06,3.40,18985.75,921.50
518,874.97,1309.22,191.21,19864.00,917.00
520,875.29,1313.39,1109.43,21654.00,923.75
522,875.60,1317.55,2859.83,25248.25,924.25
524,875.92,1321.71,7098.11,32037.00,921.00
526,876.24,1325.87,14337.72,40127.75,928.75
528,876.56,1330.02,16277.14,41989.25,923.00
530,876.88,1334.17,9053.50,35010.00,932.00
532,877.20,1338.32,3666.68,27617.50,911.00
534,877.52,1342.46,2164.99,24613.50,913.00
536,877.84,1346.60,1979.78,24100.25,926.50
538,878.16,1350.73,2613.03,25242.50,922.75
540,878.47,1354.87,4456.65,27842.50,923.00
542,878.79,1359.00,6979.80,30510.75,923.00
544,879.11,1363.13,6562.29,30216.00,928.00
546,879.43,1367.25,3646.68,27208.75,916.00
548,879.75,1371.37,1969.36,24898.00,919.75
550,880.07,1375.49,1561.63,24081.00,921.00
552,880.39,1379.60,1760.71,24227.75,926.50
554,880.71,1383.71,2009.64,24626.25,920.50
556,881.03,1387.82,2045.57,24866.75,918.75
558,881.34,1391.93,2184.03,25230.50,910.25
560,881.66,1396.03,2350.44,25609.00,913.75
562,881.98,1400.13,2606.73,26062.25,929.75
564,882.30,1404.22,2666.89,26223.25,926.00
566,882.62,1408.31,2615.31,26103.75,916.75
568,882.94,1412.40,2200.43,25534.75,927.25
570,883.26,1416.49,1031.34,24343.00,920.50
572,883.57,1420.57,260.66,23354.50,932.75
574,883.89,1424.65,168.23,23089.25,914.00
576,884.21,1428.73,512.86,23420.00,934.25
578,884.53,1432.80,750.87,23559.00,933.75
580,884.85,1436.87,746.64,23600.50,924.00
582,885.17,1440.93,990.44,23883.75,910.25
584,885.49,1445.00,1445.69,24350.75,910.25
586,885.80,1449.06,1701.84,24632.25,912.25
588,886.12,1453.11,1951.50,24899.50,934.75
590,886.44,1457.17,2012.25,24889.00,924.00
592,886.76,1461.22,1867.55,24661.75,926.00
594,887.08,1465.26,1914.29,24604.75,931.00
596,887.40,1469.31,1913.02,24429.50,915.50
598,887.71,1473.35,1825.41,24196.50,913.75
600,888.03,1477.38,1669.24,23941.25,923.00
602,888.35,1481.42,1529.95,23675.25,930.50
604,888.67,1485.45,1660.13,23678.25,922.25
606,888.99,1489.48,1752.61,23595.25,916.50
608,889.31,1493.50,1693.59,23382.50,928.25
610,889.62,1497.52,1324.52,22780.50,927.00
612,889.94,1501.54,868.42,22043.25,910.75
614,890.26,1505.56,397.68,21348.25,920.75
616,890.58,1509.57,95.48,20773.00,920.25
618,890.90,1513.57,10.20,20535.25,915.25
620,891.21,1517.58,0.00,20311.25,922.50
622,891.53,1521.58,0.00,20178.50,927.50
624,891.85,1525.58,0.00,20087.25,917.00
626,892.17,1529.57,0.00,19978.25,931.75
628,892.49,1533.57,0.00,19940.50,926.00
630,892.80,1537.56,0.00,19908.00,918.50
632,893.12,1541.54,54.61,20018.75,914.25
634,893.44,1545.52,232.16,20165.25,923.75
636,893.76,1549.50,519.04,20452.50,911.50
638,894.07,1553.48,827.36,20687.25,926.50
640,894.39,1557.45,683.21,20493.00,913.75
642,894.71,1561.42,303.62,20038.00,932.00
644,895.03,1565.39,137.80,19703.25,912.50
646,895.34,1569.35,69.74,19521.00,931.00
648,895.66,1573.31,47.78,19403.50,916.50
650,895.98,1577.26,5.18,19280.50,912.25
652,896.30,1581.22,0.74,19189.00,911.25
654,896.61,1585.17,48.54,19515.75,924.00
656,896.93,1589.11,667.46,20775.50,923.50
658,897.25,1593.06,2788.64,23522.25,917.75
660,897.57,1597.00,6345.89,26963.25,926.50
662,897.88,1600.93,7933.87,28134.25,923.50
664,898.20,1604.87,4965.78,25529.50,921.00
666,898.52,1608.80,1564.17,21757.50,917.00
668,898.84,1612.72,283.49,19460.00,909.75
670,899.15,1616.65,17.16,18652.75,925.00
672,899.47,1620.57,0.00,18300.00,910.25
674,899.79,1624.49,0.00,18145.75,915.00
676,900.10,1628.40,0.00,18071.75,917.75
678,900.42,1632.31,0.00,18106.75,924.50
680,900.74,1636.22,1.72,18187.75,902.50
682,901.05,1640.12,172.30,18678.25,935.50
684,901.37,1644.02,899.53,19517.75,921.50
686,901.69,1647.92,2104.09,20900.25,920.50
688,902.00,1651.82,3106.24,22050.00,916.50
690,902.32,1655.71,3539.53,22567.50,917.25
692,902.64,1659.60,3482.24,22381.25,911.25
694,902.95,1663.48,2720.01,21446.00,928.00
696,903.27,1667.36,1432.60,19970.75,919.25
698,903.59,1671.24,496.80,18759.50,923.50
700,903.90,1675.11,136.15,18114.75,916.75
702,904.22,1678.99,108.25,17984.00,910.75
704,904.54,1682.85,472.01,18695.50,939.25
706,904.85,1686.72,1665.08,20385.50,911.25
708,905.17,1690.58,4482.44,23672.50,916.50
710,905.49,1694.44,7932.86,27006.00,914.00
712,905.80,1698.29,9435.17,28367.25,913.75
714,906.12,1702.15,8162.62,27160.25,921.75
716,906.43,1706.00,5177.37,23934.75,923.75
718,906.75,1709.84,2972.96,21016.50,931.25
720,907.07,1713.68,1777.23,19044.25,913.75
722,907.38,1717.52,1037.56,17768.00,917.00
724,907.70,1721.36,527.20,16907.50,919.75
726,908.01,1725.19,257.97,16352.00,924.50
728,908.33,1729.02,121.22,15962.50,926.00
730,908.65,1732.85,21.35,15659.25,920.50
732,908.96,1736.67,0.00,15307.00,921.00
734,909.28,1740.49,0.00,15117.75,909.50
736,909.59,1744.30,0.00,14872.25,927.75
738,909.91,1748.12,0.00,14736.25,915.50
740,910.22,1751.93,0.00,14649.75,928.00
742,910.54,1755.73,0.00,14492.25,949.00
744,910.85,1759.54,0.00,14379.75,926.75
746,911.17,1763.34,0.00,14124.25,914.00
748,911.49,1767.13,0.00,14043.75,925.75
750,911.80,1770.93,0.00,13970.00,914.50
752,912.12,1774.72,0.00,13854.00,920.50
754,912.43,1778.50,0.00,13844.25,912.25
756,912.75,1782.29,0.10,13788.50,912.75
758,913.06,1786.07,49.79,13814.00,914.00
760,913.38,1789.84,142.39,13786.50,920.00
762,913.69,1793.62,72.35,13676.00,924.00
764,914.01,1797.39,75.08,13598.25,917.75
766,914.32,1801.15,108.84,13565.50,918.50
768,914.64,1804.92,13.70,13396.25,914.25
770,914.95,1808.68,10.85,13322.75,919.75
772,915.26,1812.44,8.87,13247.25,927.50
774,915.58,1816.19,19.00,13169.75,906.50
776,915.89,1819.94,69.82,13162.00,920.25
778,916.21,1823.69,163.20,13171.00,924.50
780,916.52,1827.43,197.52,13152.00,934.25
782,916.84,1831.17,256.94,13114.50,912.50
784,917.15,1834.91,302.03,13084.75,911.75
786,917.47,1838.64,335.75,13052.00,920.75
788,917.78,1842.38,346.37,12980.25,922.00
790,918.09,1846.10,369.41,12918.50,918.50
792,918.41,1849.83,317.70,12789.50,920.25
794,918.72,1853.55,297.34,12668.75,910.25
796,919.04,1857.27,308.88,12602.25,918.50
798,919.35,1860.98,331.91,12551.50,913.75
800,919.66,1864.69,360.36,12510.25,914.50
802,919.98,1868.40,442.14,12524.00,922.50
804,920.29,1872.11,456.20,12434.50,917.75
806,920.60,1875.81,542.25,12448.75,915.25
808,920.92,1879.51,536.40,12374.75,916.50
810,921.23,1883.20,527.41,12283.50,922.00
812,921.55,1886.90,547.24,12207.75,912.25
814,921.86,1890.58,493.46,12096.75,931.50
816,922.17,1894.27,444.23,11963.00,931.50
818,922.49,1897.95,475.43,11893.25,923.00
820,922.80,1901.63,416.01,11734.75,919.75
822,923.11,1905.31,400.17,11653.50,914.25
824,923.42,1908.98,359.46,11543.00,930.25
826,923.74,1912.65,420.01,11508.25,925.50
828,924.05,1916.31,426.25,11431.75,920.00
830,924.36,1919.98,501.06,11427.25,911.00
832,924.68,1923.64,465.96,11312.75,910.50
834,924.99,1927.29,455.55,11224.75,915.50
836,925.30,1930.94,507.27,11176.25,907.50
838,925.61,1934.59,455.55,11050.75,915.75
840,925.93,1938.24,403.54,10931.00,915.50
842,926.24,1941.88,337.82,10788.00,919.50
844,926.55,1945.52,313.59,10666.00,912.75
846,926.86,1949.16,312.10,10591.75,920.50
848,927.18,1952.79,265.37,10460.25,912.75
850,927.49,1956.42,255.85,10363.00,911.00
852,927.80,1960.05,302.10,10384.00,958.75
854,928.11,1963.67,264.13,10232.25,916.50
856,928.42,1967.29,289.31,10192.25,924.25
858,928.74,1970.91,290.80,10086.50,913.75
860,929.05,1974.52,325.08,10037.00,910.75
862,929.36,1978.13,241.62,9897.00,914.25
864,929.67,1981.74,169.00,9745.00,915.50
866,929.98,1985.35,151.20,9640.25,914.50
868,930.29,1988.95,92.25,9501.25,916.50
870,930.61,1992.54,52.14,9397.00,915.00
872,930.92,1996.14,28.74,9299.50,914.75
874,931.23,1999.73,2.63,9189.00,923.00
876,931.54,2003.32,28.01,9148.00,923.50
878,931.85,2006.90,45.65,9066.50,922.25
880,932.16,2010.48,60.16,9000.00,914.50
882,932.47,2014.06,38.28,8901.25,907.00
884,932.78,2017.63,53.76,8848.50,919.25
886,933.09,2021.21,63.42,8766.50,915.00
888,933.41,2024.77,86.05,8708.25,920.00
890,933.72,2028.34,25.13,8595.50,934.75
892,934.03,2031.90,4.64,8495.50,917.00
894,934.34,2035.46,0.02,8406.75,922.00
896,934.65,2039.01,0.00,8306.50,909.50
898,934.96,2042.57,0.00,8217.50,920.50
900,935.27,2046.11,0.00,8166.75,936.75
902,935.58,2049.66,0.21,8107.00,906.50
904,935.89,2053.20,0.00,8041.50,921.00
906,936.20,2056.74,0.00,7983.00,914.50
908,936.51,2060.28,12.96,7958.00,917.00
910,936.82,2063.81,18.48,7904.00,926.00
912,937.13,2067.34,84.47,7885.50,916.75
914,937.44,2070.86,82.77,7819.25,914.75
916,937.75,2074.39,39.48,7732.25,906.00
918,938.06,2077.91,0.50,7631.50,910.75
920,938.37,2081.42,6.08,7587.50,918.25
922,938.68,2084.94,0.00,7487.75,913.25
924,938.99,2088.45,0.00,7454.00,914.50
926,939.30,2091.95,0.00,7407.25,919.75
928,939.60,2095.46,0.00,7350.75,912.75
930,939.91,2098.96,0.24,7342.50,927.00
932,940.22,2102.45,13.91,7312.00,919.75
934,940.53,2105.95,33.91,7267.25,913.50
936,940.84,2109.44,60.95,7256.75,913.25
938,941.15,2112.92,13.20,7190.50,926.50
940,941.46,2116.41,19.24,7146.00,914.50
942,941.77,2119.89,38.92,7128.75,923.00
944,942.07,2123.37,64.86,7095.00,912.25
946,942.38,2126.84,24.40,7037.50,923.50
948,942.69,2130.31,20.85,7008.50,919.50
950,943.00,2133.78,0.54,6938.00,921.00
952,943.31,2137.24,0.00,6897.25,921.50
954,943.62,2140.70,0.00,6848.00,922.00
956,943.92,2144.16,0.00,6811.75,916.75
958,944.23,2147.62,18.26,6818.25,922.00
960,944.54,2151.07,26.98,6794.75,936.25
962,944.85,2154.52,55.40,6785.00,933.25
964,945.16,2157.96,31.21,6727.00,925.75
966,945.46,2161.40,36.04,6691.00,924.50
968,945.77,2164.84,67.86,6651.75,901.00
970,946.08,2168.28,44.87,6623.00,919.50
972,946.39,2171.71,3.38,6562.00,913.50
974,946.69,2175.14,0.00,6511.25,912.00
976,947.00,2178.57,0.00,6486.50,919.75
978,947.31,2181.99,0.00,6439.25,907.00
980,947.61,2185.41,33.12,6457.75,917.50
982,947.92,2188.82,0.00,6380.25,921.00
984,948.23,2192.24,0.00,6349.25,910.50
986,948.53,2195.65,28.91,6376.25,918.75
988,948.84,2199.05,54.09,6340.50,897.25
990,949.15,2202.46,69.68,6352.50,921.00
992,949.45,2205.86,96.57,6356.75,921.75
994,949.76,2209.25,101.39,6319.50,909.75
996,950.07,2212.65,113.09,6305.50,912.25
998,950.37,2216.04,101.65,6272.00,909.75
1000,950.68,2219.43,84.67,6247.00,919.25
1002,950.98,2222.81,86.67,6220.75,923.00
1004,951.29,2226.19,122.29,6206.00,915.75
1006,951.60,2229.57,87.87,6144.50,902.75
1008,951.90,2232.94,61.54,6110.75,908.00
1010,952.21,2236.32,67.31,6093.75,911.75
1012,952.51,2239.68,95.52,6091.00,917.50
1014,952.82,2243.05,90.35,6049.75,904.25
1016,953.12,2246.41,99.79,6053.00,927.00
1018,953.43,2249.77,141.45,6072.00,941.00
1020,953.73,2253.12,125.21,6021.75,926.50
1022,954.04,2256.48,140.65,5985.75,900.25
1024,954.34,2259.83,139.70,5980.00,923.50
1026,954.65,2263.17,122.02,5920.50,910.00
1028,954.95,2266.51,148.91,5923.75,913.75
1030,955.26,2269.85,69.49,5853.75,926.50
1032,955.56,2273.19,83.35,5835.25,925.00
1034,955.87,2276.52,65.73,5793.25,924.75
1036,956.17,2279.85,52.23,5765.50,925.50
1038,956.48,2283.18,0.00,5641.50,906.50
1040,956.78,2286.50,47.94,5688.25,906.50
1042,957.08,2289.82,56.24,5664.00,903.00
1044,957.39,2293.14,120.11,5701.00,920.75
1046,957.69,2296.45,88.30,5640.00,909.50
1048,957.99,2299.76,98.00,5650.00,931.25
1050,958.30,2303.07,97.62,5618.00,922.50
1052,958.60,2306.38,83.40,5581.25,914.00
1054,958.91,2309.68,50.53,5530.00,917.50
1056,959.21,2312.98,72.25,5506.25,911.25
1058,959.51,2316.27,70.18,5484.50,911.50
1060,959.82,2319.56,36.97,5471.75,929.00
1062,960.12,2322.85,7.86,5402.00,907.50
1064,960.42,2326.14,3.21,5368.75,910.75
1066,960.72,2329.42,46.45,5377.25,915.50
1068,961.03,2332.70,50.46,5362.75,918.75
1070,961.33,2335.97,33.92,5335.25,917.50
1072,961.63,2339.25,58.66,5317.50,907.00
1074,961.93,2342.52,69.38,5311.50,917.00
1076,962.24,2345.78,100.01,5304.50,912.25
1078,962.54,2349.05,90.75,5278.50,917.00
1080,962.84,2352.31,54.46,5232.00,915.00
1082,963.14,2355.56,119.78,5248.50,912.75
1084,963.45,2358.82,97.38,5211.25,911.25
1086,963.75,2362.07,31.79,5163.75,922.50
1088,964.05,2365.32,3.82,5126.00,934.75
1090,964.35,2368.56,37.99,5107.25,915.25
1092,964.65,2371.80,22.93,5084.75,922.50
1094,964.95,2375.04,12.12,5056.75,921.00
1096,965.25,2378.27,1.79,5012.00,910.00
1098,965.56,2381.51,52.81,5034.25,916.25
1100,965.86,2384.73,88.74,5033.00,916.50
1102,966.16,2387.96,122.57,5036.00,916.25
1104,966.46,2391.18,69.30,4993.50,926.25
1106,966.76,2394.40,127.45,5000.25,915.00
1108,967.06,2397.62,122.96,4973.75,919.50
1110,967.36,2400.83,96.24,4927.00,908.00
1112,967.66,2404.04,60.31,4902.25,925.50
1114,967.96,2407.25,52.04,4858.75,912.00
1116,968.26,2410.45,50.18,4840.00,916.00
1118,968.56,2413.65,7.79,4788.25,910.50
1120,968.86,2416.85,0.03,4778.25,930.25
1122,969.16,2420.04,17.00,4759.25,916.00
1124,969.46,2423.23,55.15,4751.75,911.25
1126,969.76,2426.42,101.19,4770.75,923.00
1128,970.06,2429.60,77.84,4720.25,908.00
1130,970.36,2432.79,118.29,4739.00,917.00
1132,970.66,2435.96,75.86,4686.75,914.25
1134,970.96,2439.14,126.53,4692.00,913.25
1136,971.26,2442.31,110.78,4674.75,923.75
1138,971.56,2445.48,66.19,4615.25,915.50
1140,971.86,2448.65,88.09,4600.00,910.50
1142,972.16,2451.81,31.01,4552.00,914.50
1144,972.45,2454.97,22.47,4528.25,916.75
1146,972.75,2458.13,14.27,4498.75,916.00
1148,973.05,2461.28,0.00,4451.50,914.75
1150,973.35,2464.43,1.54,4460.00,924.00
1152,973.65,2467.58,0.00,4429.00,918.50
1154,973.95,2470.72,34.26,4447.00,918.00
1156,974.24,2473.86,62.23,4421.75,909.50
1158,974.54,2477.00,64.15,4404.25,911.25
1160,974.84,2480.13,112.28,4425.75,923.50
1162,975.14,2483.27,103.50,4395.50,915.00
1164,975.43,2486.40,113.53,4380.75,905.50
1166,975.73,2489.52,67.91,4343.25,918.75
1168,976.03,2492.64,108.06,4331.00,913.50
1170,976.33,2495.76,72.35,4309.00,923.00
1172,976.62,2498.88,11.49,4249.25,911.75
1174,976.92,2501.99,15.73,4247.75,920.25
1176,977.22,2505.10,36.66,4237.50,924.00
1178,977.51,2508.21,68.79,4218.25,918.25
1180,977.81,2511.31,23.85,4184.00,921.00
1182,978.11,2514.41,40.16,4173.00,912.75
1184,978.40,2517.51,46.04,4160.50,914.25
1186,978.70,2520.61,22.63,4122.50,914.75
1188,979.00,2523.70,62.12,4136.25,926.50
1190,979.29,2526.79,162.21,4147.25,913.50
1192,979.59,2529.87,151.90,4131.50,919.75
1194,979.88,2532.95,169.92,4115.75,909.00
1196,980.18,2536.03,198.42,4117.00,920.50
1198,980.48,2539.11,171.32,4087.75,926.75
1200,980.77,2542.18,133.72,4040.75,915.25
1202,981.07,2545.25,95.01,4007.75,923.50
1204,981.36,2548.32,71.44,3968.50,917.75
1206,981.66,2551.38,73.35,3959.75,923.75
1208,981.95,2554.44,12.02,3899.75,920.25
1210,982.25,2557.50,0.00,3871.50,933.50
1212,982.54,2560.56,50.95,3883.25,920.25
1214,982.84,2563.61,42.29,3866.00,930.50
1216,983.13,2566.66,125.64,3884.00,925.00
1218,983.43,2569.70,96.63,3852.25,925.00
1220,983.72,2572.74,92.18,3833.50,926.00
1222,984.01,2575.78,151.53,3837.00,920.50
1224,984.31,2578.82,119.37,3793.25,912.25
1226,984.60,2581.85,144.70,3795.25,919.50
1228,984.90,2584.88,146.82,3769.75,916.00
1230,985.19,2587.91,138.81,3757.50,916.00
1232,985.48,2590.93,37.08,3695.75,924.50
1234,985.78,2593.96,99.88,3702.75,922.00
1236,986.07,2596.97,134.90,3693.00,921.00
1238,986.36,2599.99,69.44,3661.25,931.25
1240,986.66,2603.00,70.02,3642.50,931.25
1242,986.95,2606.01,69.82,3618.25,929.25
1244,987.24,2609.01,36.58,3582.75,926.00
1246,987.54,2612.02,64.46,3558.25,899.00
1248,987.83,2615.02,11.60,3535.75,926.00
1250,988.12,2618.01,37.71,3530.50,926.75
1252,988.41,2621.01,100.14,3535.50,926.00
1254,988.71,2624.00,72.50,3494.75,912.75
1256,989.00,2626.99,52.17,3476.00,923.00
1258,989.29,2629.97,120.36,3476.75,917.50
1260,989.58,2632.95,78.27,3455.25,927.50
1262,989.87,2635.93,37.21,3419.50,928.25
1264,990.16,2638.91,81.96,3408.25,919.50
1266,990.46,2641.88,0.00,3350.75,922.50
1268,990.75,2644.85,15.20,3371.00,941.50
1270,991.04,2647.81,0.00,3320.25,920.50
1272,991.33,2650.78,11.57,3317.00,922.50
1274,991.62,2653.74,15.03,3294.50,922.00
1276,991.91,2656.70,0.00,3257.75,916.25
1278,992.20,2659.65,13.56,3261.50,923.00
1280,992.49,2662.60,0.00,3221.50,919.25
1282,992.78,2665.55,61.56,3260.75,932.75
1284,993.07,2668.50,85.53,3260.00,934.25
1286,993.36,2671.44,116.20,3256.50,932.00
1288,993.65,2674.38,111.42,3238.75,938.25
1290,993.94,2677.31,66.72,3192.00,926.25
1292,994.23,2680.25,121.30,3205.00,929.00
1294,994.52,2683.18,35.34,3153.00,925.50
1296,994.81,2686.10,77.27,3157.75,925.50
1298,995.10,2689.03,52.40,3123.25,920.50
1300,995.39,2691.95,61.18,3112.00,921.00
1302,995.68,2694.87,21.67,3092.00,931.75
1304,995.97,2697.78,48.23,3094.75,934.25
1306,996.26,2700.70,0.00,3039.75,917.75
1308,996.55,2703.61,43.81,3053.00,924.50
1310,996.84,2706.51,4.33,3029.75,931.25
1312,997.13,2709.42,40.26,3029.75,924.50
1314,997.41,2712.32,20.10,3011.00,931.25
1316,997.70,2715.21,74.34,3004.25,921.00
1318,997.99,2718.11,50.37,2989.25,926.00
1320,998.28,2721.00,26.71,2959.75,916.50
1322,998.57,2723.89,27.22,2968.50,939.00
1324,998.86,2726.77,56.18,2942.25,917.75
1326,999.14,2729.66,52.59,2931.75,920.25
1328,999.43,2732.54,24.13,2921.50,924.00
1330,999.72,2735.41,0.00,2883.00,919.50
1332,1000.01,2738.29,3.80,2891.25,929.25
1334,1000.29,2741.16,0.00,2864.50,928.00
1336,1000.58,2744.03,38.18,2854.75,912.25
1338,1000.87,2746.89,0.00,2847.50,934.25
1340,1001.15,2749.75,1.86,2838.50,924.00
1342,1001.44,2752.61,0.00,2819.75,929.75
1344,1001.73,2755.47,19.87,2815.50,916.50
1346,1002.01,2758.32,3.89,2806.25,922.25
1348,1002.30,2761.17,19.70,2813.00,931.00
1350,1002.59,2764.02,50.56,2818.75,934.75
1352,1002.87,2766.86,21.07,2785.25,920.25
1354,1003.16,2769.70,47.99,2786.50,920.00
1356,1003.44,2772.54,63.03,2780.75,918.25
1358,1003.73,2775.38,88.41,2788.25,923.50
1360,1004.01,2778.21,106.24,2778.25,915.50
1362,1004.30,2781.04,112.36,2771.50,920.50
1364,1004.58,2783.87,94.47,2756.50,921.00
1366,1004.87,2786.69,117.74,2748.50,909.50
1368,1005.15,2789.51,164.81,2776.25,926.25
1370,1005.44,2792.33,228.61,2788.50,932.25
1372,1005.72,2795.14,323.59,2798.75,929.25
1374,1006.01,2797.95,331.51,2794.50,931.00
1376,1006.29,2800.76,390.72,2790.50,915.50
1378,1006.58,2803.57,321.96,2785.25,941.00
1380,1006.86,2806.37,263.55,2736.00,919.25
1382,1007.14,2809.17,357.75,2755.75,922.50
1384,1007.43,2811.97,344.84,2728.50,911.25
1386,1007.71,2814.77,240.94,2694.50,912.25
1388,1008.00,2817.56,170.27,2668.25,913.50
1390,1008.28,2820.35,132.16,2660.25,928.50
1392,1008.56,2823.13,91.54,2627.00,920.25
1394,1008.85,2825.91,56.36,2611.50,927.50
1396,1009.13,2828.69,58.62,2603.00,922.25
1398,1009.41,2831.47,0.00,2562.00,931.00
1400,1009.69,2834.24,0.00,2550.00,912.75
1402,1009.98,2837.02,0.00,2532.00,920.25
1404,1010.26,2839.78,0.00,2551.50,931.25
1406,1010.54,2842.55,0.00,2526.50,915.00
1408,1010.82,2845.31,0.00,2535.75,923.50
1410,1011.11,2848.07,0.00,2564.25,932.75
1412,1011.39,2850.83,39.22,2595.75,932.00
1414,1011.67,2853.58,19.48,2593.25,926.00
1416,1011.95,2856.33,0.00,2581.00,923.50
1418,1012.23,2859.08,0.00,2598.50,921.75
1420,1012.51,2861.83,0.00,2607.75,917.50
1422,1012.80,2864.57,0.00,2636.00,945.00
1424,1013.08,2867.31,40.38,2661.25,932.75
1426,1013.36,2870.04,26.12,2675.25,930.50
1428,1013.64,2872.78,0.00,2670.25,926.75
1430,1013.92,2875.51,26.97,2715.75,942.75
1432,1014.20,2878.24,112.11,2736.00,930.00
1434,1014.48,2880.96,159.84,2745.25,920.25
1436,1014.76,2883.68,200.12,2758.00,911.75
1438,1015.04,2886.40,207.07,2773.50,918.00
1440,1015.32,2889.12,107.44,2779.00,932.50
1442,1015.60,2891.83,81.08,2786.25,916.25
1444,1015.88,2894.54,2.78,2784.00,927.75
1446,1016.16,2897.25,0.00,2756.00,912.25
1448,1016.44,2899.96,0.00,2775.75,930.00
1450,1016.72,2902.66,0.00,2789.25,924.50
1452,1017.00,2905.36,0.00,2825.75,936.25
1454,1017.28,2908.06,0.00,2836.50,916.50
1456,1017.55,2910.75,0.00,2886.25,931.25
1458,1017.83,2913.44,0.00,2898.75,914.25
1460,1018.11,2916.13,0.00,2937.50,929.50
1462,1018.39,2918.81,10.24,2995.75,922.00
1464,1018.67,2921.49,68.68,3043.50,918.25
1466,1018.95,2924.17,280.51,3127.00,923.00
1468,1019.22,2926.85,661.43,3213.50,926.75
1470,1019.50,2929.52,1085.40,3287.00,918.50
1472,1019.78,2932.20,1731.57,3420.75,912.00
1474,1020.06,2934.86,2334.17,3560.25,919.00
1476,1020.33,2937.53,3069.83,3737.50,932.75
1478,1020.61,2940.19,3811.31,3899.00,930.00
1480,1020.89,2942.85,4838.72,4124.00,931.50
1482,1021.17,2945.51,6213.77,4395.50,926.75
1484,1021.44,2948.16,7877.63,4700.00,919.00
1486,1021.72,2950.81,9345.22,4965.75,923.50
1488,1022.00,2953.46,10603.95,5205.00,941.50
1490,1022.27,2956.11,11450.40,5321.25,923.75
1492,1022.55,2958.75,11768.65,5353.75,932.75
1494,1022.82,2961.39,11408.31,5240.00,925.50
1496,1023.10,2964.03,10551.57,5061.25,930.25
1498,1023.38,2966.66,8849.86,4722.00,921.50
1500,1023.65,2969.29,7036.32,4379.75,934.50
1502,1023.93,2971.92,5541.89,4074.75,935.25
1504,1024.20,2974.55,4012.71,3741.00,929.00
1506,1024.48,2977.17,2950.58,3503.75,928.00
1508,1024.75,2979.79,2045.46,3295.25,919.50
1510,1025.03,2982.41,1157.52,3121.00,926.00
1512,1025.30,2985.02,496.70,2984.25,915.50
1514,1025.58,2987.63,104.31,2892.00,930.50
1516,1025.85,2990.24,9.33,2807.75,914.00
1518,1026.13,2992.85,0.18,2784.00,933.25
1520,1026.40,2995.45,0.00,2735.75,927.75
1522,1026.68,2998.05,0.00,2699.50,919.25
1524,1026.95,3000.65,0.16,2697.50,930.00
1526,1027.22,3003.25,34.24,2693.75,927.50
1528,1027.50,3005.84,158.17,2668.75,916.75
1530,1027.77,3008.43,236.66,2667.25,930.75
1532,1028.04,3011.02,286.45,2658.50,933.25
1534,1028.32,3013.60,452.01,2655.75,927.00
1536,1028.59,3016.18,604.45,2657.00,929.25
1538,1028.86,3018.76,472.34,2597.50,910.50
1540,1029.14,3021.34,548.15,2612.00,927.25
1542,1029.41,3023.91,502.91,2578.50,923.00
1544,1029.68,3026.48,749.76,2587.00,915.25
1546,1029.95,3029.05,651.63,2556.75,927.25
1548,1030.22,3031.61,705.94,2542.25,924.50
1550,1030.50,3034.17,773.81,2528.75,922.50
1552,1030.77,3036.73,905.97,2522.25,918.25
1554,1031.04,3039.29,805.59,2500.75,933.00
1556,1031.31,3041.84,693.49,2446.75,917.50
1558,1031.58,3044.39,695.74,2442.75,938.25
1560,1031.85,3046.94,776.90,2425.75,932.25
1562,1032.13,3049.49,435.69,2352.00,926.00
1564,1032.40,3052.03,290.74,2321.50,934.25
1566,1032.67,3054.57,163.09,2269.25,918.75
1568,1032.94,3057.11,79.55,2252.50,931.00
1570,1033.21,3059.64,4.18,2198.00,914.25
1572,1033.48,3062.18,2.81,2199.50,935.00
1574,1033.75,3064.70,33.86,2179.75,927.50
1576,1034.02,3067.23,8.83,2163.75,931.50
1578,1034.29,3069.75,0.00,2117.25,914.00
1580,1034.56,3072.28,0.00,2110.50,927.25
1582,1034.83,3074.79,0.00,2092.50,913.75
1584,1035.10,3077.31,0.00,2098.75,932.00
1586,1035.37,3079.82,0.00,2091.25,919.75
1588,1035.64,3082.33,0.00,2108.00,937.75
1590,1035.91,3084.84,6.37,2107.00,928.00
1592,1036.17,3087.34,59.84,2110.00,925.00
1594,1036.44,3089.85,314.63,2149.00,938.50
1596,1036.71,3092.35,636.96,2155.25,922.50
1598,1036.98,3094.84,1040.49,2194.50,918.50
1600,1037.25,3097.34,1279.11,2220.75,915.50
1602,1037.52,3099.83,1584.36,2271.25,928.00
1604,1037.78,3102.32,2184.73,2338.75,925.00
1606,1038.05,3104.80,2825.79,2409.75,934.50
1608,1038.32,3107.29,3624.62,2471.50,923.00
1610,1038.59,3109.77,4397.42,2543.50,923.50
1612,1038.85,3112.24,4470.72,2530.25,917.50
1614,1039.12,3114.72,4614.10,2551.00,935.50
1616,1039.39,3117.19,4434.36,2494.75,913.75
1618,1039.66,3119.66,3921.95,2442.00,930.25
1620,1039.92,3122.13,3236.26,2362.50,936.00
1622,1040.19,3124.59,2477.44,2262.25,925.50
1624,1040.45,3127.05,1589.35,2151.00,922.75
1626,1040.72,3129.51,1062.01,2089.00,929.50
1628,1040.99,3131.97,554.08,2020.00,932.75
1630,1041.25,3134.42,362.83,1992.75,936.75
1632,1041.52,3136.87,181.25,1938.25,917.50
1634,1041.78,3139.32,45.12,1912.00,923.00
1636,1042.05,3141.77,8.49,1929.50,957.00
1638,1042.32,3144.21,0.00,1867.50,922.50
1640,1042.58,3146.65,0.00,1871.00,940.75
1642,1042.85,3149.09,0.00,1850.25,929.75
1644,1043.11,3151.52,0.00,1844.00,926.00
1646,1043.38,3153.96,0.00,1836.00,929.75
1648,1043.64,3156.39,0.00,1817.75,917.75
1650,1043.90,3158.81,0.00,1824.25,925.50
1652,1044.17,3161.24,139.37,1841.75,932.50
1654,1044.43,3163.66,0.00,1805.75,920.75
1656,1044.70,3166.08,0.00,1824.25,942.75
1658,1044.96,3168.49,6.85,1820.50,932.75
1660,1045.22,3170.91,29.70,1814.25,925.50
1662,1045.49,3173.32,0.00,1801.75,918.50
1664,1045.75,3175.73,67.53,1819.25,927.00
1666,1046.01,3178.13,9.39,1814.00,925.00
1668,1046.28,3180.54,0.00,1818.75,932.50
1670,1046.54,3182.94,38.11,1837.25,936.25
1672,1046.80,3185.34,20.19,1833.00,930.75
1674,1047.07,3187.73,97.17,1838.00,923.50
1676,1047.33,3190.12,224.14,1857.00,930.25
1678,1047.59,3192.51,203.04,1860.75,931.00
1680,1047.85,3194.90,123.66,1877.00,947.00
1682,1048.11,3197.29,20.49,1863.25,939.75
1684,1048.38,3199.67,220.66,1885.00,931.25
1686,1048.64,3202.05,124.74,1877.00,938.50
1688,1048.90,3204.43,605.22,1905.25,926.00
1690,1049.16,3206.80,612.21,1904.75,932.00
1692,1049.42,3209.17,707.57,1916.25,937.00
1694,1049.68,3211.54,805.61,1910.75,925.00
1696,1049.94,3213.91,1039.44,1930.75,928.75
1698,1050.20,3216.27,1068.57,1937.00,935.50
1700,1050.46,3218.63,1206.88,1957.75,946.00
1702,1050.72,3220.99,1322.49,1952.00,932.25
1704,1050.98,3223.35,1558.88,1972.00,935.50
1706,1051.24,3225.70,1640.61,1968.00,928.25
1708,1051.50,3228.05,1762.97,1969.25,923.00
1710,1051.76,3230.40,1823.30,1990.00,944.00
1712,1052.02,3232.75,2176.88,2002.75,934.50
1714,1052.28,3235.09,2244.60,2016.75,947.75
1716,1052.54,3237.43,2579.40,2017.75,925.50
1718,1052.80,3239.77,2575.42,2008.75,921.75
1720,1053.06,3242.11,2875.08,2032.25,929.25
1722,1053.32,3244.44,3041.95,2032.25,921.00
1724,1053.58,3246.77,2866.95,2047.25,950.50
1726,1053.84,3249.10,3174.30,2046.50,929.75
1728,1054.10,3251.42,3297.18,2055.00,936.25
1730,1054.35,3253.75,3452.42,2048.75,926.25
1732,1054.61,3256.07,3431.78,2054.00,938.00
1734,1054.87,3258.39,3619.33,2057.50,931.75
1736,1055.13,3260.70,3682.76,2049.50,926.00
1738,1055.38,3263.01,4086.27,2069.75,927.50
1740,1055.64,3265.32,4016.56,2064.50,934.00
1742,1055.90,3267.63,3990.10,2045.25,919.00
1744,1056.16,3269.94,3888.76,2064.75,948.00
1746,1056.41,3272.24,3902.85,2053.75,942.75
1748,1056.67,3274.54,4179.69,2053.25,932.50
1750,1056.93,3276.84,3963.52,2040.75,940.25
1752,1057.18,3279.13,3980.28,2029.00,930.75
1754,1057.44,3281.42,3622.30,1994.25,924.00
1756,1057.69,3283.71,3956.14,2010.25,925.00
1758,1057.95,3286.00,3778.46,2008.00,941.00
1760,1058.21,3288.28,3870.80,1989.50,922.00
1762,1058.46,3290.57,3576.30,1984.25,939.75
1764,1058.72,3292.85,3565.80,1970.50,932.00
1766,1058.97,3295.12,3599.95,1954.25,920.00
1768,1059.23,3297.40,3407.53,1939.25,922.50
1770,1059.48,3299.67,3125.08,1925.25,930.50
1772,1059.74,3301.94,3175.15,1911.50,919.75
1774,1059.99,3304.21,2901.78,1909.50,941.25
1776,1060.25,3306.47,3150.55,1920.75,944.00
1778,1060.50,3308.73,2831.86,1879.00,921.75
1780,1060.76,3310.99,2643.31,1876.00,930.00
1782,1061.01,3313.25,2481.21,1861.25,930.75
1784,1061.26,3315.50,2638.99,1862.25,933.50
1786,1061.52,3317.76,2754.79,1860.00,933.25
1788,1061.77,3320.01,2656.33,1859.50,941.25
1790,1062.02,3322.25,2168.83,1814.25,925.00
1792,1062.28,3324.50,2330.97,1825.00,931.25
1794,1062.53,3326.74,1928.18,1789.75,921.50
1796,1062.78,3328.98,1958.81,1794.25,927.75
1798,1063.04,3331.22,1707.50,1776.50,929.00
1800,1063.29,3333.45,1698.44,1766.75,927.00
1802,1063.54,3335.68,1664.74,1760.25,928.00
1804,1063.79,3337.91,1535.44,1753.25,930.00
1806,1064.05,3340.14,1191.90,1749.50,944.50
1808,1064.30,3342.36,1127.75,1718.00,917.50
1810,1064.55,3344.59,849.06,1715.25,933.50
1812,1064.80,3346.81,1033.28,1713.25,930.25
1814,1065.05,3349.02,803.61,1685.75,925.00
1816,1065.30,3351.24,1194.26,1705.25,936.50
1818,1065.55,3353.45,861.07,1676.50,929.50
1820,1065.81,3355.66,926.02,1689.75,944.50
1822,1066.06,3357.87,673.86,1660.25,930.50
1824,1066.31,3360.07,554.38,1640.75,922.75
1826,1066.56,3362.27,683.66,1653.50,938.75
1828,1066.81,3364.47,669.12,1628.50,925.50
1830,1067.06,3366.67,664.38,1617.50,923.00
1832,1067.31,3368.87,211.29,1596.75,929.25
1834,1067.56,3371.06,510.36,1585.50,912.75
1836,1067.81,3373.25,440.93,1579.25,919.00
1838,1068.06,3375.44,532.88,1573.75,918.50
1840,1068.31,3377.62,316.51,1561.50,924.50
1842,1068.56,3379.81,403.09,1546.25,914.75
1844,1068.80,3381.99,476.24,1565.75,939.75
1846,1069.05,3384.16,440.56,1549.25,932.00
1848,1069.30,3386.34,545.89,1536.25,922.25
1850,1069.55,3388.51,562.99,1528.25,921.75
1852,1069.80,3390.68,289.43,1514.00,926.75
1854,1070.05,3392.85,430.89,1531.75,946.75
1856,1070.30,3395.02,809.53,1512.25,922.25
1858,1070.54,3397.18,650.38,1497.00,923.00
1860,1070.79,3399.34,330.29,1484.25,929.25
1862,1071.04,3401.50,472.54,1473.75,920.50
1864,1071.29,3403.66,342.39,1459.00,913.50
1866,1071.53,3405.81,28.49,1457.50,933.00
1868,1071.78,3407.96,114.55,1450.00,927.00
1870,1072.03,3410.11,222.51,1446.75,927.50
1872,1072.27,3412.26,370.11,1446.25,932.00
1874,1072.52,3414.40,207.05,1426.50,927.75
1876,1072.77,3416.54,976.79,1438.00,926.00
1878,1073.01,3418.68,462.16,1426.50,934.75
1880,1073.26,3420.82,577.06,1402.50,909.50
1882,1073.51,3422.96,322.91,1405.25,926.50
1884,1073.75,3425.09,223.63,1395.75,928.75
1886,1074.00,3427.22,251.93,1374.25,914.75
1888,1074.24,3429.35,568.40,1395.00,934.25
1890,1074.49,3431.47,779.35,1380.00,922.25
1892,1074.73,3433.59,776.35,1362.50,911.00
1894,1074.98,3435.71,681.59,1378.50,934.25
1896,1075.22,3437.83,589.71,1361.25,925.00
1898,1075.47,3439.95,576.26,1364.75,934.75
1900,1075.71,3442.06,166.35,1352.00,942.50
1902,1075.96,3444.17,439.45,1340.25,928.50
1904,1076.20,3446.28,504.82,1307.25,902.00
1906,1076.44,3448.38,985.09,1348.00,937.25
1908,1076.69,3450.49,387.74,1328.50,937.00
1910,1076.93,3452.59,23.20,1304.25,929.75
1912,1077.17,3454.69,0.00,1293.75,927.50
1914,1077.42,3456.79,606.40,1305.25,924.00
1916,1077.66,3458.88,514.62,1292.25,923.00
1918,1077.90,3460.97,1036.32,1290.00,913.75
1920,1078.15,3463.06,66.38,1285.75,938.25
1922,1078.39,3465.15,319.65,1275.75,925.00
1924,1078.63,3467.23,310.40,1260.50,915.50
1926,1078.87,3469.32,287.61,1271.75,933.75
1928,1079.12,3471.40,313.68,1254.25,921.75
1930,1079.36,3473.47,368.97,1276.50,948.75
1932,1079.60,3475.55,817.15,1241.50,909.25
1934,1079.84,3477.62,720.31,1247.50,921.50
1936,1080.08,3479.69,221.35,1231.00,921.00
1938,1080.33,3481.76,470.41,1228.00,913.75
1940,1080.57,3483.83,394.50,1235.00,929.50
1942,1080.81,3485.89,674.45,1232.25,927.50
1944,1081.05,3487.95,726.24,1227.75,927.75
1946,1081.29,3490.01,49.39,1211.75,930.50
1948,1081.53,3492.07,73.23,1202.00,924.25
1950,1081.77,3494.12,231.66,1204.25,926.00
1952,1082.01,3496.18,598.68,1213.75,932.25
1954,1082.25,3498.23,704.92,1190.00,913.00
1956,1082.49,3500.27,765.86,1197.00,921.75
1958,1082.73,3502.32,358.81,1182.25,918.25
1960,1082.97,3504.36,243.52,1187.50,930.25
1962,1083.21,3506.40,191.01,1177.00,926.00
1964,1083.45,3508.44,902.78,1166.50,906.50
1966,1083.69,3510.48,849.57,1195.50,939.50
1968,1083.93,3512.51,117.42,1165.50,927.00
1970,1084.16,3514.54,276.66,1158.00,916.50
1972,1084.40,3516.57,0.00,1148.50,920.75
1974,1084.64,3518.60,224.66,1148.25,917.50
1976,1084.88,3520.62,696.24,1165.50,930.50
1978,1085.12,3522.65,418.98,1161.75,936.50
1980,1085.36,3524.67,429.25,1147.75,925.00
1982,1085.59,3526.68,256.02,1136.50,920.50
1984,1085.83,3528.70,467.36,1147.50,931.50
1986,1086.07,3530.71,564.73,1132.25,917.25
1988,1086.31,3532.72,170.69,1139.25,933.75
1990,1086.54,3534.73,158.56,1121.00,917.50
1992,1086.78,3536.74,305.22,1142.25,936.75
1994,1087.02,3538.74,183.20,1123.75,927.00
1996,1087.25,3540.74,548.24,1112.75,913.00
1998,1087.49,3542.74,601.26,1124.25,928.25
2000,1087.73,3544.74,425.92,1114.00,923.75
2002,1087.96,3546.74,259.87,1114.25,929.00
2004,1088.20,3548.73,454.02,1126.25,938.75
2006,1088.43,3550.72,306.03,1103.50,922.50
2008,1088.67,3552.71,681.06,1105.00,921.00
2010,1088.90,3554.69,877.34,1093.50,910.75
2012,1089.14,3556.68,690.83,1105.25,928.50
2014,1089.38,3558.66,721.02,1085.75,910.75
2016,1089.61,3560.64,641.64,1091.50,919.50
2018,1089.84,3562.62,622.64,1095.75,925.00
2020,1090.08,3564.59,453.28,1080.75,914.75
2022,1090.31,3566.56,324.72,1078.00,917.75
2024,1090.55,3568.53,780.61,1082.00,917.50
2026,1090.78,3570.50,615.10,1067.75,911.00
2028,1091.02,3572.47,1436.96,1077.00,912.25
2030,1091.25,3574.43,954.71,1070.00,911.25
2032,1091.48,3576.39,356.01,1050.75,902.00
2034,1091.72,3578.35,300.25,1047.75,902.00
2036,1091.95,3580.31,580.14,1056.50,909.75
2038,1092.18,3582.26,896.29,1047.00,901.50
2040,1092.42,3584.22,671.14,1042.25,901.75
2042,1092.65,3586.17,415.13,1042.75,903.00
2044,1092.88,3588.12,54.81,1036.50,903.25
2046,1093.11,3590.06,0.25,1025.75,899.50
2047,1093.23,3591.03,0.00,1017.00,897.25