File: plugins/Raman/MatchingLibrary/785X/calcium carbonate.csv
ENLIGHTEN Version,4.1.22
Measurement ID,20250220-201426-668498-WP-01977
Serial Number,WP-01977
Model,WP-785X-F13-R-ILC
Detector,S16011-1106
Label,calcium carbonate
Declared Match,
Declared Score,0
Scan Averaging,4
Boxcar,0
Technique,Raman
Baseline Correction Algo,AirPLS
ROI Pixel Start,47
ROI Pixel End,2047
ROI Start Line,0
ROI Stop Line,63
CCD C4,1.38617e-12
Slit Width,25
Cropped,True
Interpolated,False
Wavenumber Correction,-0.100481
Raman Intensity Corrected,True
Deconvolved,True
Region,
High Gain Mode,False
Laser Power mW,
Electrical Dark Correction,False
Battery %,
Device ID,<DeviceID USB:0x24aa:0x1000:0:1>
FW Version,10.0.0.10
FPGA Version,035-001
BLE Version,
Prefix,enlighten
Suffix,
Preset,
Auto-Raman,True
Session Count,0
Plugin Name,
Integration Time,299
Timestamp,2025-02-20 20:14:26.6685
Note,
Temperature,0
CCD C0,793.274
CCD C1,0.153259
CCD C2,1.40788e-05
CCD C3,-1.132e-08
CCD Offset,0
CCD Gain,1.9
CCD Offset Odd,0
CCD Gain Odd,1.9
Laser Wavelength,785.032
Laser Enable,False
Laser Power %,0
Laser Temperature,0
Pixel Count,2048

Pixel,Wavelength,Wavenumber,Processed,Raw,Dark
0,793.27,132.25,NA,944.50,911.25
2,793.58,137.12,NA,963.50,924.00
4,793.89,141.99,NA,952.25,914.00
6,794.19,146.86,NA,956.75,916.25
8,794.50,151.72,NA,964.00,930.75
10,794.81,156.58,NA,965.25,923.50
12,795.12,161.44,NA,958.00,911.25
14,795.42,166.30,NA,952.00,914.00
16,795.73,171.16,NA,954.00,915.50
18,796.04,176.01,NA,967.25,925.00
20,796.35,180.86,NA,974.75,929.00
22,796.65,185.71,NA,987.50,941.25
24,796.96,190.56,NA,976.25,926.50
26,797.27,195.41,NA,990.00,935.25
28,797.58,200.25,NA,990.50,936.75
30,797.88,205.09,NA,983.75,924.50
32,798.19,209.93,NA,989.50,921.00
34,798.50,214.77,NA,999.50,917.50
36,798.81,219.60,NA,1004.50,920.25
38,799.12,224.43,NA,1041.00,928.00
40,799.43,229.27,NA,1182.75,935.50
42,799.74,234.09,NA,1699.25,928.75
44,800.04,238.92,NA,2531.50,945.50
46,800.35,243.75,NA,2956.75,921.00
48,800.66,248.57,0.00,3225.75,936.00
50,800.97,253.39,64.87,3513.75,941.00
52,801.28,258.21,496.50,3961.50,943.25
54,801.59,263.02,1017.36,4721.00,943.25
56,801.90,267.83,1884.61,6155.25,935.00
58,802.21,272.65,3980.96,9173.50,943.50
60,802.52,277.46,8626.67,14165.00,939.75
62,802.83,282.26,12173.69,17159.50,957.50
64,803.14,287.07,8662.25,14213.50,951.50
66,803.45,291.87,3619.64,8896.00,953.25
68,803.76,296.67,1478.30,5738.75,950.50
70,804.07,301.47,704.40,4356.50,934.50
72,804.38,306.26,342.48,3768.50,935.75
74,804.69,311.06,125.48,3455.25,932.00
76,805.00,315.85,23.28,3280.25,932.00
78,805.31,320.64,0.19,3181.00,935.50
80,805.62,325.42,0.00,3111.25,947.75
82,805.93,330.21,0.00,3059.50,938.25
84,806.24,334.99,0.00,2998.75,925.00
86,806.55,339.77,0.00,2995.75,932.00
88,806.86,344.55,0.00,2983.00,945.00
90,807.17,349.32,0.00,2952.75,928.75
92,807.48,354.10,0.00,2967.50,933.00
94,807.80,358.87,0.62,2983.50,941.25
96,808.11,363.63,13.15,2980.25,932.50
98,808.42,368.40,0.19,2959.50,930.50
100,808.73,373.16,6.37,2964.75,925.75
102,809.04,377.93,26.29,2976.25,925.00
104,809.35,382.68,36.68,2981.50,924.25
106,809.66,387.44,34.42,2983.00,931.75
108,809.98,392.19,47.06,2976.25,917.00
110,810.29,396.95,46.95,2990.50,937.25
112,810.60,401.70,56.51,2985.25,926.75
114,810.91,406.44,41.98,2970.75,936.00
116,811.22,411.19,82.47,3013.00,938.75
118,811.54,415.93,77.54,3008.50,938.00
120,811.85,420.67,101.06,3012.00,925.00
122,812.16,425.41,99.78,3007.50,929.00
124,812.47,430.14,100.20,3016.00,940.25
126,812.79,434.87,132.55,3029.00,919.25
128,813.10,439.60,129.76,3023.75,924.50
130,813.41,444.33,148.78,3043.50,929.75
132,813.72,449.06,151.26,3034.00,923.50
134,814.04,453.78,136.00,3010.00,927.00
136,814.35,458.50,137.84,3000.50,920.75
138,814.66,463.22,161.81,3014.25,917.25
140,814.98,467.93,172.38,3022.25,920.25
142,815.29,472.65,158.32,3007.00,928.00
144,815.60,477.36,163.41,3005.75,931.25
146,815.92,482.06,176.08,2996.00,916.50
148,816.23,486.77,183.81,3009.75,929.00
150,816.54,491.47,157.81,2975.00,945.50
152,816.86,496.17,139.95,2914.75,921.50
154,817.17,500.87,100.17,2861.50,933.00
156,817.48,505.57,86.25,2810.75,922.50
158,817.80,510.26,37.63,2732.25,920.50
160,818.11,514.95,37.83,2730.00,932.00
162,818.42,519.64,3.79,2671.75,938.00
164,818.74,524.32,27.58,2676.00,923.50
166,819.05,529.00,0.00,2631.50,935.00
168,819.37,533.68,7.71,2621.00,928.25
170,819.68,538.36,1.52,2608.00,935.00
172,819.99,543.04,0.00,2591.00,943.00
174,820.31,547.71,0.00,2570.00,933.25
176,820.62,552.38,0.00,2544.00,928.00
178,820.94,557.05,0.00,2537.25,923.50
180,821.25,561.71,4.35,2525.25,915.00
182,821.57,566.37,0.00,2488.00,923.00
184,821.88,571.03,0.40,2514.00,927.25
186,822.20,575.69,10.13,2519.00,928.50
188,822.51,580.34,0.00,2484.00,923.50
190,822.83,584.99,11.15,2509.00,924.00
192,823.14,589.64,14.51,2498.50,923.00
194,823.46,594.29,0.00,2473.25,923.25
196,823.77,598.93,0.88,2477.25,928.50
198,824.09,603.57,10.39,2468.75,915.25
200,824.40,608.21,2.97,2468.75,926.00
202,824.72,612.85,1.43,2473.25,938.00
204,825.03,617.48,14.79,2470.75,928.50
206,825.35,622.11,0.00,2452.50,941.75
208,825.66,626.74,0.63,2448.00,932.00
210,825.98,631.36,4.81,2438.25,920.50
212,826.29,635.99,6.42,2448.00,930.25
214,826.61,640.61,0.00,2423.00,933.00
216,826.92,645.22,2.92,2425.75,920.50
218,827.24,649.84,16.20,2435.00,916.00
220,827.56,654.45,0.00,2425.00,931.00
222,827.87,659.06,0.00,2417.75,928.25
224,828.19,663.67,1.63,2427.50,924.50
226,828.50,668.27,0.00,2447.75,951.75
228,828.82,672.87,0.00,2430.50,933.50
230,829.13,677.47,0.00,2424.00,923.00
232,829.45,682.06,10.32,2459.50,924.00
234,829.77,686.66,1.82,2513.25,987.00
236,830.08,691.25,8.42,2475.00,929.50
238,830.40,695.83,60.81,2589.50,925.00
240,830.72,700.42,134.60,2870.50,921.25
242,831.03,705.00,574.83,3963.25,905.50
244,831.35,709.58,2781.40,6620.50,928.00
246,831.66,714.15,3779.03,7395.75,915.00
248,831.98,718.73,1130.19,4871.50,923.50
250,832.30,723.30,205.09,3117.50,916.75
252,832.61,727.87,65.14,2646.25,939.75
254,832.93,732.43,14.50,2473.25,906.50
256,833.25,736.99,0.00,2434.00,931.25
258,833.56,741.55,0.00,2413.00,919.50
260,833.88,746.11,0.00,2406.25,919.25
262,834.20,750.66,0.16,2409.75,920.50
264,834.51,755.22,0.00,2402.00,931.00
266,834.83,759.76,2.97,2410.25,926.50
268,835.15,764.31,0.00,2399.25,928.00
270,835.47,768.85,4.59,2398.00,915.50
272,835.78,773.39,0.54,2403.00,930.00
274,836.10,777.93,20.71,2419.50,916.00
276,836.42,782.46,28.69,2424.75,918.75
278,836.73,787.00,29.56,2425.50,917.25
280,837.05,791.52,32.00,2417.50,912.25
282,837.37,796.05,31.60,2442.50,934.25
284,837.69,800.57,36.25,2432.25,919.00
286,838.00,805.09,45.42,2435.25,923.00
288,838.32,809.61,42.13,2434.50,926.00
290,838.64,814.13,30.60,2424.50,933.75
292,838.95,818.64,23.58,2397.25,925.50
294,839.27,823.15,29.56,2392.75,920.75
296,839.59,827.65,10.22,2373.75,929.75
298,839.91,832.15,19.57,2364.50,916.50
300,840.22,836.65,14.05,2377.25,938.25
302,840.54,841.15,0.00,2318.25,913.25
304,840.86,845.65,0.00,2331.00,933.25
306,841.18,850.14,0.00,2331.25,929.00
308,841.50,854.63,0.00,2349.25,954.50
310,841.81,859.11,1.80,2325.25,921.00
312,842.13,863.60,5.68,2333.50,926.50
314,842.45,868.07,0.00,2308.00,917.75
316,842.77,872.55,0.00,2327.00,931.00
318,843.08,877.03,0.00,2338.75,942.50
320,843.40,881.50,0.00,2309.00,912.00
322,843.72,885.97,2.54,2343.75,926.50
324,844.04,890.43,5.44,2334.75,911.25
326,844.36,894.89,0.00,2342.75,918.25
328,844.67,899.35,0.00,2356.00,930.00
330,844.99,903.81,0.00,2349.75,912.25
332,845.31,908.26,6.15,2391.50,931.50
334,845.63,912.71,0.00,2376.00,925.50
336,845.95,917.16,4.46,2404.50,929.00
338,846.27,921.61,1.03,2534.50,1053.00
340,846.58,926.05,0.00,2407.75,923.50
342,846.90,930.49,0.77,2429.50,929.75
344,847.22,934.92,0.97,2435.00,922.50
346,847.54,939.36,0.00,2423.25,906.75
348,847.86,943.79,6.63,2455.00,914.25
350,848.18,948.21,1.09,2457.75,913.25
352,848.49,952.64,5.49,2480.75,918.00
354,848.81,957.06,0.60,2468.25,902.50
356,849.13,961.48,9.73,2525.50,933.75
358,849.45,965.89,0.00,2500.25,936.50
360,849.77,970.31,0.00,2508.25,922.50
362,850.09,974.71,0.00,2536.00,922.50
364,850.40,979.12,0.00,2555.75,931.00
366,850.72,983.52,0.00,2566.50,937.75
368,851.04,987.92,0.00,2594.75,916.25
370,851.36,992.32,0.00,2612.50,908.50
372,851.68,996.72,0.00,2653.75,920.75
374,852.00,1001.11,10.08,2697.50,911.75
376,852.32,1005.50,0.00,2699.00,913.75
378,852.63,1009.88,0.00,2767.25,938.25
380,852.95,1014.26,0.18,2802.50,928.50
382,853.27,1018.64,16.24,2855.75,927.75
384,853.59,1023.02,7.29,2864.50,915.00
386,853.91,1027.39,0.00,2881.75,908.00
388,854.23,1031.76,0.00,2913.00,913.50
390,854.55,1036.13,0.00,2949.00,924.25
392,854.87,1040.49,0.00,2978.00,914.50
394,855.18,1044.86,0.00,2995.25,927.00
396,855.50,1049.21,0.00,3113.50,921.25
398,855.82,1053.57,0.00,3154.25,929.75
400,856.14,1057.92,0.00,3278.00,925.00
402,856.46,1062.27,20.69,3479.75,914.50
404,856.78,1066.62,246.31,3796.00,914.25
406,857.10,1070.96,339.75,4272.50,913.75
408,857.42,1075.30,579.88,6166.00,935.00
410,857.74,1079.64,3525.73,14906.75,926.00
412,858.06,1083.97,22706.41,36440.00,926.75
414,858.37,1088.30,27299.10,39797.00,914.00
416,858.69,1092.63,4761.38,17649.25,916.50
418,859.01,1096.95,552.52,6643.25,910.50
420,859.33,1101.27,184.34,4375.00,924.00
422,859.65,1105.59,30.36,3912.50,926.00
424,859.97,1109.91,0.01,3756.25,915.50
426,860.29,1114.22,0.00,3734.75,919.25
428,860.61,1118.53,0.00,3763.00,911.25
430,860.93,1122.84,0.00,3771.75,918.75
432,861.25,1127.14,0.00,3827.25,929.75
434,861.56,1131.44,0.00,3886.75,915.25
436,861.88,1135.74,0.00,3924.00,915.75
438,862.20,1140.03,0.00,4033.00,924.00
440,862.52,1144.32,0.00,4135.50,926.00
442,862.84,1148.61,0.08,4235.75,927.50
444,863.16,1152.89,11.41,4327.50,923.25
446,863.48,1157.17,18.39,4418.75,919.75
448,863.80,1161.45,3.93,4486.75,917.00
450,864.12,1165.73,0.20,4571.50,929.25
452,864.44,1170.00,0.00,4629.75,915.75
454,864.76,1174.27,0.00,4693.25,918.25
456,865.07,1178.53,0.00,4787.50,914.50
458,865.39,1182.80,0.13,4924.00,927.50
460,865.71,1187.06,2.73,5019.25,919.50
462,866.03,1191.31,30.27,5144.00,920.25
464,866.35,1195.57,31.62,5239.75,917.50
466,866.67,1199.82,45.67,5357.75,925.00
468,866.99,1204.06,92.61,5488.75,925.00
470,867.31,1208.31,104.33,5584.75,922.25
472,867.63,1212.55,164.55,5720.00,922.75
474,867.95,1216.79,180.00,5790.50,910.00
476,868.27,1221.02,194.72,5900.50,919.75
478,868.58,1225.25,273.03,6058.75,910.00
480,868.90,1229.48,329.90,6220.25,925.50
482,869.22,1233.71,416.69,6429.25,933.50
484,869.54,1237.93,491.72,6598.25,939.50
486,869.86,1242.15,557.87,6750.50,919.50
488,870.18,1246.36,653.72,6944.50,911.25
490,870.50,1250.58,734.09,7140.00,925.25
492,870.82,1254.79,815.25,7344.75,942.50
494,871.14,1258.99,882.35,7480.00,924.00
496,871.46,1263.20,937.81,7628.50,929.00
498,871.78,1267.40,986.08,7766.25,920.00
500,872.10,1271.59,1060.27,7927.00,919.25
502,872.41,1275.79,1128.08,8072.75,915.50
504,872.73,1279.98,1170.14,8222.25,929.25
506,873.05,1284.17,1240.69,8377.50,932.25
508,873.37,1288.35,1330.83,8525.75,902.75
510,873.69,1292.53,1321.27,8601.00,914.50
512,874.01,1296.71,1384.00,8747.00,916.25
514,874.33,1300.88,1471.00,8900.50,907.00
516,874.65,1305.06,1461.91,8956.50,920.50
518,874.97,1309.22,1447.49,8983.50,911.75
520,875.29,1313.39,1477.69,9066.50,916.75
522,875.60,1317.55,1427.05,9049.50,929.00
524,875.92,1321.71,1392.81,9026.25,916.25
526,876.24,1325.87,1304.34,8943.25,933.25
528,876.56,1330.02,1192.42,8815.50,916.75
530,876.88,1334.17,1082.22,8704.50,928.00
532,877.20,1338.32,1060.72,8678.00,911.50
534,877.52,1342.46,933.92,8531.75,909.00
536,877.84,1346.60,875.74,8496.00,922.25
538,878.16,1350.73,822.00,8440.50,914.75
540,878.47,1354.87,765.75,8402.50,919.50
542,878.79,1359.00,674.24,8313.75,921.00
544,879.11,1363.13,637.66,8296.50,924.00
546,879.43,1367.25,563.46,8210.25,916.75
548,879.75,1371.37,482.13,8118.00,915.50
550,880.07,1375.49,368.48,8006.75,914.50
552,880.39,1379.60,275.67,7917.00,922.75
554,880.71,1383.71,224.01,7870.75,921.50
556,881.03,1387.82,175.45,7839.00,916.50
558,881.34,1391.93,112.94,7775.50,909.50
560,881.66,1396.03,87.40,7762.50,917.50
562,881.98,1400.13,57.21,7761.50,932.25
564,882.30,1404.22,25.62,7703.50,919.75
566,882.62,1408.31,42.07,7709.00,913.25
568,882.94,1412.40,11.14,7683.00,927.00
570,883.26,1416.49,0.00,7615.25,918.25
572,883.57,1420.57,0.00,7612.25,922.50
574,883.89,1424.65,4.64,7695.25,907.50
576,884.21,1428.73,72.31,7896.00,926.00
578,884.53,1432.80,511.54,8398.75,929.75
580,884.85,1436.87,885.20,8654.75,911.50
582,885.17,1440.93,353.37,8243.75,910.00
584,885.49,1445.00,106.37,7887.00,912.00
586,885.80,1449.06,95.66,7802.75,910.25
588,886.12,1453.11,115.69,7809.75,932.25
590,886.44,1457.17,121.47,7811.50,919.00
592,886.76,1461.22,121.07,7811.25,919.75
594,887.08,1465.26,142.91,7825.00,930.00
596,887.40,1469.31,182.30,7847.00,910.75
598,887.71,1473.35,206.66,7879.50,916.50
600,888.03,1477.38,271.66,7961.50,919.25
602,888.35,1481.42,296.70,7990.00,928.00
604,888.67,1485.45,393.86,8084.00,922.00
606,888.99,1489.48,390.54,8064.75,914.50
608,889.31,1493.50,378.68,8061.25,922.00
610,889.62,1497.52,428.37,8095.75,921.00
612,889.94,1501.54,432.04,8068.75,906.00
614,890.26,1505.56,385.32,8001.25,916.00
616,890.58,1509.57,423.81,8024.25,917.25
618,890.90,1513.57,384.08,7967.25,915.50
620,891.21,1517.58,358.20,7913.75,921.00
622,891.53,1521.58,421.09,7968.75,920.75
624,891.85,1525.58,389.39,7913.00,919.50
626,892.17,1529.57,416.91,7925.00,924.25
628,892.49,1533.57,367.91,7830.75,918.75
630,892.80,1537.56,325.27,7757.75,909.25
632,893.12,1541.54,287.89,7679.50,910.50
634,893.44,1545.52,245.49,7604.75,927.50
636,893.76,1549.50,196.31,7504.00,907.00
638,894.07,1553.48,180.06,7497.25,929.00
640,894.39,1557.45,120.77,7377.50,915.50
642,894.71,1561.42,174.34,7404.25,923.25
644,895.03,1565.39,176.26,7360.75,909.00
646,895.34,1569.35,180.55,7357.50,930.25
648,895.66,1573.31,216.74,7343.75,915.25
650,895.98,1577.26,207.67,7305.00,915.25
652,896.30,1581.22,211.20,7265.75,911.25
654,896.61,1585.17,237.14,7259.00,916.00
656,896.93,1589.11,210.00,7203.25,925.75
658,897.25,1593.06,233.15,7182.25,911.75
660,897.57,1597.00,207.46,7122.75,919.00
662,897.88,1600.93,217.78,7107.50,924.50
664,898.20,1604.87,241.51,7094.00,918.25
666,898.52,1608.80,285.00,7106.75,914.50
668,898.84,1612.72,281.06,7063.25,909.00
670,899.15,1616.65,308.13,7084.50,922.75
672,899.47,1620.57,350.95,7080.25,913.00
674,899.79,1624.49,355.93,7051.25,913.50
676,900.10,1628.40,351.18,7019.75,910.75
678,900.42,1632.31,354.12,6997.00,926.50
680,900.74,1636.22,346.21,6926.50,896.75
682,901.05,1640.12,355.68,6939.00,933.50
684,901.37,1644.02,359.06,6884.75,917.00
686,901.69,1647.92,371.77,6875.25,921.25
688,902.00,1651.82,391.70,6851.75,913.25
690,902.32,1655.71,399.16,6812.00,911.00
692,902.64,1659.60,396.93,6775.75,911.00
694,902.95,1663.48,384.57,6733.25,918.00
696,903.27,1667.36,365.01,6670.50,913.50
698,903.59,1671.24,333.53,6613.00,934.50
700,903.90,1675.11,329.62,6542.50,920.00
702,904.22,1678.99,270.55,6423.25,906.00
704,904.54,1682.85,227.35,6368.50,938.75
706,904.85,1686.72,208.81,6277.50,913.00
708,905.17,1690.58,213.42,6244.00,915.75
710,905.49,1694.44,180.48,6162.00,912.00
712,905.80,1698.29,180.92,6131.00,918.25
714,906.12,1702.15,168.72,6076.00,919.75
716,906.43,1706.00,165.27,6036.00,922.25
718,906.75,1709.84,118.01,5957.50,934.75
720,907.07,1713.68,63.82,5831.75,910.75
722,907.38,1717.52,53.03,5784.00,918.00
724,907.70,1721.36,36.70,5723.25,919.75
726,908.01,1725.19,12.76,5677.00,920.00
728,908.33,1729.02,0.11,5600.00,921.00
730,908.65,1732.85,9.00,5584.50,918.25
732,908.96,1736.67,18.08,5551.75,924.50
734,909.28,1740.49,82.55,5641.50,912.75
736,909.59,1744.30,293.63,5858.00,920.25
738,909.91,1748.12,632.42,6048.00,917.00
740,910.22,1751.93,521.10,5932.75,917.00
742,910.54,1755.73,224.07,5668.75,936.00
744,910.85,1759.54,82.64,5421.75,932.25
746,911.17,1763.34,36.20,5283.25,918.50
748,911.49,1767.13,7.84,5193.25,915.75
750,911.80,1770.93,1.02,5125.75,906.50
752,912.12,1774.72,0.13,5099.50,930.25
754,912.43,1778.50,8.22,5054.50,904.00
756,912.75,1782.29,41.73,5044.50,908.50
758,913.06,1786.07,71.74,5037.75,912.25
760,913.38,1789.84,73.34,5010.50,918.50
762,913.69,1793.62,82.44,4980.50,924.75
764,914.01,1797.39,80.82,4918.75,910.25
766,914.32,1801.15,44.82,4843.50,912.75
768,914.64,1804.92,22.86,4778.25,912.75
770,914.95,1808.68,8.32,4730.75,919.00
772,915.26,1812.44,6.01,4691.25,923.00
774,915.58,1816.19,29.22,4649.00,901.25
776,915.89,1819.94,36.11,4624.75,921.75
778,916.21,1823.69,16.05,4568.25,920.50
780,916.52,1827.43,56.10,4589.75,927.75
782,916.84,1831.17,52.53,4517.75,910.00
784,917.15,1834.91,86.11,4514.00,910.75
786,917.47,1838.64,95.20,4484.75,916.50
788,917.78,1842.38,117.48,4470.50,914.25
790,918.09,1846.10,94.31,4398.25,908.00
792,918.41,1849.83,76.48,4351.00,919.50
794,918.72,1853.55,41.60,4254.25,903.25
796,919.04,1857.27,55.83,4237.00,914.75
798,919.35,1860.98,56.80,4193.00,910.25
800,919.66,1864.69,55.71,4169.50,919.50
802,919.98,1868.40,72.98,4143.00,919.75
804,920.29,1872.11,99.24,4111.00,911.25
806,920.60,1875.81,83.77,4069.75,916.75
808,920.92,1879.51,60.18,4004.25,906.00
810,921.23,1883.20,73.69,3991.00,924.50
812,921.55,1886.90,91.81,3940.00,904.50
814,921.86,1890.58,67.70,3893.50,922.50
816,922.17,1894.27,54.37,3857.75,929.75
818,922.49,1897.95,25.76,3776.25,922.50
820,922.80,1901.63,56.94,3758.50,914.50
822,923.11,1905.31,11.54,3672.50,915.50
824,923.42,1908.98,22.28,3644.50,915.25
826,923.74,1912.65,33.33,3621.50,921.75
828,924.05,1916.31,13.39,3553.75,913.75
830,924.36,1919.98,40.45,3536.25,906.50
832,924.68,1923.64,36.72,3492.75,909.50
834,924.99,1927.29,35.31,3453.00,909.00
836,925.30,1930.94,23.01,3402.25,909.50
838,925.61,1934.59,38.18,3379.00,911.00
840,925.93,1938.24,32.37,3333.75,911.25
842,926.24,1941.88,17.79,3293.75,914.00
844,926.55,1945.52,5.97,3233.00,911.25
846,926.86,1949.16,18.56,3208.75,918.00
848,927.18,1952.79,17.77,3160.00,907.00
850,927.49,1956.42,13.40,3126.75,911.25
852,927.80,1960.05,3.51,3097.00,930.75
854,928.11,1963.67,15.96,3060.25,915.00
856,928.42,1967.29,31.24,3034.75,925.00
858,928.74,1970.91,33.77,2990.00,909.00
860,929.05,1974.52,14.77,2945.50,918.50
862,929.36,1978.13,26.50,2912.75,909.75
864,929.67,1981.74,7.99,2857.25,915.75
866,929.98,1985.35,17.10,2829.50,917.75
868,930.29,1988.95,8.32,2787.25,917.25
870,930.61,1992.54,0.95,2734.25,910.00
872,930.92,1996.14,6.14,2711.00,916.50
874,931.23,1999.73,0.00,2672.75,923.75
876,931.54,2003.32,0.00,2617.50,919.75
878,931.85,2006.90,7.93,2610.00,910.00
880,932.16,2010.48,10.23,2576.50,914.50
882,932.47,2014.06,21.69,2553.00,912.25
884,932.78,2017.63,2.79,2515.00,922.50
886,933.09,2021.21,22.27,2494.00,913.75
888,933.41,2024.77,14.42,2462.00,918.50
890,933.72,2028.34,7.66,2433.75,925.50
892,934.03,2031.90,4.44,2390.50,918.25
894,934.34,2035.46,8.22,2366.75,922.00
896,934.65,2039.01,0.00,2318.00,910.25
898,934.96,2042.57,0.00,2283.75,919.50
900,935.27,2046.11,0.00,2286.25,930.00
902,935.58,2049.66,9.26,2238.25,897.00
904,935.89,2053.20,2.88,2227.25,914.75
906,936.20,2056.74,0.00,2190.75,916.50
908,936.51,2060.28,15.26,2188.25,910.50
910,936.82,2063.81,13.69,2184.25,926.50
912,937.13,2067.34,0.40,2140.00,917.25
914,937.44,2070.86,15.83,2131.00,914.00
916,937.75,2074.39,7.00,2096.25,909.50
918,938.06,2077.91,5.27,2078.00,908.50
920,938.37,2081.42,0.00,2057.25,916.50
922,938.68,2084.94,24.81,2054.50,907.00
924,938.99,2088.45,0.00,2010.50,908.50
926,939.30,2091.95,0.00,2003.75,925.00
928,939.60,2095.46,6.15,1991.75,909.75
930,939.91,2098.96,0.00,1981.50,923.00
932,940.22,2102.45,0.00,1962.00,916.50
934,940.53,2105.95,10.54,1955.00,910.25
936,940.84,2109.44,0.00,1934.50,914.25
938,941.15,2112.92,0.00,1925.50,919.25
940,941.46,2116.41,30.21,1933.50,905.50
942,941.77,2119.89,10.78,1918.50,916.25
944,942.07,2123.37,0.00,1892.75,915.50
946,942.38,2126.84,0.00,1885.25,920.50
948,942.69,2130.31,0.00,1881.25,921.50
950,943.00,2133.78,1.04,1874.50,916.75
952,943.31,2137.24,15.83,1872.00,912.25
954,943.62,2140.70,3.90,1856.25,914.25
956,943.92,2144.16,19.36,1861.00,910.00
958,944.23,2147.62,30.48,1865.25,917.25
960,944.54,2151.07,24.95,1855.25,922.25
962,944.85,2154.52,14.14,1849.75,927.00
964,945.16,2157.96,0.73,1822.00,923.25
966,945.46,2161.40,13.07,1825.50,924.50
968,945.77,2164.84,16.40,1796.25,901.75
970,946.08,2168.28,3.62,1791.75,914.25
972,946.39,2171.71,9.51,1786.75,911.25
974,946.69,2175.14,2.39,1773.25,913.50
976,947.00,2178.57,5.92,1771.50,913.25
978,947.31,2181.99,0.00,1739.50,905.50
980,947.61,2185.41,1.91,1756.00,915.75
982,947.92,2188.82,21.72,1758.00,914.00
984,948.23,2192.24,16.34,1741.50,904.25
986,948.53,2195.65,0.00,1725.50,920.50
988,948.84,2199.05,5.06,1715.25,896.75
990,949.15,2202.46,12.63,1729.75,912.75
992,949.45,2205.86,16.24,1730.00,916.75
994,949.76,2209.25,4.38,1709.50,908.50
996,950.07,2212.65,5.60,1713.50,915.25
998,950.37,2216.04,0.00,1688.25,905.50
1000,950.68,2219.43,1.90,1698.25,912.75
1002,950.98,2222.81,0.00,1696.50,920.00
1004,951.29,2226.19,12.92,1688.50,905.25
1006,951.60,2229.57,26.83,1692.50,904.75
1008,951.90,2232.94,0.14,1671.50,907.00
1010,952.21,2236.32,4.01,1675.75,909.25
1012,952.51,2239.68,0.00,1671.50,917.00
1014,952.82,2243.05,9.45,1657.50,898.75
1016,953.12,2246.41,29.07,1692.75,924.25
1018,953.43,2249.77,21.77,1694.00,933.00
1020,953.73,2253.12,20.29,1679.00,921.50
1022,954.04,2256.48,3.47,1641.75,903.75
1024,954.34,2259.83,14.16,1667.75,924.00
1026,954.65,2263.17,13.18,1643.00,906.00
1028,954.95,2266.51,19.34,1651.00,915.25
1030,955.26,2269.85,5.61,1650.75,926.50
1032,955.56,2273.19,0.00,1630.50,919.25
1034,955.87,2276.52,14.60,1637.25,916.25
1036,956.17,2279.85,1.10,1631.25,922.50
1038,956.48,2283.18,0.00,1604.25,904.00
1040,956.78,2286.50,4.31,1611.50,905.50
1042,957.08,2289.82,15.70,1610.50,904.00
1044,957.39,2293.14,21.01,1628.75,920.25
1046,957.69,2296.45,0.00,1594.50,904.50
1048,957.99,2299.76,18.08,1629.75,927.00
1050,958.30,2303.07,8.14,1607.00,916.25
1052,958.60,2306.38,16.93,1610.25,916.25
1054,958.91,2309.68,18.42,1612.00,921.50
1056,959.21,2312.98,7.01,1588.50,908.00
1058,959.51,2316.27,0.00,1583.75,914.75
1060,959.82,2319.56,3.60,1594.50,922.50
1062,960.12,2322.85,4.81,1582.75,912.75
1064,960.42,2326.14,6.69,1578.00,909.75
1066,960.72,2329.42,14.37,1579.75,910.25
1068,961.03,2332.70,12.08,1585.00,918.50
1070,961.33,2335.97,0.00,1571.50,917.25
1072,961.63,2339.25,16.77,1570.50,903.00
1074,961.93,2342.52,7.14,1570.00,914.50
1076,962.24,2345.78,24.85,1572.50,908.00
1078,962.54,2349.05,24.72,1572.75,911.00
1080,962.84,2352.31,17.56,1567.25,914.25
1082,963.14,2355.56,25.01,1565.25,910.50
1084,963.45,2358.82,9.53,1555.75,910.25
1086,963.75,2362.07,5.37,1561.00,921.25
1088,964.05,2365.32,0.09,1562.50,932.25
1090,964.35,2368.56,16.47,1550.00,913.00
1092,964.65,2371.80,4.57,1549.75,918.75
1094,964.95,2375.04,0.00,1533.50,916.25
1096,965.25,2378.27,13.00,1542.50,910.50
1098,965.56,2381.51,5.43,1539.00,917.25
1100,965.86,2384.73,12.99,1542.00,916.25
1102,966.16,2387.96,26.92,1545.50,913.75
1104,966.46,2391.18,22.70,1553.25,926.25
1106,966.76,2394.40,11.73,1528.50,909.75
1108,967.06,2397.62,44.52,1554.00,917.75
1110,967.36,2400.83,42.90,1536.75,907.25
1112,967.66,2404.04,15.33,1544.25,928.00
1114,967.96,2407.25,3.85,1505.50,901.00
1116,968.26,2410.45,16.05,1520.50,911.25
1118,968.56,2413.65,10.45,1512.75,909.25
1120,968.86,2416.85,9.83,1529.00,925.50
1122,969.16,2420.04,0.00,1499.75,920.50
1124,969.46,2423.23,10.05,1504.50,908.00
1126,969.76,2426.42,1.56,1506.25,915.00
1128,970.06,2429.60,10.73,1506.50,906.00
1130,970.36,2432.79,20.82,1519.25,914.25
1132,970.66,2435.96,29.38,1515.50,911.25
1134,970.96,2439.14,25.41,1517.00,915.50
1136,971.26,2442.31,23.22,1516.50,916.25
1138,971.56,2445.48,21.56,1511.25,910.25
1140,971.86,2448.65,4.98,1499.25,909.50
1142,972.16,2451.81,7.83,1514.00,921.50
1144,972.45,2454.97,24.75,1511.75,911.75
1146,972.75,2458.13,56.37,1523.50,909.00
1148,973.05,2461.28,25.01,1507.25,909.00
1150,973.35,2464.43,38.25,1522.00,917.25
1152,973.65,2467.58,46.62,1519.00,912.75
1154,973.95,2470.72,48.31,1520.75,914.50
1156,974.24,2473.86,63.76,1520.00,905.50
1158,974.54,2477.00,56.16,1512.50,905.00
1160,974.84,2480.13,77.50,1539.25,918.75
1162,975.14,2483.27,58.15,1523.75,914.75
1164,975.43,2486.40,80.24,1520.50,903.25
1166,975.73,2489.52,90.88,1528.50,909.75
1168,976.03,2492.64,55.58,1511.00,911.50
1170,976.33,2495.76,65.90,1520.25,916.25
1172,976.62,2498.88,40.78,1499.50,910.25
1174,976.92,2501.99,23.80,1502.00,923.75
1176,977.22,2505.10,31.14,1496.50,918.50
1178,977.51,2508.21,38.61,1489.25,910.50
1180,977.81,2511.31,9.43,1479.75,917.50
1182,978.11,2514.41,14.02,1478.75,913.25
1184,978.40,2517.51,3.82,1469.75,913.75
1186,978.70,2520.61,16.11,1473.75,913.00
1188,979.00,2523.70,29.06,1481.75,921.50
1190,979.29,2526.79,0.00,1456.25,914.00
1192,979.59,2529.87,13.02,1468.00,914.75
1194,979.88,2532.95,14.10,1461.75,908.50
1196,980.18,2536.03,25.16,1468.00,915.25
1198,980.48,2539.11,64.90,1481.75,919.25
1200,980.77,2542.18,26.52,1461.25,912.00
1202,981.07,2545.25,0.41,1455.75,924.00
1204,981.36,2548.32,0.16,1445.25,916.00
1206,981.66,2551.38,0.22,1450.25,923.25
1208,981.95,2554.44,0.00,1438.25,915.50
1210,982.25,2557.50,0.00,1446.50,926.75
1212,982.54,2560.56,19.64,1460.25,928.50
1214,982.84,2563.61,3.64,1451.75,930.50
1216,983.13,2566.66,18.78,1456.50,928.00
1218,983.43,2569.70,33.02,1454.75,922.75
1220,983.72,2572.74,25.53,1448.50,920.75
1222,984.01,2575.78,26.69,1445.25,919.75
1224,984.31,2578.82,37.68,1437.25,908.75
1226,984.60,2581.85,11.76,1433.75,917.25
1228,984.90,2584.88,17.58,1429.50,909.75
1230,985.19,2587.91,37.12,1434.25,909.25
1232,985.48,2590.93,18.61,1435.75,923.00
1234,985.78,2593.96,34.61,1438.25,919.25
1236,986.07,2596.97,22.62,1430.50,919.50
1238,986.36,2599.99,2.94,1434.25,934.50
1240,986.66,2603.00,47.46,1438.75,919.75
1242,986.95,2606.01,23.10,1434.25,926.50
1244,987.24,2609.01,0.00,1421.25,928.75
1246,987.54,2612.02,4.06,1399.75,904.00
1248,987.83,2615.02,16.70,1426.25,925.00
1250,988.12,2618.01,37.47,1434.25,927.50
1252,988.41,2621.01,39.11,1425.50,921.00
1254,988.71,2624.00,19.50,1412.50,916.50
1256,989.00,2626.99,35.09,1428.50,924.00
1258,989.29,2629.97,25.24,1415.50,916.75
1260,989.58,2632.95,22.50,1421.25,926.00
1262,989.87,2635.93,26.17,1420.00,925.00
1264,990.16,2638.91,9.12,1399.25,914.75
1266,990.46,2641.88,22.43,1415.75,927.00
1268,990.75,2644.85,19.06,1424.25,934.75
1270,991.04,2647.81,5.87,1402.50,921.50
1272,991.33,2650.78,7.74,1401.75,921.75
1274,991.62,2653.74,39.04,1404.75,914.75
1276,991.91,2656.70,18.83,1401.25,919.00
1278,992.20,2659.65,1.82,1397.75,923.50
1280,992.49,2662.60,6.73,1388.75,912.75
1282,992.78,2665.55,12.01,1411.50,935.50
1284,993.07,2668.50,14.99,1411.25,936.00
1286,993.36,2671.44,38.21,1414.75,928.00
1288,993.65,2674.38,0.00,1407.00,940.25
1290,993.94,2677.31,19.83,1399.25,921.00
1292,994.23,2680.25,30.88,1402.00,925.25
1294,994.52,2683.18,22.92,1395.50,923.50
1296,994.81,2686.10,20.05,1399.00,923.75
1298,995.10,2689.03,1.21,1384.75,920.75
1300,995.39,2691.95,2.52,1380.50,916.50
1302,995.68,2694.87,15.07,1401.50,935.00
1304,995.97,2697.78,34.10,1403.75,934.00
1306,996.26,2700.70,12.60,1375.00,911.50
1308,996.55,2703.61,19.28,1388.25,922.50
1310,996.84,2706.51,35.37,1397.50,928.25
1312,997.13,2709.42,0.00,1380.75,927.50
1314,997.41,2712.32,23.62,1389.75,925.25
1316,997.70,2715.21,4.40,1376.75,923.50
1318,997.99,2718.11,39.22,1385.50,919.25
1320,998.28,2721.00,6.52,1366.00,913.25
1322,998.57,2723.89,15.80,1390.50,935.75
1324,998.86,2726.77,69.96,1380.50,912.25
1326,999.14,2729.66,28.20,1378.75,921.75
1328,999.43,2732.54,11.97,1374.50,922.50
1330,999.72,2735.41,1.94,1362.75,918.25
1332,1000.01,2738.29,38.18,1387.00,929.00
1334,1000.29,2741.16,18.60,1366.25,919.50
1336,1000.58,2744.03,55.34,1371.75,915.50
1338,1000.87,2746.89,15.51,1373.25,929.75
1340,1001.15,2749.75,15.59,1367.75,924.00
1342,1001.44,2752.61,6.35,1365.75,926.50
1344,1001.73,2755.47,0.00,1350.75,919.00
1346,1002.01,2758.32,15.27,1360.75,921.75
1348,1002.30,2761.17,52.28,1376.25,930.25
1350,1002.59,2764.02,30.35,1374.00,934.75
1352,1002.87,2766.86,28.54,1363.00,920.50
1354,1003.16,2769.70,3.07,1351.50,923.00
1356,1003.44,2772.54,25.39,1348.00,914.75
1358,1003.73,2775.38,31.11,1361.75,927.00
1360,1004.01,2778.21,8.10,1338.25,911.75
1362,1004.30,2781.04,33.56,1354.25,919.25
1364,1004.58,2783.87,15.09,1345.25,921.25
1366,1004.87,2786.69,54.53,1339.75,906.50
1368,1005.15,2789.51,19.27,1352.50,929.00
1370,1005.44,2792.33,22.58,1355.00,927.50
1372,1005.72,2795.14,5.80,1350.25,932.75
1374,1006.01,2797.95,24.00,1352.75,930.25
1376,1006.29,2800.76,59.90,1348.75,919.50
1378,1006.58,2803.57,44.84,1359.25,935.50
1380,1006.86,2806.37,58.17,1345.00,917.50
1382,1007.14,2809.17,54.09,1348.75,919.25
1384,1007.43,2811.97,2.27,1332.25,923.25
1386,1007.71,2814.77,54.16,1336.00,911.00
1388,1008.00,2817.56,38.33,1332.75,915.50
1390,1008.28,2820.35,48.97,1344.50,924.50
1392,1008.56,2823.13,54.51,1338.00,917.00
1394,1008.85,2825.91,15.18,1335.00,927.50
1396,1009.13,2828.69,53.86,1340.75,922.50
1398,1009.41,2831.47,20.36,1343.00,934.00
1400,1009.69,2834.24,3.07,1311.50,910.25
1402,1009.98,2837.02,62.78,1340.00,922.50
1404,1010.26,2839.78,56.98,1338.50,926.50
1406,1010.54,2842.55,66.37,1330.00,914.50
1408,1010.82,2845.31,0.00,1312.25,922.50
1410,1011.11,2848.07,51.10,1339.75,929.50
1412,1011.39,2850.83,0.00,1320.25,931.00
1414,1011.67,2853.58,32.21,1322.75,918.00
1416,1011.95,2856.33,23.15,1326.75,926.50
1418,1012.23,2859.08,24.71,1323.75,924.00
1420,1012.51,2861.83,96.84,1331.25,914.50
1422,1012.80,2864.57,76.40,1351.50,938.00
1424,1013.08,2867.31,41.21,1338.50,934.00
1426,1013.36,2870.04,34.66,1329.25,929.00
1428,1013.64,2872.78,34.56,1323.50,924.00
1430,1013.92,2875.51,46.61,1345.25,937.75
1432,1014.20,2878.24,15.07,1324.75,928.00
1434,1014.48,2880.96,49.74,1325.50,920.75
1436,1014.76,2883.68,60.41,1316.25,913.75
1438,1015.04,2886.40,64.11,1316.50,913.75
1440,1015.32,2889.12,98.79,1337.00,922.00
1442,1015.60,2891.83,1.77,1312.50,923.75
1444,1015.88,2894.54,21.87,1321.25,926.50
1446,1016.16,2897.25,4.34,1297.00,908.50
1448,1016.44,2899.96,28.95,1323.75,927.75
1450,1016.72,2902.66,19.15,1315.25,924.00
1452,1017.00,2905.36,53.41,1333.00,935.25
1454,1017.28,2908.06,57.42,1318.50,923.00
1456,1017.55,2910.75,70.78,1328.25,930.25
1458,1017.83,2913.44,11.64,1307.25,920.50
1460,1018.11,2916.13,0.72,1309.25,927.00
1462,1018.39,2918.81,16.10,1317.00,929.50
1464,1018.67,2921.49,31.85,1308.00,920.75
1466,1018.95,2924.17,81.66,1319.50,924.50
1468,1019.22,2926.85,0.00,1307.50,931.00
1470,1019.50,2929.52,24.45,1299.50,914.00
1472,1019.78,2932.20,69.03,1306.00,913.50
1474,1020.06,2934.86,125.32,1314.00,915.25
1476,1020.33,2937.53,44.32,1319.25,934.50
1478,1020.61,2940.19,20.68,1307.00,926.50
1480,1020.89,2942.85,0.00,1301.25,928.75
1482,1021.17,2945.51,24.54,1299.75,920.25
1484,1021.44,2948.16,14.60,1298.25,922.50
1486,1021.72,2950.81,32.10,1299.25,921.00
1488,1022.00,2953.46,35.54,1307.75,930.50
1490,1022.27,2956.11,49.95,1302.25,922.50
1492,1022.55,2958.75,52.84,1312.25,932.00
1494,1022.82,2961.39,32.33,1292.00,917.00
1496,1023.10,2964.03,46.59,1312.25,935.00
1498,1023.38,2966.66,69.18,1303.25,922.50
1500,1023.65,2969.29,41.03,1303.75,930.50
1502,1023.93,2971.92,34.77,1301.00,929.75
1504,1024.20,2974.55,37.09,1303.00,930.50
1506,1024.48,2977.17,0.00,1291.25,928.25
1508,1024.75,2979.79,54.70,1292.25,915.75
1510,1025.03,2982.41,0.00,1285.25,922.75
1512,1025.30,2985.02,16.94,1282.75,916.50
1514,1025.58,2987.63,73.68,1297.00,923.50
1516,1025.85,2990.24,58.86,1288.50,916.75
1518,1026.13,2992.85,0.00,1291.75,933.50
1520,1026.40,2995.45,6.92,1290.50,928.50
1522,1026.68,2998.05,62.68,1290.75,918.25
1524,1026.95,3000.65,0.00,1296.50,938.00
1526,1027.22,3003.25,72.20,1292.00,919.25
1528,1027.50,3005.84,36.91,1281.50,916.75
1530,1027.77,3008.43,94.95,1300.25,924.50
1532,1028.04,3011.02,23.39,1292.00,929.25
1534,1028.32,3013.60,35.51,1291.75,928.00
1536,1028.59,3016.18,135.69,1306.75,928.75
1538,1028.86,3018.76,44.27,1269.25,905.00
1540,1029.14,3021.34,56.66,1295.75,929.50
1542,1029.41,3023.91,39.73,1282.50,920.50
1544,1029.68,3026.48,12.33,1277.50,920.25
1546,1029.95,3029.05,0.00,1277.25,927.00
1548,1030.22,3031.61,39.24,1284.00,922.00
1550,1030.50,3034.17,36.58,1278.00,917.25
1552,1030.77,3036.73,24.56,1279.25,920.50
1554,1031.04,3039.29,0.00,1277.00,932.00
1556,1031.31,3041.84,57.12,1269.00,907.50
1558,1031.58,3044.39,80.96,1298.50,933.25
1560,1031.85,3046.94,34.01,1291.50,929.75
1562,1032.13,3049.49,6.62,1280.50,923.00
1564,1032.40,3052.03,17.44,1291.00,930.25
1566,1032.67,3054.57,35.23,1282.00,919.75
1568,1032.94,3057.11,28.14,1298.25,937.75
1570,1033.21,3059.64,18.04,1276.25,916.50
1572,1033.48,3062.18,47.52,1294.50,929.75
1574,1033.75,3064.70,0.00,1291.50,934.00
1576,1034.02,3067.23,70.24,1298.50,932.25
1578,1034.29,3069.75,48.79,1280.00,910.50
1580,1034.56,3072.28,0.00,1288.50,931.75
1582,1034.83,3074.79,0.00,1271.00,913.50
1584,1035.10,3077.31,32.43,1291.00,926.00
1586,1035.37,3079.82,112.87,1290.00,917.50
1588,1035.64,3082.33,4.26,1301.50,939.50
1590,1035.91,3084.84,0.58,1288.00,926.00
1592,1036.17,3087.34,1.05,1282.25,919.50
1594,1036.44,3089.85,0.00,1300.75,938.25
1596,1036.71,3092.35,0.82,1286.25,921.50
1598,1036.98,3094.84,14.23,1284.00,915.00
1600,1037.25,3097.34,36.59,1282.00,909.75
1602,1037.52,3099.83,61.45,1301.75,926.00
1604,1037.78,3102.32,63.22,1301.00,923.50
1606,1038.05,3104.80,38.94,1311.50,933.50
1608,1038.32,3107.29,11.36,1301.00,924.00
1610,1038.59,3109.77,0.00,1292.25,925.00
1612,1038.85,3112.24,22.22,1300.50,919.25
1614,1039.12,3114.72,0.00,1310.75,936.50
1616,1039.39,3117.19,48.91,1299.25,911.00
1618,1039.66,3119.66,0.00,1313.75,928.50
1620,1039.92,3122.13,33.35,1325.00,932.25
1622,1040.19,3124.59,0.00,1311.25,924.00
1624,1040.45,3127.05,42.50,1323.00,921.75
1626,1040.72,3129.51,0.00,1322.25,929.00
1628,1040.99,3131.97,24.10,1343.00,932.25
1630,1041.25,3134.42,0.00,1345.25,935.75
1632,1041.52,3136.87,40.99,1336.00,915.50
1634,1041.78,3139.32,119.07,1355.00,921.75
1636,1042.05,3141.77,18.18,1391.50,959.25
1638,1042.32,3144.21,0.00,1352.50,919.25
1640,1042.58,3146.65,0.00,1378.75,936.50
1642,1042.85,3149.09,0.00,1370.25,930.50
1644,1043.11,3151.52,0.00,1383.25,926.25
1646,1043.38,3153.96,38.58,1407.25,937.25
1648,1043.64,3156.39,70.31,1403.50,924.00
1650,1043.90,3158.81,93.61,1414.75,923.50
1652,1044.17,3161.24,0.00,1419.00,933.00
1654,1044.43,3163.66,0.00,1417.75,921.25
1656,1044.70,3166.08,21.32,1451.00,942.50
1658,1044.96,3168.49,61.12,1447.00,928.00
1660,1045.22,3170.91,90.00,1448.50,918.50
1662,1045.49,3173.32,13.85,1456.00,925.75
1664,1045.75,3175.73,0.00,1464.00,934.25
1666,1046.01,3178.13,45.92,1473.00,924.50
1668,1046.28,3180.54,23.70,1489.75,935.00
1670,1046.54,3182.94,35.18,1505.00,940.25
1672,1046.80,3185.34,0.00,1496.00,934.00
1674,1047.07,3187.73,88.47,1505.50,920.50
1676,1047.33,3190.12,183.65,1525.75,928.75
1678,1047.59,3192.51,346.91,1552.75,938.75
1680,1047.85,3194.90,423.33,1562.75,939.00
1682,1048.11,3197.29,603.73,1577.00,936.00
1684,1048.38,3199.67,578.99,1567.50,930.75
1686,1048.64,3202.05,713.16,1587.25,938.50
1688,1048.90,3204.43,943.86,1597.75,928.75
1690,1049.16,3206.80,1165.72,1608.75,924.00
1692,1049.42,3209.17,1292.99,1629.75,939.00
1694,1049.68,3211.54,1625.42,1639.25,923.75
1696,1049.94,3213.91,1728.89,1654.00,931.50
1698,1050.20,3216.27,1651.91,1649.50,933.50
1700,1050.46,3218.63,1753.02,1671.25,946.25
1702,1050.72,3220.99,1853.47,1662.75,930.50
1704,1050.98,3223.35,2118.03,1689.25,939.25
1706,1051.24,3225.70,2169.18,1679.25,931.25
1708,1051.50,3228.05,2430.35,1684.00,919.75
1710,1051.76,3230.40,2228.15,1687.00,942.00
1712,1052.02,3232.75,2376.08,1688.25,933.00
1714,1052.28,3235.09,2311.30,1689.50,938.25
1716,1052.54,3237.43,2160.85,1672.25,933.00
1718,1052.80,3239.77,2476.45,1684.25,925.50
1720,1053.06,3242.11,2698.35,1695.50,929.25
1722,1053.32,3244.44,2816.81,1687.00,918.00
1724,1053.58,3246.77,2704.22,1703.25,943.75
1726,1053.84,3249.10,2553.69,1672.00,925.00
1728,1054.10,3251.42,2695.73,1685.00,931.25
1730,1054.35,3253.75,2745.04,1678.25,924.50
1732,1054.61,3256.07,2483.02,1676.75,944.00
1734,1054.87,3258.39,2467.39,1658.00,929.00
1736,1055.13,3260.70,2443.64,1652.00,928.75
1738,1055.38,3263.01,2256.67,1637.00,930.25
1740,1055.64,3265.32,2227.26,1633.25,931.25
1742,1055.90,3267.63,2242.03,1612.00,914.00
1744,1056.16,3269.94,2144.33,1629.25,944.50
1746,1056.41,3272.24,2266.41,1627.50,938.25
1748,1056.67,3274.54,2068.48,1611.00,934.00
1750,1056.93,3276.84,1784.59,1589.25,931.75
1752,1057.18,3279.13,1926.01,1589.00,927.50
1754,1057.44,3281.42,1742.23,1568.25,925.00
1756,1057.69,3283.71,1583.07,1557.75,926.25
1758,1057.95,3286.00,1389.98,1557.75,938.25
1760,1058.21,3288.28,1230.93,1538.50,932.00
1762,1058.46,3290.57,1241.58,1538.50,936.25
1764,1058.72,3292.85,1241.39,1539.75,940.75
1766,1058.97,3295.12,1002.10,1507.25,924.50
1768,1059.23,3297.40,881.99,1498.75,926.00
1770,1059.48,3299.67,939.50,1511.75,938.75
1772,1059.74,3301.94,708.39,1478.50,921.00
1774,1059.99,3304.21,580.61,1482.50,934.00
1776,1060.25,3306.47,618.97,1488.75,942.00
1778,1060.50,3308.73,519.87,1462.00,927.00
1780,1060.76,3310.99,452.75,1453.25,926.25
1782,1061.01,3313.25,247.25,1448.00,936.50
1784,1061.26,3315.50,366.27,1441.25,928.75
1786,1061.52,3317.76,404.45,1442.00,934.50
1788,1061.77,3320.01,268.15,1434.25,940.00
1790,1062.02,3322.25,222.59,1414.25,927.50
1792,1062.28,3324.50,212.05,1408.75,928.00
1794,1062.53,3326.74,271.59,1395.50,917.50
1796,1062.78,3328.98,174.09,1397.50,930.50
1798,1063.04,3331.22,144.04,1391.25,931.75
1800,1063.29,3333.45,259.74,1390.50,931.25
1802,1063.54,3335.68,119.24,1369.25,923.50
1804,1063.79,3337.91,237.04,1386.25,939.75
1806,1064.05,3340.14,83.76,1378.25,945.00
1808,1064.30,3342.36,39.08,1346.50,921.50
1810,1064.55,3344.59,101.09,1355.00,932.75
1812,1064.80,3346.81,308.58,1349.75,925.00
1814,1065.05,3349.02,156.45,1335.00,923.75
1816,1065.30,3351.24,555.57,1356.25,935.75
1818,1065.55,3353.45,292.32,1333.00,925.00
1820,1065.81,3355.66,0.00,1336.50,949.25
1822,1066.06,3357.87,62.13,1317.50,927.00
1824,1066.31,3360.07,11.53,1298.25,919.25
1826,1066.56,3362.27,236.97,1315.75,931.75
1828,1066.81,3364.47,378.38,1300.50,919.25
1830,1067.06,3366.67,437.72,1304.50,924.25
1832,1067.31,3368.87,5.62,1284.25,926.50
1834,1067.56,3371.06,302.93,1280.50,914.25
1836,1067.81,3373.25,74.00,1265.75,914.25
1838,1068.06,3375.44,216.00,1272.75,918.25
1840,1068.31,3377.62,144.90,1271.50,925.00
1842,1068.56,3379.81,345.33,1268.25,918.00
1844,1068.80,3381.99,302.53,1285.00,943.50
1846,1069.05,3384.16,443.55,1270.75,929.50
1848,1069.30,3386.34,263.33,1254.25,922.25
1850,1069.55,3388.51,201.13,1252.50,925.25
1852,1069.80,3390.68,183.13,1253.75,930.75
1854,1070.05,3392.85,11.42,1259.50,950.25
1856,1070.30,3395.02,498.91,1246.75,924.00
1858,1070.54,3397.18,595.77,1236.75,917.50
1860,1070.79,3399.34,404.56,1239.25,929.75
1862,1071.04,3401.50,230.17,1223.00,922.50
1864,1071.29,3403.66,296.81,1215.50,915.25
1866,1071.53,3405.81,276.66,1228.00,930.50
1868,1071.78,3407.96,167.76,1216.00,927.00
1870,1072.03,3410.11,217.89,1214.25,928.25
1872,1072.27,3412.26,26.13,1205.75,932.00
1874,1072.52,3414.40,541.13,1209.00,923.50
1876,1072.77,3416.54,541.73,1200.75,917.25
1878,1073.01,3418.68,276.99,1210.25,938.25
1880,1073.26,3420.82,406.87,1185.50,912.75
1882,1073.51,3422.96,194.73,1189.25,928.50
1884,1073.75,3425.09,554.61,1193.25,924.00
1886,1074.00,3427.22,91.33,1170.75,920.25
1888,1074.24,3429.35,317.31,1187.00,931.50
1890,1074.49,3431.47,56.37,1163.00,920.75
1892,1074.73,3433.59,34.56,1157.25,919.25
1894,1074.98,3435.71,373.26,1178.00,933.50
1896,1075.22,3437.83,355.66,1167.50,927.50
1898,1075.47,3439.95,563.63,1174.75,931.00
1900,1075.71,3442.06,170.80,1161.75,932.25
1902,1075.96,3444.17,360.75,1158.75,924.75
1904,1076.20,3446.28,273.20,1124.25,898.25
1906,1076.44,3448.38,612.47,1169.00,938.25
1908,1076.69,3450.49,477.57,1158.25,935.50
1910,1076.93,3452.59,293.94,1142.75,927.75
1912,1077.17,3454.69,490.44,1142.50,924.00
1914,1077.42,3456.79,243.01,1142.00,930.50
1916,1077.66,3458.88,102.76,1123.25,918.25
1918,1077.90,3460.97,69.05,1124.75,924.50
1920,1078.15,3463.06,245.96,1138.00,936.00
1922,1078.39,3465.15,713.10,1134.25,926.50
1924,1078.63,3467.23,455.31,1108.75,909.50
1926,1078.87,3469.32,56.65,1123.25,934.75
1928,1079.12,3471.40,127.15,1114.00,925.00
1930,1079.36,3473.47,94.87,1137.25,951.25
1932,1079.60,3475.55,34.07,1103.00,921.50
1934,1079.84,3477.62,319.12,1115.50,928.50
1936,1080.08,3479.69,368.38,1098.50,913.75
1938,1080.33,3481.76,355.04,1097.25,915.50
1940,1080.57,3483.83,375.40,1105.75,925.00
1942,1080.81,3485.89,176.56,1101.00,926.00
1944,1081.05,3487.95,33.07,1106.25,937.25
1946,1081.29,3490.01,203.75,1102.00,929.50
1948,1081.53,3492.07,282.91,1090.25,919.25
1950,1081.77,3494.12,406.88,1090.00,919.75
1952,1082.01,3496.18,275.40,1094.50,929.25
1954,1082.25,3498.23,679.03,1091.00,918.25
1956,1082.49,3500.27,758.54,1091.50,917.50
1958,1082.73,3502.32,5.85,1072.00,918.25
1960,1082.97,3504.36,348.99,1092.00,931.75
1962,1083.21,3506.40,590.76,1083.50,919.50
1964,1083.45,3508.44,391.11,1067.00,910.25
1966,1083.69,3510.48,333.47,1094.50,942.00
1968,1083.93,3512.51,601.80,1081.75,927.00
1970,1084.16,3514.54,954.33,1080.00,916.75
1972,1084.40,3516.57,83.67,1066.75,923.00
1974,1084.64,3518.60,33.92,1061.25,920.50
1976,1084.88,3520.62,23.96,1076.75,938.75
1978,1085.12,3522.65,160.49,1077.00,937.50
1980,1085.36,3524.67,357.08,1062.50,923.00
1982,1085.59,3526.68,771.95,1061.75,918.25
1984,1085.83,3528.70,868.34,1073.50,929.25
1986,1086.07,3530.71,469.66,1057.25,921.00
1988,1086.31,3532.72,824.95,1070.00,927.50
1990,1086.54,3534.73,476.76,1049.25,916.25
1992,1086.78,3536.74,260.03,1068.25,942.00
1994,1087.02,3538.74,386.81,1054.25,927.75
1996,1087.25,3540.74,604.06,1044.50,915.50
1998,1087.49,3542.74,671.55,1053.50,923.50
2000,1087.73,3544.74,214.08,1041.50,922.50
2002,1087.96,3546.74,471.44,1043.00,920.00
2004,1088.20,3548.73,495.24,1054.75,935.00
2006,1088.43,3550.72,1040.63,1049.25,924.50
2008,1088.67,3552.71,582.46,1037.50,922.00
2010,1088.90,3554.69,107.16,1023.75,916.75
2012,1089.14,3556.68,226.81,1036.00,928.00
2014,1089.38,3558.66,157.01,1022.00,916.50
2016,1089.61,3560.64,171.07,1023.75,919.25
2018,1089.84,3562.62,359.24,1031.75,924.50
2020,1090.08,3564.59,9.47,1014.75,918.25
2022,1090.31,3566.56,310.83,1018.50,918.50
2024,1090.55,3568.53,642.52,1021.25,918.50
2026,1090.78,3570.50,523.22,1008.00,909.00
2028,1091.02,3572.47,916.15,1018.00,914.50
2030,1091.25,3574.43,333.69,1003.50,910.50
2032,1091.48,3576.39,1075.45,1001.75,899.50
2034,1091.72,3578.35,1103.30,1003.25,902.25
2036,1091.95,3580.31,398.11,1004.50,915.25
2038,1092.18,3582.26,0.00,985.25,905.50
2040,1092.42,3584.22,420.74,991.50,902.50
2042,1092.65,3586.17,75.93,992.75,910.75
2044,1092.88,3588.12,2.18,978.50,900.25
2046,1093.11,3590.06,1.12,976.25,898.25
2047,1093.23,3591.03,0.00,973.75,899.25