File: plugins/Raman/MatchingLibrary/785X/cyclohexanol.csv
ENLIGHTEN Version,4.1.22
Measurement ID,20250220-200944-384161-WP-01977
Serial Number,WP-01977
Model,WP-785X-F13-R-ILC
Detector,S16011-1106
Label,cyclohexanol
Declared Match,
Declared Score,0
Scan Averaging,6
Boxcar,0
Technique,Raman
Baseline Correction Algo,AirPLS
ROI Pixel Start,47
ROI Pixel End,2047
ROI Start Line,0
ROI Stop Line,63
CCD C4,1.38617e-12
Slit Width,25
Cropped,True
Interpolated,False
Wavenumber Correction,-0.100481
Raman Intensity Corrected,True
Deconvolved,True
Region,
High Gain Mode,False
Laser Power mW,
Electrical Dark Correction,False
Battery %,
Device ID,<DeviceID USB:0x24aa:0x1000:0:1>
FW Version,10.0.0.10
FPGA Version,035-001
BLE Version,
Prefix,enlighten
Suffix,
Preset,
Auto-Raman,True
Session Count,0
Plugin Name,
Integration Time,198
Timestamp,2025-02-20 20:09:44.3842
Note,
Temperature,0
CCD C0,793.274
CCD C1,0.153259
CCD C2,1.40788e-05
CCD C3,-1.132e-08
CCD Offset,0
CCD Gain,1.9
CCD Offset Odd,0
CCD Gain Odd,1.9
Laser Wavelength,785.032
Laser Enable,False
Laser Power %,0
Laser Temperature,0
Pixel Count,2048

Pixel,Wavelength,Wavenumber,Processed,Raw,Dark
0,793.27,132.25,NA,898.17,887.17
2,793.58,137.12,NA,905.00,896.00
4,793.89,141.99,NA,901.50,891.83
6,794.19,146.86,NA,900.67,891.00
8,794.50,151.72,NA,910.17,895.83
10,794.81,156.58,NA,909.50,896.83
12,795.12,161.44,NA,900.50,889.33
14,795.42,166.30,NA,901.50,890.00
16,795.73,171.16,NA,903.67,887.67
18,796.04,176.01,NA,910.17,900.00
20,796.35,180.86,NA,908.50,898.83
22,796.65,185.71,NA,922.67,910.50
24,796.96,190.56,NA,909.67,898.67
26,797.27,195.41,NA,917.33,903.50
28,797.58,200.25,NA,922.17,907.00
30,797.88,205.09,NA,912.50,896.17
32,798.19,209.93,NA,912.50,894.50
34,798.50,214.77,NA,914.83,894.83
36,798.81,219.60,NA,915.67,892.00
38,799.12,224.43,NA,924.50,895.83
40,799.43,229.27,NA,975.00,904.00
42,799.74,234.09,NA,1106.67,898.50
44,800.04,238.92,NA,1340.83,913.33
46,800.35,243.75,NA,1392.50,898.83
48,800.66,248.57,63.67,1393.83,904.17
50,800.97,253.39,14.93,1359.83,908.83
52,801.28,258.21,8.41,1344.00,905.33
54,801.59,263.02,0.12,1329.50,906.00
56,801.90,267.83,0.00,1313.17,903.00
58,802.21,272.65,0.00,1312.67,901.50
60,802.52,277.46,0.00,1302.50,899.83
62,802.83,282.26,0.00,1312.83,909.17
64,803.14,287.07,0.00,1323.67,911.83
66,803.45,291.87,1.25,1336.67,911.17
68,803.76,296.67,23.62,1365.33,912.67
70,804.07,301.47,66.67,1415.83,901.33
72,804.38,306.26,135.07,1503.33,904.67
74,804.69,311.06,211.55,1578.50,899.33
76,805.00,315.85,191.95,1575.83,901.00
78,805.31,320.64,152.87,1558.50,905.50
80,805.62,325.42,184.67,1625.17,908.00
82,805.93,330.21,318.92,1816.50,908.67
84,806.24,334.99,608.95,2124.33,896.33
86,806.55,339.77,777.30,2316.17,906.00
88,806.86,344.55,660.13,2229.83,906.17
90,807.17,349.32,494.40,2038.83,898.00
92,807.48,354.10,387.61,1893.17,899.33
94,807.80,358.87,329.02,1816.17,910.17
96,808.11,363.63,290.46,1756.17,905.50
98,808.42,368.40,278.34,1732.33,899.17
100,808.73,373.16,258.58,1711.83,899.67
102,809.04,377.93,262.20,1723.00,898.00
104,809.35,382.68,283.67,1765.83,898.33
106,809.66,387.44,377.03,1901.67,900.50
108,809.98,392.19,505.70,2116.00,896.17
110,810.29,396.95,718.89,2529.17,906.33
112,810.60,401.70,1337.50,3364.83,903.83
114,810.91,406.44,2298.09,4282.83,905.00
116,811.22,411.19,2027.29,4042.83,908.67
118,811.54,415.93,954.05,2922.33,906.50
120,811.85,420.67,466.86,2179.67,897.83
122,812.16,425.41,362.08,1938.00,899.33
124,812.47,430.14,363.76,1907.50,899.83
126,812.79,434.87,398.18,1985.17,895.17
128,813.10,439.60,538.39,2280.00,894.00
130,813.41,444.33,984.68,3015.50,896.83
132,813.72,449.06,2014.35,4304.50,894.00
134,814.04,453.78,2918.29,5283.67,902.00
136,814.35,458.50,2556.88,5028.50,895.00
138,814.66,463.22,1762.38,4285.67,892.00
140,814.98,467.93,1669.97,4291.00,896.50
142,815.29,472.65,2701.49,5532.17,896.83
144,815.60,477.36,4030.42,6809.33,898.83
146,815.92,482.06,3426.28,6192.00,889.67
148,816.23,486.77,1859.20,4414.33,906.33
150,816.54,491.47,913.70,3000.67,912.33
152,816.86,496.17,520.82,2258.33,893.17
154,817.17,500.87,337.17,1919.83,899.50
156,817.48,505.57,220.05,1721.50,892.83
158,817.80,510.26,132.83,1591.33,893.17
160,818.11,514.95,104.76,1541.67,898.33
162,818.42,519.64,85.65,1511.83,900.67
164,818.74,524.32,70.58,1490.67,895.00
166,819.05,529.00,85.40,1525.33,902.17
168,819.37,533.68,133.73,1602.50,895.00
170,819.68,538.36,228.51,1807.67,902.00
172,819.99,543.04,446.64,2353.67,906.33
174,820.31,547.71,1213.57,3941.17,899.83
176,820.62,552.38,3763.64,7414.67,893.83
178,820.94,557.05,6807.38,10386.50,900.33
180,821.25,561.71,5029.00,8805.00,895.67
182,821.57,566.37,1997.09,5167.67,893.17
184,821.88,571.03,779.29,2994.17,896.00
186,822.20,575.69,403.50,2151.67,901.00
188,822.51,580.34,227.80,1788.67,897.83
190,822.83,584.99,147.20,1637.67,902.83
192,823.14,589.64,101.95,1552.00,895.67
194,823.46,594.29,70.07,1501.33,896.17
196,823.77,598.93,42.16,1459.67,898.83
198,824.09,603.57,31.02,1428.67,890.00
200,824.40,608.21,24.31,1428.00,898.67
202,824.72,612.85,5.11,1402.00,901.83
204,825.03,617.48,2.72,1396.17,899.83
206,825.35,622.11,0.39,1393.67,904.33
208,825.66,626.74,0.00,1383.33,902.50
210,825.98,631.36,0.00,1372.50,894.50
212,826.29,635.99,0.96,1389.33,898.50
214,826.61,640.61,8.01,1403.17,898.83
216,826.92,645.22,28.43,1434.33,894.17
218,827.24,649.84,66.91,1496.83,891.83
220,827.56,654.45,134.04,1613.67,900.67
222,827.87,659.06,237.38,1731.33,899.00
224,828.19,663.67,250.40,1743.17,897.83
226,828.50,668.27,135.19,1625.67,911.00
228,828.82,672.87,70.87,1509.50,899.67
230,829.13,677.47,43.85,1454.17,898.83
232,829.45,682.06,18.89,1414.17,900.17
234,829.77,686.66,3.35,1406.33,920.50
236,830.08,691.25,0.00,1367.33,895.50
238,830.40,695.83,0.00,1365.33,897.33
240,830.72,700.42,0.00,1358.00,894.33
242,831.03,705.00,0.00,1356.00,882.00
244,831.35,709.58,0.00,1371.83,898.33
246,831.66,714.15,0.00,1370.17,885.33
248,831.98,718.73,0.00,1383.00,898.17
250,832.30,723.30,0.00,1397.83,890.83
252,832.61,727.87,0.00,1422.00,904.17
254,832.93,732.43,2.65,1423.83,884.83
256,833.25,736.99,22.15,1482.17,901.67
258,833.56,741.55,41.78,1515.33,895.50
260,833.88,746.11,87.77,1601.50,894.83
262,834.20,750.66,150.98,1700.17,894.17
264,834.51,755.22,188.00,1786.00,899.50
266,834.83,759.76,232.26,1898.00,902.33
268,835.15,764.31,357.11,2137.17,897.50
270,835.47,768.85,615.57,2614.50,889.00
272,835.78,773.39,1064.85,3701.83,895.33
274,836.10,777.93,2055.31,6665.67,896.83
276,836.42,782.46,6160.08,15757.17,896.67
278,836.73,787.00,20518.71,34239.33,895.17
280,837.05,791.52,31287.38,43785.50,894.00
282,837.37,796.05,14422.29,27796.33,901.17
284,837.69,800.57,3605.85,11092.50,896.33
286,838.00,805.09,1404.35,5037.83,895.50
288,838.32,809.61,812.77,3147.83,893.83
290,838.64,814.13,520.47,2498.33,897.50
292,838.95,818.64,359.93,2220.67,889.83
294,839.27,823.15,304.50,2183.50,898.00
296,839.59,827.65,463.52,2517.83,896.50
298,839.91,832.15,965.58,3525.83,894.17
300,840.22,836.65,1747.59,5371.50,907.50
302,840.54,841.15,4623.14,9418.33,896.67
304,840.86,845.65,8256.26,12562.83,905.00
306,841.18,850.14,3564.09,8272.50,899.17
308,841.50,854.63,603.24,3641.00,919.33
310,841.81,859.11,175.74,2185.67,895.83
312,842.13,863.60,113.70,1851.50,895.33
314,842.45,868.07,64.21,1746.50,892.50
316,842.77,872.55,19.06,1704.50,898.67
318,843.08,877.03,39.24,1797.33,905.00
320,843.40,881.50,222.77,2142.17,886.67
322,843.72,885.97,690.21,2719.67,901.83
324,844.04,890.43,963.38,2956.67,891.17
326,844.36,894.89,457.42,2458.00,892.17
328,844.67,899.35,63.03,1908.00,898.67
330,844.99,903.81,1.47,1679.17,886.00
332,845.31,908.26,0.10,1654.00,899.00
334,845.63,912.71,24.33,1816.17,899.67
336,845.95,917.16,294.38,2293.83,899.67
338,846.27,921.61,928.15,3068.83,980.00
340,846.58,926.05,983.16,3035.50,894.33
342,846.90,930.49,408.98,2430.50,902.33
344,847.22,934.92,55.43,1896.00,897.33
346,847.54,939.36,0.26,1655.33,885.00
348,847.86,943.79,0.00,1590.67,890.00
350,848.18,948.21,0.00,1638.83,890.50
352,848.49,952.64,22.00,1803.50,897.33
354,848.81,957.06,228.62,2146.17,883.33
356,849.13,961.48,607.30,2728.67,908.83
358,849.45,965.89,985.91,3220.50,899.67
360,849.77,970.31,986.88,3227.17,893.50
362,850.09,974.71,632.87,2800.17,895.83
364,850.40,979.12,241.73,2267.33,901.00
366,850.72,983.52,74.25,1961.17,905.17
368,851.04,987.92,51.26,1884.33,890.17
370,851.36,992.32,94.92,1953.67,889.33
372,851.68,996.72,147.06,2062.33,894.17
374,852.00,1001.11,239.05,2249.83,892.00
376,852.32,1005.50,422.51,2606.00,888.00
378,852.63,1009.88,713.18,3353.83,904.33
380,852.95,1014.26,1364.50,5239.17,901.83
382,853.27,1018.64,3887.91,10396.83,907.17
384,853.59,1023.02,11510.40,19769.67,892.67
386,853.91,1027.39,15140.21,23294.83,892.83
388,854.23,1031.76,8208.03,16364.67,891.00
390,854.55,1036.13,3688.13,9848.00,897.17
392,854.87,1040.49,2315.10,7120.33,890.00
394,855.18,1044.86,3276.69,8041.50,898.67
396,855.50,1049.21,5805.02,10383.33,896.50
398,855.82,1053.57,4608.93,9264.17,903.33
400,856.14,1057.92,2290.91,6620.83,895.17
402,856.46,1062.27,1879.22,5896.17,896.67
404,856.78,1066.62,2755.30,6892.83,887.67
406,857.10,1070.96,4170.84,8376.00,888.33
408,857.42,1075.30,4002.90,8147.50,904.00
410,857.74,1079.64,2358.76,6184.33,894.83
412,858.06,1083.97,1202.64,4379.33,891.33
414,858.37,1088.30,652.73,3304.00,885.17
416,858.69,1092.63,329.53,2688.67,891.17
418,859.01,1096.95,126.86,2340.50,885.00
420,859.33,1101.27,18.41,2165.83,892.17
422,859.65,1105.59,0.34,2109.67,895.50
424,859.97,1109.91,1.87,2128.50,891.33
426,860.29,1114.22,48.80,2228.50,891.50
428,860.61,1118.53,115.52,2334.17,887.67
430,860.93,1122.84,208.39,2571.00,890.33
432,861.25,1127.14,438.22,3067.67,899.50
434,861.56,1131.44,1001.75,4070.50,888.50
436,861.88,1135.74,2013.70,5633.00,891.50
438,862.20,1140.03,3227.68,7171.83,898.00
440,862.52,1144.32,3701.20,7597.33,898.17
442,862.84,1148.61,2333.89,6063.67,903.33
444,863.16,1152.89,908.27,4106.67,891.00
446,863.48,1157.17,362.12,3065.00,892.17
448,863.80,1161.45,220.28,2730.50,894.33
450,864.12,1165.73,312.07,2870.17,895.67
452,864.44,1170.00,662.23,3353.83,890.83
454,864.76,1174.27,1047.85,3865.17,896.83
456,865.07,1178.53,1104.63,4014.83,891.33
458,865.39,1182.80,1054.87,3940.00,897.83
460,865.71,1187.06,911.89,3662.00,892.00
462,866.03,1191.31,437.41,3071.67,896.17
464,866.35,1195.57,104.58,2563.50,893.67
466,866.67,1199.82,8.58,2373.00,897.67
468,866.99,1204.06,0.00,2298.00,894.50
470,867.31,1208.31,0.00,2299.67,896.83
472,867.63,1212.55,6.44,2370.50,891.33
474,867.95,1216.79,88.36,2489.33,886.17
476,868.27,1221.02,220.82,2697.17,892.67
478,868.58,1225.25,370.06,2971.50,883.83
480,868.90,1229.48,614.12,3451.33,897.83
482,869.22,1233.71,1062.04,4179.50,900.17
484,869.54,1237.93,1746.67,5247.00,906.33
486,869.86,1242.15,2331.87,6477.83,898.67
488,870.18,1246.36,3314.71,8518.17,889.83
490,870.50,1250.58,6017.00,12377.67,899.17
492,870.82,1254.79,9348.73,16097.00,909.67
494,871.14,1258.99,8896.72,15843.83,896.83
496,871.46,1263.20,6336.52,12886.33,901.83
498,871.78,1267.40,4587.74,10094.83,892.50
500,872.10,1271.59,3164.50,7738.17,892.67
502,872.41,1275.79,2032.42,5959.00,890.00
504,872.73,1279.98,1504.82,5031.50,898.00
506,873.05,1284.17,1397.11,4750.67,898.67
508,873.37,1288.35,1473.51,4809.17,881.83
510,873.69,1292.53,1667.62,5126.50,890.00
512,874.01,1296.71,1968.62,5586.33,891.83
514,874.33,1300.88,2400.39,6082.67,885.67
516,874.65,1305.06,2537.99,6160.00,893.67
518,874.97,1309.22,2018.85,5537.00,889.00
520,875.29,1313.39,1322.13,4663.50,894.67
522,875.60,1317.55,983.49,4154.33,895.33
524,875.92,1321.71,1031.55,4163.67,894.17
526,876.24,1325.87,1330.57,4512.33,899.50
528,876.56,1330.02,1641.02,4880.83,890.00
530,876.88,1334.17,1656.79,5101.17,898.67
532,877.20,1338.32,1659.46,5361.00,888.33
534,877.52,1342.46,2539.81,6516.17,888.67
536,877.84,1346.60,3697.37,7712.00,895.33
538,878.16,1350.73,3363.48,7533.67,893.50
540,878.47,1354.87,2649.53,6848.50,892.67
542,878.79,1359.00,2670.02,6725.00,894.67
544,879.11,1363.13,2845.36,6691.83,895.67
546,879.43,1367.25,2484.81,6150.00,892.50
548,879.75,1371.37,1770.31,5222.83,888.50
550,880.07,1375.49,1184.16,4383.00,888.67
552,880.39,1379.60,833.02,3816.17,895.50
554,880.71,1383.71,688.72,3539.67,893.50
556,881.03,1387.82,658.98,3451.33,886.67
558,881.34,1391.93,674.06,3459.67,883.83
560,881.66,1396.03,732.86,3556.67,887.33
562,881.98,1400.13,815.99,3693.17,895.00
564,882.30,1404.22,941.52,3876.67,893.83
566,882.62,1408.31,1072.56,4082.67,889.33
568,882.94,1412.40,1229.17,4349.67,897.50
570,883.26,1416.49,1410.35,4644.33,889.50
572,883.57,1420.57,1716.88,5170.83,897.50
574,883.89,1424.65,2152.56,5998.00,889.67
576,884.21,1428.73,2957.63,7597.67,900.33
578,884.53,1432.80,4800.96,10631.83,901.83
580,884.85,1436.87,8478.07,15325.83,891.83
582,885.17,1440.93,11825.43,19162.50,888.67
584,885.49,1445.00,11616.74,19269.17,891.67
586,885.80,1449.06,9947.00,17165.50,886.00
588,886.12,1453.11,7212.03,13564.00,899.00
590,886.44,1457.17,4290.43,9726.33,895.50
592,886.76,1461.22,2865.88,7405.50,898.50
594,887.08,1465.26,2786.16,6682.83,896.67
596,887.40,1469.31,2598.57,6112.50,888.83
598,887.71,1473.35,1611.33,4956.33,887.50
600,888.03,1477.38,970.82,4072.67,895.17
602,888.35,1481.42,721.14,3586.33,898.00
604,888.67,1485.45,563.25,3282.67,895.17
606,888.99,1489.48,405.46,3039.17,886.67
608,889.31,1493.50,282.68,2863.50,892.67
610,889.62,1497.52,208.59,2737.83,894.00
612,889.94,1501.54,147.34,2625.33,884.50
614,890.26,1505.56,79.93,2545.67,889.67
616,890.58,1509.57,30.71,2469.50,891.67
618,890.90,1513.57,21.38,2429.83,891.00
620,891.21,1517.58,15.06,2388.67,888.33
622,891.53,1521.58,3.35,2351.83,892.83
624,891.85,1525.58,4.12,2318.33,890.17
626,892.17,1529.57,10.27,2293.50,893.50
628,892.49,1533.57,2.09,2258.50,896.17
630,892.80,1537.56,0.27,2216.67,886.67
632,893.12,1541.54,0.00,2170.83,888.33
634,893.44,1545.52,0.00,2147.00,898.33
636,893.76,1549.50,0.00,2118.50,889.00
638,894.07,1553.48,0.00,2094.00,895.00
640,894.39,1557.45,0.00,2072.83,885.00
642,894.71,1561.42,0.00,2081.17,895.33
644,895.03,1565.39,0.31,2068.50,881.83
646,895.34,1569.35,30.33,2116.50,898.33
648,895.66,1573.31,64.23,2122.83,891.33
650,895.98,1577.26,58.90,2109.83,891.17
652,896.30,1581.22,38.48,2073.83,885.33
654,896.61,1585.17,18.65,2044.33,888.67
656,896.93,1589.11,1.62,2011.33,896.33
658,897.25,1593.06,0.00,1982.83,888.00
660,897.57,1597.00,1.17,1979.00,889.50
662,897.88,1600.93,0.00,1958.67,887.67
664,898.20,1604.87,0.00,1951.00,890.50
666,898.52,1608.80,12.30,1974.33,888.00
668,898.84,1612.72,39.41,1978.33,882.67
670,899.15,1616.65,37.37,1986.17,895.17
672,899.47,1620.57,38.22,1975.50,887.67
674,899.79,1624.49,52.43,1982.67,888.17
676,900.10,1628.40,55.70,1974.50,884.67
678,900.42,1632.31,35.47,1954.17,900.17
680,900.74,1636.22,42.59,1941.17,882.83
682,901.05,1640.12,37.19,1947.33,901.33
684,901.37,1644.02,45.28,1935.67,888.67
686,901.69,1647.92,53.17,1941.50,896.33
688,902.00,1651.82,74.49,1942.83,884.67
690,902.32,1655.71,63.88,1931.00,888.17
692,902.64,1659.60,71.22,1934.17,887.67
694,902.95,1663.48,72.13,1931.83,893.83
696,903.27,1667.36,84.46,1934.67,888.00
698,903.59,1671.24,97.98,1951.67,898.67
700,903.90,1675.11,99.84,1942.67,893.83
702,904.22,1678.99,111.54,1940.50,885.00
704,904.54,1682.85,114.09,1953.50,907.00
706,904.85,1686.72,122.36,1929.33,884.67
708,905.17,1690.58,98.96,1901.00,888.33
710,905.49,1694.44,90.54,1882.00,883.50
712,905.80,1698.29,72.81,1855.17,892.67
714,906.12,1702.15,90.20,1863.17,893.17
716,906.43,1706.00,77.98,1838.50,893.17
718,906.75,1709.84,65.14,1819.00,895.17
720,907.07,1713.68,53.71,1786.83,886.00
722,907.38,1717.52,41.56,1765.50,890.67
724,907.70,1721.36,36.77,1752.17,889.83
726,908.01,1725.19,25.02,1730.50,892.50
728,908.33,1729.02,40.77,1741.00,896.33
730,908.65,1732.85,21.26,1706.17,893.17
732,908.96,1736.67,20.36,1698.33,894.17
734,909.28,1740.49,13.36,1676.50,887.00
736,909.59,1744.30,10.04,1672.00,895.67
738,909.91,1748.12,11.06,1652.50,885.67
740,910.22,1751.93,0.11,1638.67,893.17
742,910.54,1755.73,0.85,1647.17,907.50
744,910.85,1759.54,11.39,1637.00,895.33
746,911.17,1763.34,2.05,1613.67,887.50
748,911.49,1767.13,0.10,1607.00,892.17
750,911.80,1770.93,8.43,1606.00,882.17
752,912.12,1774.72,8.62,1612.33,900.00
754,912.43,1778.50,28.75,1614.17,886.00
756,912.75,1782.29,30.23,1606.17,881.17
758,913.06,1786.07,31.19,1606.83,885.67
760,913.38,1789.84,50.99,1620.33,887.17
762,913.69,1793.62,37.13,1605.17,892.67
764,914.01,1797.39,16.65,1576.83,891.00
766,914.32,1801.15,30.52,1579.67,884.17
768,914.64,1804.92,42.26,1585.50,886.67
770,914.95,1808.68,47.78,1593.00,893.00
772,915.26,1812.44,53.08,1588.50,895.17
774,915.58,1816.19,48.55,1566.33,885.33
776,915.89,1819.94,23.59,1544.17,890.00
778,916.21,1823.69,9.45,1526.50,893.00
780,916.52,1827.43,5.33,1512.50,895.50
782,916.84,1831.17,24.80,1511.50,882.67
784,917.15,1834.91,22.21,1504.33,883.50
786,917.47,1838.64,22.90,1508.50,892.50
788,917.78,1842.38,29.56,1507.17,892.83
790,918.09,1846.10,25.35,1494.33,887.33
792,918.41,1849.83,21.16,1488.33,893.00
794,918.72,1853.55,24.73,1474.50,882.17
796,919.04,1857.27,28.73,1478.50,889.83
798,919.35,1860.98,35.13,1476.17,887.67
800,919.66,1864.69,18.13,1458.83,891.50
802,919.98,1868.40,28.70,1469.00,895.17
804,920.29,1872.11,33.62,1455.33,887.00
806,920.60,1875.81,31.64,1446.17,885.00
808,920.92,1879.51,23.45,1435.83,887.67
810,921.23,1883.20,36.63,1450.00,893.17
812,921.55,1886.90,42.85,1436.33,883.00
814,921.86,1890.58,40.47,1444.50,896.67
816,922.17,1894.27,45.06,1439.83,891.83
818,922.49,1897.95,49.29,1435.33,891.67
820,922.80,1901.63,39.53,1415.00,887.33
822,923.11,1905.31,42.71,1416.00,889.83
824,923.42,1908.98,47.71,1419.83,891.50
826,923.74,1912.65,56.31,1426.00,895.50
828,924.05,1916.31,66.18,1423.17,888.50
830,924.36,1919.98,72.29,1425.67,887.17
832,924.68,1923.64,100.59,1447.67,886.00
834,924.99,1927.29,113.04,1454.17,887.00
836,925.30,1930.94,123.15,1454.33,884.50
838,925.61,1934.59,121.62,1449.17,887.67
840,925.93,1938.24,93.39,1417.50,889.00
842,926.24,1941.88,77.41,1399.17,890.83
844,926.55,1945.52,56.33,1364.17,886.33
846,926.86,1949.16,55.76,1357.67,889.00
848,927.18,1952.79,48.99,1338.33,883.67
850,927.49,1956.42,44.95,1328.00,884.83
852,927.80,1960.05,34.82,1318.50,894.50
854,928.11,1963.67,26.65,1302.50,888.33
856,928.42,1967.29,19.27,1294.50,894.67
858,928.74,1970.91,26.26,1286.33,888.67
860,929.05,1974.52,25.21,1279.67,887.67
862,929.36,1978.13,20.27,1266.83,885.00
864,929.67,1981.74,20.38,1267.00,890.83
866,929.98,1985.35,19.90,1263.83,893.67
868,930.29,1988.95,28.12,1261.33,889.33
870,930.61,1992.54,28.62,1252.17,883.33
872,930.92,1996.14,23.08,1250.50,889.83
874,931.23,1999.73,36.82,1261.83,893.67
876,931.54,2003.32,51.39,1263.00,890.00
878,931.85,2006.90,59.96,1262.83,888.00
880,932.16,2010.48,55.11,1250.67,886.00
882,932.47,2014.06,39.36,1231.83,883.50
884,932.78,2017.63,14.49,1207.83,890.33
886,933.09,2021.21,13.87,1198.33,888.67
888,933.41,2024.77,11.28,1193.50,892.83
890,933.72,2028.34,14.60,1198.67,898.67
892,934.03,2031.90,11.18,1184.00,893.33
894,934.34,2035.46,22.06,1189.17,892.83
896,934.65,2039.01,24.55,1176.00,882.50
898,934.96,2042.57,24.73,1185.00,896.50
900,935.27,2046.11,33.72,1192.50,903.00
902,935.58,2049.66,17.47,1147.67,879.00
904,935.89,2053.20,11.43,1154.67,891.67
906,936.20,2056.74,1.36,1133.50,888.67
908,936.51,2060.28,0.94,1126.17,887.00
910,936.82,2063.81,0.00,1120.00,893.83
912,937.13,2067.34,0.00,1119.17,891.00
914,937.44,2070.86,0.00,1111.50,890.33
916,937.75,2074.39,1.96,1108.67,886.17
918,938.06,2077.91,0.00,1099.00,888.67
920,938.37,2081.42,0.00,1102.67,887.33
922,938.68,2084.94,0.00,1095.17,883.00
924,938.99,2088.45,0.00,1101.33,890.67
926,939.30,2091.95,1.96,1112.50,895.17
928,939.60,2095.46,10.77,1112.00,887.33
930,939.91,2098.96,29.73,1128.83,894.33
932,940.22,2102.45,20.98,1120.00,890.67
934,940.53,2105.95,13.24,1108.50,884.00
936,940.84,2109.44,12.71,1112.17,886.00
938,941.15,2112.92,8.15,1118.00,897.50
940,941.46,2116.41,29.20,1130.33,889.33
942,941.77,2119.89,60.79,1152.17,889.67
944,942.07,2123.37,81.00,1165.00,888.67
946,942.38,2126.84,55.40,1152.67,892.67
948,942.69,2130.31,45.75,1150.17,895.83
950,943.00,2133.78,34.97,1130.50,888.67
952,943.31,2137.24,34.31,1131.83,892.17
954,943.62,2140.70,39.90,1134.67,893.00
956,943.92,2144.16,36.27,1125.17,888.67
958,944.23,2147.62,22.99,1118.17,893.33
960,944.54,2151.07,13.61,1114.17,895.33
962,944.85,2154.52,2.50,1111.00,901.83
964,945.16,2157.96,0.27,1099.33,895.67
966,945.46,2161.40,0.79,1097.00,892.50
968,945.77,2164.84,3.34,1091.00,883.33
970,946.08,2168.28,9.81,1102.83,888.67
972,946.39,2171.71,36.66,1118.67,884.67
974,946.69,2175.14,54.45,1131.17,887.33
976,947.00,2178.57,52.08,1132.17,888.33
978,947.31,2181.99,39.60,1117.33,882.50
980,947.61,2185.41,35.52,1117.00,886.00
982,947.92,2188.82,15.63,1109.33,895.17
984,948.23,2192.24,5.95,1088.00,883.00
986,948.53,2195.65,1.90,1092.50,891.50
988,948.84,2199.05,0.00,1075.00,878.17
990,949.15,2202.46,1.96,1089.50,889.00
992,949.45,2205.86,13.28,1098.67,887.17
994,949.76,2209.25,22.20,1103.67,884.67
996,950.07,2212.65,34.30,1121.17,886.33
998,950.37,2216.04,67.40,1147.83,882.17
1000,950.68,2219.43,142.01,1206.00,885.33
1002,950.98,2222.81,203.49,1254.33,894.67
1004,951.29,2226.19,224.49,1261.50,886.00
1006,951.60,2229.57,193.95,1241.33,882.67
1008,951.90,2232.94,160.32,1217.83,882.33
1010,952.21,2236.32,135.11,1197.33,884.33
1012,952.51,2239.68,105.12,1177.67,888.67
1014,952.82,2243.05,79.42,1151.83,882.00
1016,953.12,2246.41,76.22,1161.17,895.00
1018,953.43,2249.77,99.12,1183.50,907.33
1020,953.73,2253.12,132.76,1186.00,895.67
1022,954.04,2256.48,106.72,1153.17,880.83
1024,954.34,2259.83,66.31,1141.50,892.17
1026,954.65,2263.17,19.97,1098.67,888.67
1028,954.95,2266.51,9.17,1090.50,890.00
1030,955.26,2269.85,0.85,1092.67,900.83
1032,955.56,2273.19,0.00,1078.00,894.50
1034,955.87,2276.52,0.23,1084.00,894.33
1036,956.17,2279.85,3.90,1091.17,898.00
1038,956.48,2283.18,13.60,1081.00,884.00
1040,956.78,2286.50,16.97,1082.33,884.00
1042,957.08,2289.82,7.38,1075.67,879.67
1044,957.39,2293.14,0.29,1082.00,892.67
1046,957.69,2296.45,0.12,1073.00,884.50
1048,957.99,2299.76,14.25,1095.67,897.83
1050,958.30,2303.07,0.00,1081.00,894.17
1052,958.60,2306.38,1.48,1081.17,890.17
1054,958.91,2309.68,5.86,1083.67,888.67
1056,959.21,2312.98,11.46,1084.67,884.33
1058,959.51,2316.27,16.81,1092.17,887.00
1060,959.82,2319.56,24.33,1107.83,897.17
1062,960.12,2322.85,36.21,1104.67,882.33
1064,960.42,2326.14,48.02,1120.17,886.50
1066,960.72,2329.42,96.70,1160.50,892.67
1068,961.03,2332.70,140.52,1178.17,885.67
1070,961.33,2335.97,157.40,1194.67,893.00
1072,961.63,2339.25,137.98,1175.67,886.33
1074,961.93,2342.52,107.83,1159.67,886.33
1076,962.24,2345.78,65.24,1135.50,887.67
1078,962.54,2349.05,38.66,1115.17,888.00
1080,962.84,2352.31,32.80,1108.50,886.33
1082,963.14,2355.56,33.21,1106.50,883.00
1084,963.45,2358.82,25.62,1103.83,887.00
1086,963.75,2362.07,43.76,1117.50,885.83
1088,964.05,2365.32,58.28,1140.33,900.83
1090,964.35,2368.56,96.61,1152.17,892.00
1092,964.65,2371.80,108.66,1159.17,894.67
1094,964.95,2375.04,94.62,1146.17,889.67
1096,965.25,2378.27,64.52,1127.00,883.50
1098,965.56,2381.51,27.23,1113.67,892.17
1100,965.86,2384.73,11.81,1100.17,894.00
1102,966.16,2387.96,18.56,1095.50,886.67
1104,966.46,2391.18,8.79,1101.67,899.00
1106,966.76,2394.40,7.20,1089.83,886.33
1108,967.06,2397.62,14.29,1105.67,895.17
1110,967.36,2400.83,20.05,1098.17,887.33
1112,967.66,2404.04,33.28,1113.17,895.17
1114,967.96,2407.25,29.10,1099.83,880.67
1116,968.26,2410.45,42.62,1124.00,892.50
1118,968.56,2413.65,72.82,1131.33,883.33
1120,968.86,2416.85,109.01,1164.67,898.17
1122,969.16,2420.04,119.34,1163.50,890.33
1124,969.46,2423.23,118.22,1158.17,884.00
1126,969.76,2426.42,101.19,1155.67,891.50
1128,970.06,2429.60,91.23,1142.83,882.17
1130,970.36,2432.79,60.47,1127.67,889.00
1132,970.66,2435.96,74.65,1128.00,887.67
1134,970.96,2439.14,50.41,1119.83,888.00
1136,971.26,2442.31,3.64,1103.83,896.83
1138,971.56,2445.48,0.00,1088.50,893.17
1140,971.86,2448.65,0.00,1079.17,883.50
1142,972.16,2451.81,0.00,1080.83,893.50
1144,972.45,2454.97,0.00,1084.67,890.33
1146,972.75,2458.13,0.00,1086.83,889.00
1148,973.05,2461.28,0.99,1096.67,885.50
1150,973.35,2464.43,16.43,1113.83,891.50
1152,973.65,2467.58,35.95,1118.33,889.67
1154,973.95,2470.72,21.34,1114.67,889.00
1156,974.24,2473.86,33.53,1122.33,886.50
1158,974.54,2477.00,38.69,1124.67,884.33
1160,974.84,2480.13,13.63,1119.17,889.33
1162,975.14,2483.27,7.69,1121.33,891.50
1164,975.43,2486.40,0.00,1108.67,882.33
1166,975.73,2489.52,0.83,1115.83,885.00
1168,976.03,2492.64,1.01,1119.17,885.33
1170,976.33,2495.76,10.93,1135.00,889.67
1172,976.62,2498.88,23.17,1138.50,884.50
1174,976.92,2501.99,45.42,1164.50,894.67
1176,977.22,2505.10,80.63,1182.17,892.67
1178,977.51,2508.21,99.72,1191.00,890.83
1180,977.81,2511.31,129.69,1202.50,884.67
1182,978.11,2514.41,113.15,1202.83,888.67
1184,978.40,2517.51,91.18,1198.00,890.33
1186,978.70,2520.61,82.04,1195.17,891.67
1188,979.00,2523.70,82.00,1194.67,892.33
1190,979.29,2526.79,58.81,1180.00,888.83
1192,979.59,2529.87,39.79,1177.67,893.33
1194,979.88,2532.95,11.55,1158.50,885.67
1196,980.18,2536.03,2.28,1166.67,894.17
1198,980.48,2539.11,0.01,1163.67,895.17
1200,980.77,2542.18,0.00,1155.50,890.50
1202,981.07,2545.25,0.03,1171.33,896.33
1204,981.36,2548.32,2.16,1169.00,887.50
1206,981.66,2551.38,15.45,1183.83,894.83
1208,981.95,2554.44,1.53,1179.83,893.50
1210,982.25,2557.50,22.14,1199.33,895.83
1212,982.54,2560.56,12.80,1200.00,898.00
1214,982.84,2563.61,30.36,1210.83,896.00
1216,983.13,2566.66,23.99,1211.00,896.00
1218,983.43,2569.70,39.52,1227.50,895.50
1220,983.72,2572.74,83.97,1260.33,898.50
1222,984.01,2575.78,141.82,1285.00,895.33
1224,984.31,2578.82,234.63,1324.83,890.00
1226,984.60,2581.85,339.95,1377.50,893.33
1228,984.90,2584.88,386.02,1399.17,889.83
1230,985.19,2587.91,415.12,1418.67,887.83
1232,985.48,2590.93,437.65,1444.83,897.00
1234,985.78,2593.96,419.34,1436.33,893.33
1236,986.07,2596.97,442.29,1452.33,894.17
1238,986.36,2599.99,475.36,1477.83,902.83
1240,986.66,2603.00,517.08,1491.17,898.67
1242,986.95,2606.01,542.35,1495.83,893.67
1244,987.24,2609.01,567.76,1513.17,898.83
1246,987.54,2612.02,530.19,1480.67,884.67
1248,987.83,2615.02,507.20,1485.67,899.83
1250,988.12,2618.01,450.91,1465.83,901.00
1252,988.41,2621.01,378.33,1433.17,896.50
1254,988.71,2624.00,358.50,1420.67,890.67
1256,989.00,2626.99,349.48,1423.17,895.67
1258,989.29,2629.97,356.41,1430.33,894.50
1260,989.58,2632.95,404.30,1462.00,898.83
1262,989.87,2635.93,529.43,1522.17,900.33
1264,990.16,2638.91,709.93,1595.33,893.00
1266,990.46,2641.88,894.54,1689.83,900.67
1268,990.75,2644.85,1087.26,1797.00,903.50
1270,991.04,2647.81,1317.05,1912.67,893.00
1272,991.33,2650.78,1726.09,2094.67,895.67
1274,991.62,2653.74,2379.74,2332.67,898.33
1276,991.91,2656.70,2874.62,2476.83,892.67
1278,992.20,2659.65,3004.50,2537.17,895.17
1280,992.49,2662.60,2613.14,2429.33,890.50
1282,992.78,2665.55,2280.32,2341.83,905.00
1284,993.07,2668.50,2157.38,2273.17,907.67
1286,993.36,2671.44,2213.09,2246.17,899.67
1288,993.65,2674.38,2131.20,2197.50,899.83
1290,993.94,2677.31,1872.07,2101.67,895.33
1292,994.23,2680.25,1679.37,2033.17,899.33
1294,994.52,2683.18,1629.49,1997.83,898.50
1296,994.81,2686.10,1631.86,1973.17,898.17
1298,995.10,2689.03,1599.40,1943.50,898.33
1300,995.39,2691.95,1416.18,1872.00,895.83
1302,995.68,2694.87,1186.17,1795.50,901.00
1304,995.97,2697.78,1045.31,1741.67,899.83
1306,996.26,2700.70,928.32,1682.50,893.50
1308,996.55,2703.61,899.50,1662.83,895.67
1310,996.84,2706.51,890.04,1652.83,898.50
1312,997.13,2709.42,834.20,1628.17,898.83
1314,997.41,2712.32,798.48,1613.83,896.33
1316,997.70,2715.21,744.99,1588.50,893.50
1318,997.99,2718.11,734.30,1578.50,895.83
1320,998.28,2721.00,710.85,1556.67,891.83
1322,998.57,2723.89,657.77,1540.67,898.67
1324,998.86,2726.77,505.65,1480.17,892.50
1326,999.14,2729.66,381.98,1442.67,896.67
1328,999.43,2732.54,245.11,1393.17,896.50
1330,999.72,2735.41,132.75,1349.00,893.50
1332,1000.01,2738.29,58.96,1335.33,905.33
1334,1000.29,2741.16,17.69,1308.00,896.33
1336,1000.58,2744.03,1.72,1290.17,890.67
1338,1000.87,2746.89,0.00,1294.67,902.17
1340,1001.15,2749.75,0.00,1282.17,895.00
1342,1001.44,2752.61,0.00,1288.50,895.33
1344,1001.73,2755.47,0.00,1287.00,891.50
1346,1002.01,2758.32,0.00,1298.00,894.50
1348,1002.30,2761.17,0.00,1315.50,901.83
1350,1002.59,2764.02,0.00,1325.83,906.33
1352,1002.87,2766.86,0.00,1327.33,896.17
1354,1003.16,2769.70,0.00,1348.00,893.00
1356,1003.44,2772.54,0.00,1356.67,892.83
1358,1003.73,2775.38,0.00,1401.83,897.50
1360,1004.01,2778.21,0.00,1416.00,885.83
1362,1004.30,2781.04,0.00,1463.17,895.50
1364,1004.58,2783.87,0.00,1495.00,895.33
1366,1004.87,2786.69,0.00,1525.33,884.50
1368,1005.15,2789.51,0.00,1577.83,897.83
1370,1005.44,2792.33,0.00,1623.67,899.17
1372,1005.72,2795.14,0.00,1680.33,900.50
1374,1006.01,2797.95,0.00,1735.50,899.67
1376,1006.29,2800.76,0.00,1781.67,897.17
1378,1006.58,2803.57,6.83,1870.83,906.33
1380,1006.86,2806.37,84.08,1945.50,893.00
1382,1007.14,2809.17,286.21,2042.33,895.67
1384,1007.43,2811.97,687.38,2162.00,891.50
1386,1007.71,2814.77,1070.56,2270.50,892.67
1388,1008.00,2817.56,1496.73,2404.83,890.00
1390,1008.28,2820.35,1985.62,2575.83,901.33
1392,1008.56,2823.13,2700.91,2790.83,893.67
1394,1008.85,2825.91,3493.62,3040.00,898.67
1396,1009.13,2828.69,4376.88,3318.33,897.83
1398,1009.41,2831.47,5642.21,3722.83,899.17
1400,1009.69,2834.24,7211.12,4215.50,892.00
1402,1009.98,2837.02,9439.48,4961.50,896.83
1404,1010.26,2839.78,12102.32,5919.33,903.17
1406,1010.54,2842.55,16260.10,7370.67,895.00
1408,1010.82,2845.31,23065.82,9482.17,899.17
1410,1011.11,2848.07,34393.46,12420.67,905.33
1412,1011.39,2850.83,49139.47,15603.50,903.33
1414,1011.67,2853.58,61216.45,17922.17,902.83
1416,1011.95,2856.33,63478.26,18406.67,896.17
1418,1012.23,2859.08,55530.04,16944.83,901.67
1420,1012.51,2861.83,44906.61,14688.83,891.83
1422,1012.80,2864.57,36301.08,12563.50,908.33
1424,1013.08,2867.31,30363.03,10834.00,899.83
1426,1013.36,2870.04,26651.39,9628.00,902.33
1428,1013.64,2872.78,24579.67,8875.33,901.33
1430,1013.92,2875.51,23625.38,8465.33,909.83
1432,1014.20,2878.24,23517.23,8291.17,899.67
1434,1014.48,2880.96,23607.82,8211.33,893.17
1436,1014.76,2883.68,23613.23,8158.00,893.67
1438,1015.04,2886.40,23864.14,8187.67,897.50
1440,1015.32,2889.12,24652.91,8356.00,906.00
1442,1015.60,2891.83,25096.24,8395.83,897.33
1444,1015.88,2894.54,26122.53,8570.17,902.83
1446,1016.16,2897.25,27249.48,8738.50,892.83
1448,1016.44,2899.96,27741.75,8794.33,899.67
1450,1016.72,2902.66,27839.37,8805.33,899.83
1452,1017.00,2905.36,27482.15,8762.17,909.67
1454,1017.28,2908.06,27389.03,8777.00,898.67
1456,1017.55,2910.75,28100.18,8979.33,902.17
1458,1017.83,2913.44,30105.19,9434.50,896.33
1460,1018.11,2916.13,33639.80,10191.83,900.17
1462,1018.39,2918.81,38356.58,11144.00,903.67
1464,1018.67,2921.49,43630.47,12160.67,900.17
1466,1018.95,2924.17,48524.22,13102.83,901.67
1468,1019.22,2926.85,51921.99,13785.67,902.67
1470,1019.50,2929.52,53834.56,14217.67,893.33
1472,1019.78,2932.20,54683.28,14436.67,896.33
1474,1020.06,2934.86,56013.73,14652.83,896.83
1476,1020.33,2937.53,57603.67,14749.67,907.67
1478,1020.61,2940.19,58743.90,14628.83,899.50
1480,1020.89,2942.85,57198.16,14061.67,902.83
1482,1021.17,2945.51,51463.04,12843.83,900.50
1484,1021.44,2948.16,43451.63,11271.67,900.00
1486,1021.72,2950.81,35296.29,9614.17,897.50
1488,1022.00,2953.46,28521.62,8168.00,908.00
1490,1022.27,2956.11,22771.06,6863.00,903.50
1492,1022.55,2958.75,18399.40,5846.50,909.33
1494,1022.82,2961.39,15009.00,5033.33,901.50
1496,1023.10,2964.03,12304.26,4399.00,907.67
1498,1023.38,2966.66,10114.48,3877.00,896.17
1500,1023.65,2969.29,8241.86,3455.00,899.67
1502,1023.93,2971.92,6652.63,3103.83,904.17
1504,1024.20,2974.55,5410.64,2823.33,901.50
1506,1024.48,2977.17,4347.27,2585.00,900.33
1508,1024.75,2979.79,3488.15,2385.00,892.33
1510,1025.03,2982.41,2722.94,2220.17,896.50
1512,1025.30,2985.02,2068.31,2074.17,891.83
1514,1025.58,2987.63,1426.12,1949.00,901.50
1516,1025.85,2990.24,990.59,1855.17,894.67
1518,1026.13,2992.85,500.65,1768.67,902.83
1520,1026.40,2995.45,239.62,1693.83,896.17
1522,1026.68,2998.05,58.20,1615.33,900.50
1524,1026.95,3000.65,11.53,1560.33,901.17
1526,1027.22,3003.25,3.06,1512.17,894.33
1528,1027.50,3005.84,0.00,1455.17,892.83
1530,1027.77,3008.43,0.00,1414.50,899.50
1532,1028.04,3011.02,0.00,1382.67,903.67
1534,1028.32,3013.60,0.00,1347.00,892.83
1536,1028.59,3016.18,0.00,1322.33,901.17
1538,1028.86,3018.76,0.00,1271.67,888.67
1540,1029.14,3021.34,0.00,1262.67,897.50
1542,1029.41,3023.91,0.00,1233.33,894.50
1544,1029.68,3026.48,0.00,1206.50,892.50
1546,1029.95,3029.05,0.00,1189.17,898.33
1548,1030.22,3031.61,0.00,1168.17,892.00
1550,1030.50,3034.17,8.11,1158.00,888.67
1552,1030.77,3036.73,0.00,1142.17,898.67
1554,1031.04,3039.29,0.00,1132.67,897.33
1556,1031.31,3041.84,22.11,1112.17,883.00
1558,1031.58,3044.39,0.00,1113.00,904.00
1560,1031.85,3046.94,0.00,1101.33,902.00
1562,1032.13,3049.49,0.00,1083.83,895.33
1564,1032.40,3052.03,0.00,1087.33,900.33
1566,1032.67,3054.57,0.00,1065.17,895.83
1568,1032.94,3057.11,0.00,1078.17,904.50
1570,1033.21,3059.64,0.00,1054.00,886.33
1572,1033.48,3062.18,7.38,1066.33,901.83
1574,1033.75,3064.70,13.91,1055.33,896.00
1576,1034.02,3067.23,50.98,1058.50,900.83
1578,1034.29,3069.75,0.00,1036.00,890.00
1580,1034.56,3072.28,7.71,1044.67,899.67
1582,1034.83,3074.79,0.00,1030.00,890.67
1584,1035.10,3077.31,0.69,1034.83,898.67
1586,1035.37,3079.82,39.75,1027.33,888.83
1588,1035.64,3082.33,4.76,1038.50,908.67
1590,1035.91,3084.84,0.00,1024.33,899.50
1592,1036.17,3087.34,72.91,1024.50,892.17
1594,1036.44,3089.85,0.00,1025.67,908.67
1596,1036.71,3092.35,0.78,1014.83,894.67
1598,1036.98,3094.84,1.03,1010.17,891.33
1600,1037.25,3097.34,0.00,1004.50,887.67
1602,1037.52,3099.83,42.23,1013.17,892.67
1604,1037.78,3102.32,13.17,1013.83,897.83
1606,1038.05,3104.80,76.38,1025.17,901.00
1608,1038.32,3107.29,25.77,1013.00,896.83
1610,1038.59,3109.77,43.24,1011.50,895.00
1612,1038.85,3112.24,77.00,1009.67,891.33
1614,1039.12,3114.72,57.16,1013.17,895.67
1616,1039.39,3117.19,13.50,1001.00,889.33
1618,1039.66,3119.66,0.00,1011.33,903.50
1620,1039.92,3122.13,63.36,1013.83,897.67
1622,1040.19,3124.59,19.81,1007.50,895.50
1624,1040.45,3127.05,0.00,1000.33,891.00
1626,1040.72,3129.51,19.98,1012.50,899.50
1628,1040.99,3131.97,74.71,1020.83,902.00
1630,1041.25,3134.42,74.10,1024.17,906.33
1632,1041.52,3136.87,0.00,1000.00,891.33
1634,1041.78,3139.32,85.90,1016.50,897.17
1636,1042.05,3141.77,86.25,1036.83,916.67
1638,1042.32,3144.21,33.24,1012.00,897.33
1640,1042.58,3146.65,106.99,1030.00,906.83
1642,1042.85,3149.09,61.30,1016.17,899.17
1644,1043.11,3151.52,115.12,1016.00,892.83
1646,1043.38,3153.96,63.54,1020.67,903.67
1648,1043.64,3156.39,100.56,1019.00,899.17
1650,1043.90,3158.81,156.43,1020.50,896.17
1652,1044.17,3161.24,211.82,1029.17,900.17
1654,1044.43,3163.66,203.47,1019.00,892.17
1656,1044.70,3166.08,245.53,1038.33,908.67
1658,1044.96,3168.49,321.24,1033.83,897.50
1660,1045.22,3170.91,265.29,1030.50,900.33
1662,1045.49,3173.32,302.01,1028.17,895.17
1664,1045.75,3175.73,352.06,1035.50,899.17
1666,1046.01,3178.13,383.73,1035.00,897.00
1668,1046.28,3180.54,316.43,1036.00,906.00
1670,1046.54,3182.94,416.52,1045.00,906.83
1672,1046.80,3185.34,453.30,1040.83,899.83
1674,1047.07,3187.73,379.01,1029.33,895.67
1676,1047.33,3190.12,490.87,1042.00,899.00
1678,1047.59,3192.51,592.90,1047.33,898.00
1680,1047.85,3194.90,546.28,1054.67,911.67
1682,1048.11,3197.29,598.38,1050.50,903.17
1684,1048.38,3199.67,581.17,1053.67,908.00
1686,1048.64,3202.05,579.10,1051.50,906.67
1688,1048.90,3204.43,671.65,1048.00,896.67
1690,1049.16,3206.80,693.87,1048.67,898.50
1692,1049.42,3209.17,752.31,1057.33,904.33
1694,1049.68,3211.54,773.38,1050.00,895.83
1696,1049.94,3213.91,759.78,1056.83,904.17
1698,1050.20,3216.27,855.22,1059.67,899.50
1700,1050.46,3218.63,809.47,1065.17,910.33
1702,1050.72,3220.99,928.45,1065.83,903.00
1704,1050.98,3223.35,930.09,1067.33,907.00
1706,1051.24,3225.70,1087.33,1067.33,896.17
1708,1051.50,3228.05,1056.46,1063.00,896.00
1710,1051.76,3230.40,1141.54,1076.83,904.83
1712,1052.02,3232.75,1192.61,1070.33,895.83
1714,1052.28,3235.09,1138.10,1076.50,907.00
1716,1052.54,3237.43,1182.91,1072.67,900.17
1718,1052.80,3239.77,1220.00,1070.83,896.83
1720,1053.06,3242.11,1140.49,1067.17,901.67
1722,1053.32,3244.44,1224.59,1063.50,893.83
1724,1053.58,3246.77,1413.05,1089.50,907.33
1726,1053.84,3249.10,1393.79,1078.17,899.33
1728,1054.10,3251.42,1490.71,1079.33,896.17
1730,1054.35,3253.75,1495.48,1077.83,896.83
1732,1054.61,3256.07,1510.59,1085.33,904.00
1734,1054.87,3258.39,1465.43,1080.17,902.17
1736,1055.13,3260.70,1459.39,1073.67,897.17
1738,1055.38,3263.01,1500.42,1073.33,896.00
1740,1055.64,3265.32,1517.50,1075.00,899.00
1742,1055.90,3267.63,1572.22,1071.33,894.00
1744,1056.16,3269.94,1653.02,1086.50,905.33
1746,1056.41,3272.24,1582.96,1083.00,908.00
1748,1056.67,3274.54,1658.90,1079.17,901.67
1750,1056.93,3276.84,1691.62,1082.17,905.33
1752,1057.18,3279.13,1664.97,1071.17,896.67
1754,1057.44,3281.42,1555.04,1065.00,897.17
1756,1057.69,3283.71,1629.64,1068.17,896.67
1758,1057.95,3286.00,1701.45,1079.33,906.33
1760,1058.21,3288.28,1582.67,1063.33,900.83
1762,1058.46,3290.57,1662.73,1071.50,906.00
1764,1058.72,3292.85,1752.89,1067.83,897.83
1766,1058.97,3295.12,1611.17,1057.67,897.00
1768,1059.23,3297.40,1561.54,1055.00,898.50
1770,1059.48,3299.67,1680.93,1069.17,907.00
1772,1059.74,3301.94,1648.15,1053.67,895.17
1774,1059.99,3304.21,1548.99,1058.33,908.00
1776,1060.25,3306.47,1702.30,1067.00,910.50
1778,1060.50,3308.73,1763.08,1054.83,896.50
1780,1060.76,3310.99,1808.80,1056.50,895.50
1782,1061.01,3313.25,1526.49,1048.17,903.83
1784,1061.26,3315.50,1816.86,1058.50,900.17
1786,1061.52,3317.76,1820.12,1061.83,906.33
1788,1061.77,3320.01,1797.32,1058.00,904.67
1790,1062.02,3322.25,1634.01,1042.67,898.17
1792,1062.28,3324.50,1714.35,1049.33,902.00
1794,1062.53,3326.74,1784.47,1042.50,894.67
1796,1062.78,3328.98,1796.16,1042.50,896.50
1798,1063.04,3331.22,1845.29,1050.00,902.00
1800,1063.29,3333.45,1690.25,1036.83,896.67
1802,1063.54,3335.68,1674.00,1035.50,896.83
1804,1063.79,3337.91,1703.16,1044.67,906.67
1806,1064.05,3340.14,1891.79,1057.50,912.67
1808,1064.30,3342.36,1766.71,1029.33,892.50
1810,1064.55,3344.59,1671.42,1032.67,901.83
1812,1064.80,3346.81,1844.34,1032.83,895.33
1814,1065.05,3349.02,1823.62,1031.17,896.17
1816,1065.30,3351.24,1748.21,1034.17,903.33
1818,1065.55,3353.45,1750.96,1031.00,899.83
1820,1065.81,3355.66,1676.96,1039.83,912.17
1822,1066.06,3357.87,1562.00,1023.00,902.50
1824,1066.31,3360.07,1688.62,1016.17,893.33
1826,1066.56,3362.27,1807.38,1029.17,904.17
1828,1066.81,3364.47,1709.46,1017.17,896.83
1830,1067.06,3366.67,1584.79,1019.50,903.67
1832,1067.31,3368.87,1680.15,1014.50,894.67
1834,1067.56,3371.06,1609.60,1005.33,890.83
1836,1067.81,3373.25,1784.21,1008.67,889.00
1838,1068.06,3375.44,1606.28,1003.50,892.67
1840,1068.31,3377.62,1678.37,1008.67,895.50
1842,1068.56,3379.81,1678.66,1004.33,892.50
1844,1068.80,3381.99,1840.72,1023.67,906.67
1846,1069.05,3384.16,1554.16,1009.67,905.00
1848,1069.30,3386.34,1615.03,1003.33,896.67
1850,1069.55,3388.51,1629.49,1002.33,896.67
1852,1069.80,3390.68,1594.60,1005.67,903.33
1854,1070.05,3392.85,1717.08,1017.50,910.83
1856,1070.30,3395.02,1533.45,1002.00,901.33
1858,1070.54,3397.18,1393.19,991.00,895.67
1860,1070.79,3399.34,1482.98,995.50,899.00
1862,1071.04,3401.50,1641.30,993.00,894.33
1864,1071.29,3403.66,1873.54,990.00,885.33
1866,1071.53,3405.81,1560.13,992.67,899.33
1868,1071.78,3407.96,1555.10,991.33,897.67
1870,1072.03,3410.11,1451.35,990.50,900.83
1872,1072.27,3412.26,1479.12,988.67,899.17
1874,1072.52,3414.40,1489.59,986.83,898.50
1876,1072.77,3416.54,1571.18,981.67,891.33
1878,1073.01,3418.68,1477.19,989.33,902.33
1880,1073.26,3420.82,1271.76,969.50,890.00
1882,1073.51,3422.96,1438.07,983.67,899.33
1884,1073.75,3425.09,1419.36,976.67,894.50
1886,1074.00,3427.22,1289.29,969.33,893.17
1888,1074.24,3429.35,1428.09,983.33,903.67
1890,1074.49,3431.47,1316.24,968.50,892.17
1892,1074.73,3433.59,1090.56,963.33,894.00
1894,1074.98,3435.71,1148.01,978.67,908.33
1896,1075.22,3437.83,1408.52,969.83,893.50
1898,1075.47,3439.95,1439.37,974.67,899.50
1900,1075.71,3442.06,1376.92,972.83,900.00
1902,1075.96,3444.17,1238.18,967.33,898.17
1904,1076.20,3446.28,1247.26,949.17,879.33
1906,1076.44,3448.38,1058.05,968.33,905.00
1908,1076.69,3450.49,1099.87,970.00,906.83
1910,1076.93,3452.59,1231.74,968.00,902.33
1912,1077.17,3454.69,1235.49,958.50,893.00
1914,1077.42,3456.79,976.17,959.33,901.17
1916,1077.66,3458.88,1086.17,954.83,894.00
1918,1077.90,3460.97,997.44,952.17,895.50
1920,1078.15,3463.06,1118.49,963.17,904.33
1922,1078.39,3465.15,1031.62,954.33,897.50
1924,1078.63,3467.23,869.66,941.83,888.67
1926,1078.87,3469.32,874.21,954.83,901.83
1928,1079.12,3471.40,1095.24,952.83,895.67
1930,1079.36,3473.47,1012.68,963.67,911.00
1932,1079.60,3475.55,1119.25,944.17,889.67
1934,1079.84,3477.62,1007.18,949.83,897.33
1936,1080.08,3479.69,740.65,940.67,894.33
1938,1080.33,3481.76,877.66,944.17,894.33
1940,1080.57,3483.83,934.51,947.17,897.00
1942,1080.81,3485.89,768.24,941.00,896.17
1944,1081.05,3487.95,842.60,947.33,901.50
1946,1081.29,3490.01,853.55,942.67,897.33
1948,1081.53,3492.07,855.08,936.00,890.83
1950,1081.77,3494.12,755.88,935.67,892.67
1952,1082.01,3496.18,825.02,944.33,899.83
1954,1082.25,3498.23,491.24,928.50,892.83
1956,1082.49,3500.27,865.79,941.17,897.17
1958,1082.73,3502.32,603.77,929.33,891.17
1960,1082.97,3504.36,407.75,935.00,901.33
1962,1083.21,3506.40,417.23,932.67,899.17
1964,1083.45,3508.44,576.07,925.00,889.00
1966,1083.69,3510.48,555.47,943.33,909.17
1968,1083.93,3512.51,797.23,935.00,896.50
1970,1084.16,3514.54,743.08,934.00,896.17
1972,1084.40,3516.57,504.16,929.67,896.33
1974,1084.64,3518.60,419.80,924.00,892.33
1976,1084.88,3520.62,521.73,936.83,903.00
1978,1085.12,3522.65,472.47,937.50,905.67
1980,1085.36,3524.67,460.59,929.83,899.33
1982,1085.59,3526.68,957.16,932.00,892.83
1984,1085.83,3528.70,401.91,929.50,901.17
1986,1086.07,3530.71,748.83,926.33,891.00
1988,1086.31,3532.72,363.22,928.00,900.17
1990,1086.54,3534.73,306.75,918.83,892.33
1992,1086.78,3536.74,573.83,935.83,904.00
1994,1087.02,3538.74,245.02,924.50,899.50
1996,1087.25,3540.74,367.11,916.83,889.33
1998,1087.49,3542.74,206.02,922.17,898.67
2000,1087.73,3544.74,603.82,925.17,895.17
2002,1087.96,3546.74,261.50,922.17,898.67
2004,1088.20,3548.73,460.32,929.67,902.67
2006,1088.43,3550.72,411.02,926.33,900.00
2008,1088.67,3552.71,399.99,919.33,893.17
2010,1088.90,3554.69,164.16,911.50,890.00
2012,1089.14,3556.68,289.12,919.83,896.00
2014,1089.38,3558.66,25.85,913.17,894.67
2016,1089.61,3560.64,232.69,913.33,891.00
2018,1089.84,3562.62,105.30,916.83,897.50
2020,1090.08,3564.59,70.74,908.00,889.67
2022,1090.31,3566.56,379.20,913.50,891.00
2024,1090.55,3568.53,4.72,912.33,895.33
2026,1090.78,3570.50,149.03,907.50,886.33
2028,1091.02,3572.47,54.50,909.00,890.50
2030,1091.25,3574.43,39.21,908.33,891.00
2032,1091.48,3576.39,317.73,900.67,879.33
2034,1091.72,3578.35,274.80,901.00,881.67
2036,1091.95,3580.31,353.93,908.33,887.67
2038,1092.18,3582.26,0.00,900.00,886.67
2040,1092.42,3584.22,82.51,899.33,882.50
2042,1092.65,3586.17,0.00,900.17,885.67
2044,1092.88,3588.12,118.70,900.33,883.17
2046,1093.11,3590.06,0.00,893.17,878.67
2047,1093.23,3591.03,184.60,897.33,876.50