File: plugins/Raman/MatchingLibrary/785X/dichloromethane.csv
ENLIGHTEN Version,4.1.22
Measurement ID,20250220-195747-193211-WP-01977
Serial Number,WP-01977
Model,WP-785X-F13-R-ILC
Detector,S16011-1106
Label,dichloromethane
Declared Match,
Declared Score,0
Scan Averaging,10
Boxcar,0
Technique,Raman
Baseline Correction Algo,AirPLS
ROI Pixel Start,47
ROI Pixel End,2047
ROI Start Line,0
ROI Stop Line,63
CCD C4,1.38617e-12
Slit Width,25
Cropped,True
Interpolated,False
Wavenumber Correction,-0.100481
Raman Intensity Corrected,True
Deconvolved,True
Region,
High Gain Mode,False
Laser Power mW,
Electrical Dark Correction,False
Battery %,
Device ID,<DeviceID USB:0x24aa:0x1000:0:1>
FW Version,10.0.0.10
FPGA Version,035-001
BLE Version,
Prefix,enlighten
Suffix,
Preset,
Auto-Raman,True
Session Count,0
Plugin Name,
Integration Time,96
Timestamp,2025-02-20 19:57:47.1932
Note,
Temperature,0
CCD C0,793.274
CCD C1,0.153259
CCD C2,1.40788e-05
CCD C3,-1.132e-08
CCD Offset,0
CCD Gain,1.9
CCD Offset Odd,0
CCD Gain Odd,1.9
Laser Wavelength,785.032
Laser Enable,False
Laser Power %,0
Laser Temperature,0
Pixel Count,2048

Pixel,Wavelength,Wavenumber,Processed,Raw,Dark
0,793.27,132.25,NA,888.30,863.80
2,793.58,137.12,NA,891.50,865.30
4,793.89,141.99,NA,892.40,864.00
6,794.19,146.86,NA,888.70,866.40
8,794.50,151.72,NA,891.30,866.40
10,794.81,156.58,NA,890.60,867.00
12,795.12,161.44,NA,889.20,863.40
14,795.42,166.30,NA,887.20,863.20
16,795.73,171.16,NA,887.00,864.20
18,796.04,176.01,NA,888.40,869.10
20,796.35,180.86,NA,891.50,867.80
22,796.65,185.71,NA,897.10,872.20
24,796.96,190.56,NA,892.70,870.40
26,797.27,195.41,NA,899.10,873.10
28,797.58,200.25,NA,900.80,873.90
30,797.88,205.09,NA,897.30,867.30
32,798.19,209.93,NA,900.90,867.60
34,798.50,214.77,NA,899.30,868.80
36,798.81,219.60,NA,910.90,868.00
38,799.12,224.43,NA,919.10,864.10
40,799.43,229.27,NA,967.00,873.10
42,799.74,234.09,NA,1122.20,869.40
44,800.04,238.92,NA,1386.90,878.80
46,800.35,243.75,NA,1542.10,868.80
48,800.66,248.57,149.66,1690.50,871.20
50,800.97,253.39,329.64,1852.20,873.10
52,801.28,258.21,475.30,2089.30,876.00
54,801.59,263.02,764.58,2482.30,875.30
56,801.90,267.83,1252.47,3287.10,872.60
58,802.21,272.65,2322.74,5282.60,875.00
60,802.52,277.46,5893.96,10392.90,871.00
62,802.83,282.26,14407.28,18595.60,878.50
64,803.14,287.07,17370.19,20910.90,876.40
66,803.45,291.87,8773.20,13680.30,877.00
68,803.76,296.67,3179.29,6789.10,877.70
70,804.07,301.47,1556.25,3843.00,874.10
72,804.38,306.26,981.57,2719.50,867.00
74,804.69,311.06,634.93,2188.10,870.60
76,805.00,315.85,433.78,1885.50,871.70
78,805.31,320.64,311.33,1697.50,874.50
80,805.62,325.42,211.24,1545.60,873.60
82,805.93,330.21,149.76,1439.10,869.90
84,806.24,334.99,97.99,1348.80,867.00
86,806.55,339.77,64.50,1290.00,868.50
88,806.86,344.55,36.61,1238.00,872.80
90,807.17,349.32,22.62,1198.50,867.40
92,807.48,354.10,0.25,1157.00,870.90
94,807.80,358.87,0.00,1131.60,873.10
96,808.11,363.63,0.00,1110.20,871.50
98,808.42,368.40,0.00,1096.10,867.00
100,808.73,373.16,0.00,1079.00,870.80
102,809.04,377.93,0.00,1058.40,868.90
104,809.35,382.68,0.00,1058.60,870.10
106,809.66,387.44,0.00,1055.30,869.00
108,809.98,392.19,0.00,1044.60,867.70
110,810.29,396.95,0.00,1045.30,869.80
112,810.60,401.70,0.00,1045.00,870.20
114,810.91,406.44,0.39,1049.00,870.20
116,811.22,411.19,4.56,1057.00,871.30
118,811.54,415.93,19.25,1070.00,872.00
120,811.85,420.67,38.72,1078.40,865.00
122,812.16,425.41,16.28,1062.20,868.40
124,812.47,430.14,3.18,1044.30,870.80
126,812.79,434.87,1.65,1034.10,867.40
128,813.10,439.60,0.60,1028.30,865.30
130,813.41,444.33,0.00,1029.40,871.00
132,813.72,449.06,0.20,1026.50,867.80
134,814.04,453.78,0.00,1024.40,869.20
136,814.35,458.50,6.23,1029.90,867.60
138,814.66,463.22,6.38,1027.60,865.70
140,814.98,467.93,1.06,1020.40,866.90
142,815.29,472.65,4.45,1023.50,867.60
144,815.60,477.36,3.30,1022.30,868.50
146,815.92,482.06,5.68,1021.40,865.80
148,816.23,486.77,8.76,1026.70,869.80
150,816.54,491.47,13.25,1031.10,870.00
152,816.86,496.17,4.12,1014.60,865.90
154,817.17,500.87,1.92,1013.50,869.70
156,817.48,505.57,0.00,1004.40,866.60
158,817.80,510.26,2.42,1007.90,868.40
160,818.11,514.95,0.00,998.30,868.80
162,818.42,519.64,0.02,1003.30,869.80
164,818.74,524.32,0.00,999.40,869.40
166,819.05,529.00,0.00,1002.70,871.70
168,819.37,533.68,0.00,998.70,871.00
170,819.68,538.36,0.00,996.00,871.40
172,819.99,543.04,0.00,998.30,870.20
174,820.31,547.71,0.00,999.80,869.20
176,820.62,552.38,0.41,1004.70,863.80
178,820.94,557.05,2.73,1020.40,869.00
180,821.25,561.71,19.33,1044.70,865.40
182,821.57,566.37,35.76,1070.00,867.10
184,821.88,571.03,56.59,1097.50,866.80
186,822.20,575.69,38.31,1081.40,869.40
188,822.51,580.34,16.43,1055.50,866.00
190,822.83,584.99,0.43,1037.70,868.10
192,823.14,589.64,0.00,1029.60,867.00
194,823.46,594.29,0.00,1032.50,867.00
196,823.77,598.93,0.00,1034.50,869.00
198,824.09,603.57,0.00,1038.00,865.80
200,824.40,608.21,0.00,1052.80,868.00
202,824.72,612.85,0.00,1062.60,870.80
204,825.03,617.48,0.00,1075.10,869.60
206,825.35,622.11,0.00,1094.60,868.70
208,825.66,626.74,0.00,1112.80,871.00
210,825.98,631.36,0.19,1135.20,867.90
212,826.29,635.99,4.51,1158.30,866.40
214,826.61,640.61,26.50,1207.50,868.00
216,826.92,645.22,48.91,1247.90,865.80
218,827.24,649.84,79.38,1301.10,866.70
220,827.56,654.45,121.07,1375.40,870.60
222,827.87,659.06,178.33,1471.90,869.70
224,828.19,663.67,245.56,1588.90,869.60
226,828.50,668.27,344.03,1773.10,876.80
228,828.82,672.87,488.37,2038.40,872.70
230,829.13,677.47,739.18,2499.60,868.00
232,829.45,682.06,1248.13,3422.70,872.70
234,829.77,686.66,2088.99,5294.40,873.90
236,830.08,691.25,3894.90,9827.50,872.40
238,830.40,695.83,10473.36,21653.80,871.00
240,830.72,700.42,25891.00,39769.10,869.00
242,831.03,705.00,30432.75,44084.20,865.10
244,831.35,709.58,15460.78,28529.10,870.20
246,831.66,714.15,5612.53,13507.00,865.80
248,831.98,718.73,2977.64,7384.70,871.90
250,832.30,723.30,2431.38,5616.60,869.80
252,832.61,727.87,2449.50,5453.00,870.80
254,832.93,732.43,2881.38,6053.70,861.70
256,833.25,736.99,3416.39,6772.40,869.50
258,833.56,741.55,3595.61,6978.30,868.60
260,833.88,746.11,3227.92,6446.00,869.40
262,834.20,750.66,2475.71,5355.50,868.80
264,834.51,755.22,1736.86,4216.60,871.90
266,834.83,759.76,1190.54,3302.20,872.00
268,835.15,764.31,841.38,2683.40,871.00
270,835.47,768.85,629.48,2291.50,865.60
272,835.78,773.39,492.53,2044.40,867.00
274,836.10,777.93,365.23,1830.60,866.60
276,836.42,782.46,290.33,1698.60,868.40
278,836.73,787.00,225.71,1587.00,865.60
280,837.05,791.52,173.36,1497.20,865.30
282,837.37,796.05,125.11,1422.20,871.80
284,837.69,800.57,90.09,1356.00,864.40
286,838.00,805.09,63.67,1316.60,869.80
288,838.32,809.61,43.17,1280.10,866.60
290,838.64,814.13,24.73,1250.60,871.90
292,838.95,818.64,12.52,1215.10,866.40
294,839.27,823.15,2.51,1182.50,866.60
296,839.59,827.65,0.25,1163.80,868.40
298,839.91,832.15,0.00,1131.90,864.50
300,840.22,836.65,0.00,1124.30,871.40
302,840.54,841.15,0.00,1100.40,865.40
304,840.86,845.65,0.00,1094.20,870.80
306,841.18,850.14,0.00,1089.20,868.60
308,841.50,854.63,0.00,1091.10,877.00
310,841.81,859.11,0.00,1074.10,867.60
312,842.13,863.60,0.00,1081.00,868.80
314,842.45,868.07,2.93,1083.00,864.40
316,842.77,872.55,10.81,1096.60,871.30
318,843.08,877.03,26.48,1123.90,873.40
320,843.40,881.50,44.61,1143.90,865.30
322,843.72,885.97,69.34,1195.00,870.40
324,844.04,890.43,118.14,1262.10,869.00
326,844.36,894.89,171.67,1323.10,867.80
328,844.67,899.35,161.59,1313.20,872.00
330,844.99,903.81,112.30,1240.90,864.90
332,845.31,908.26,62.42,1166.40,871.50
334,845.63,912.71,42.58,1121.60,868.00
336,845.95,917.16,22.64,1084.10,871.00
338,846.27,921.61,14.12,1111.40,917.80
340,846.58,926.05,7.08,1049.90,867.50
342,846.90,930.49,7.45,1044.20,869.40
344,847.22,934.92,4.30,1032.60,867.90
346,847.54,939.36,1.94,1022.50,861.40
348,847.86,943.79,0.00,1014.30,867.20
350,848.18,948.21,0.61,1015.60,865.30
352,848.49,952.64,0.00,1012.10,867.60
354,848.81,957.06,0.00,1003.50,861.80
356,849.13,961.48,0.59,1013.20,870.40
358,849.45,965.89,0.00,1009.60,871.40
360,849.77,970.31,0.11,1007.70,866.60
362,850.09,974.71,6.75,1017.30,864.60
364,850.40,979.12,16.37,1033.70,866.40
366,850.72,983.52,27.06,1057.70,876.30
368,851.04,987.92,42.37,1063.10,863.80
370,851.36,992.32,37.79,1057.20,865.20
372,851.68,996.72,16.83,1033.80,870.10
374,852.00,1001.11,4.88,1010.70,863.30
376,852.32,1005.50,0.00,992.10,861.00
378,852.63,1009.88,0.00,999.10,874.90
380,852.95,1014.26,0.00,997.70,870.10
382,853.27,1018.64,1.32,1004.70,869.00
384,853.59,1023.02,3.21,1001.30,865.60
386,853.91,1027.39,2.21,1000.00,863.40
388,854.23,1031.76,0.00,998.60,866.20
390,854.55,1036.13,0.00,998.00,868.60
392,854.87,1040.49,0.00,996.70,867.90
394,855.18,1044.86,0.00,1005.40,869.20
396,855.50,1049.21,0.00,1006.50,867.40
398,855.82,1053.57,0.00,1010.70,870.40
400,856.14,1057.92,0.08,1014.80,864.40
402,856.46,1062.27,0.00,1020.00,866.20
404,856.78,1066.62,0.00,1018.70,864.00
406,857.10,1070.96,0.00,1027.10,864.00
408,857.42,1075.30,0.00,1039.60,870.90
410,857.74,1079.64,0.00,1039.20,866.10
412,858.06,1083.97,0.17,1047.90,864.60
414,858.37,1088.30,2.04,1056.20,864.60
416,858.69,1092.63,6.84,1065.20,859.60
418,859.01,1096.95,9.28,1077.30,863.20
420,859.33,1101.27,11.32,1092.20,868.20
422,859.65,1105.59,19.52,1109.10,866.00
424,859.97,1109.91,32.41,1130.90,862.70
426,860.29,1114.22,40.61,1153.60,865.40
428,860.61,1118.53,52.29,1179.60,864.30
430,860.93,1122.84,75.12,1220.40,863.00
432,861.25,1127.14,92.72,1266.00,869.20
434,861.56,1131.44,131.50,1333.70,863.10
436,861.88,1135.74,183.05,1435.20,867.60
438,862.20,1140.03,263.65,1594.60,868.00
440,862.52,1144.32,391.89,1849.80,866.40
442,862.84,1148.61,662.76,2292.50,867.20
444,863.16,1152.89,1071.01,2804.00,867.00
446,863.48,1157.17,1241.13,2987.40,865.40
448,863.80,1161.45,897.37,2609.40,868.80
450,864.12,1165.73,511.49,2081.60,866.80
452,864.44,1170.00,308.32,1724.60,865.90
454,864.76,1174.27,212.41,1534.60,866.80
456,865.07,1178.53,144.77,1410.80,863.70
458,865.39,1182.80,107.90,1352.50,868.60
460,865.71,1187.06,78.92,1304.90,866.30
462,866.03,1191.31,52.94,1266.90,867.30
464,866.35,1195.57,41.28,1248.00,865.80
466,866.67,1199.82,28.71,1234.10,869.20
468,866.99,1204.06,20.91,1220.40,863.70
470,867.31,1208.31,5.77,1208.60,867.70
472,867.63,1212.55,0.08,1200.50,868.60
474,867.95,1216.79,0.00,1192.80,862.20
476,868.27,1221.02,0.00,1200.20,866.00
478,868.58,1225.25,0.00,1203.50,863.70
480,868.90,1229.48,0.00,1216.00,868.70
482,869.22,1233.71,0.00,1225.50,868.60
484,869.54,1237.93,0.00,1247.10,871.10
486,869.86,1242.15,0.16,1254.90,865.90
488,870.18,1246.36,7.84,1281.40,864.80
490,870.50,1250.58,19.39,1309.30,866.20
492,870.82,1254.79,43.92,1380.60,875.80
494,871.14,1258.99,91.14,1453.80,869.40
496,871.46,1263.20,154.92,1540.70,869.20
498,871.78,1267.40,171.30,1567.10,866.60
500,872.10,1271.59,123.49,1524.10,864.20
502,872.41,1275.79,71.92,1469.10,868.00
504,872.73,1279.98,41.94,1425.90,866.60
506,873.05,1284.17,34.42,1420.50,868.00
508,873.37,1288.35,24.76,1402.90,858.90
510,873.69,1292.53,13.16,1402.80,862.80
512,874.01,1296.71,7.46,1409.70,868.40
514,874.33,1300.88,13.76,1417.70,861.40
516,874.65,1305.06,12.03,1431.70,866.00
518,874.97,1309.22,8.87,1435.00,861.50
520,875.29,1313.39,13.32,1454.00,867.20
522,875.60,1317.55,12.22,1467.00,870.40
524,875.92,1321.71,10.32,1472.80,866.90
526,876.24,1325.87,7.18,1480.80,870.30
528,876.56,1330.02,14.52,1493.30,864.60
530,876.88,1334.17,9.16,1502.00,869.60
532,877.20,1338.32,15.49,1514.20,863.60
534,877.52,1342.46,19.48,1520.20,862.20
536,877.84,1346.60,19.79,1530.20,866.50
538,878.16,1350.73,37.39,1553.60,863.80
540,878.47,1354.87,45.82,1567.10,865.00
542,878.79,1359.00,57.98,1592.70,869.20
544,879.11,1363.13,71.16,1606.10,864.70
546,879.43,1367.25,86.08,1632.00,867.40
548,879.75,1371.37,98.26,1647.60,863.40
550,880.07,1375.49,112.17,1674.70,866.60
552,880.39,1379.60,131.19,1703.90,864.60
554,880.71,1383.71,154.35,1742.00,867.00
556,881.03,1387.82,194.98,1804.90,864.00
558,881.34,1391.93,243.74,1884.90,862.30
560,881.66,1396.03,320.27,2001.50,861.40
562,881.98,1400.13,407.09,2147.60,867.20
564,882.30,1404.22,530.15,2355.20,867.50
566,882.62,1408.31,707.09,2674.30,865.60
568,882.94,1412.40,985.73,3196.10,869.90
570,883.26,1416.49,1575.73,4042.80,864.10
572,883.57,1420.57,2544.99,5066.80,869.60
574,883.89,1424.65,2656.19,5140.10,864.00
576,884.21,1428.73,1653.64,4123.60,870.00
578,884.53,1432.80,960.09,3173.20,869.30
580,884.85,1436.87,668.46,2620.70,866.40
582,885.17,1440.93,525.24,2327.80,862.20
584,885.49,1445.00,419.73,2146.30,862.60
586,885.80,1449.06,351.94,2039.60,864.00
588,886.12,1453.11,301.46,1965.30,871.30
590,886.44,1457.17,280.16,1925.10,869.20
592,886.76,1461.22,267.55,1898.90,866.70
594,887.08,1465.26,263.26,1888.50,868.60
596,887.40,1469.31,255.44,1868.00,863.70
598,887.71,1473.35,246.75,1850.30,863.60
600,888.03,1477.38,230.29,1826.40,866.60
602,888.35,1481.42,202.46,1794.70,872.60
604,888.67,1485.45,168.29,1740.60,868.60
606,888.99,1489.48,145.18,1701.50,865.30
608,889.31,1493.50,125.45,1674.30,870.60
610,889.62,1497.52,110.14,1641.50,865.80
612,889.94,1501.54,81.43,1597.00,861.70
614,890.26,1505.56,58.65,1571.00,865.80
616,890.58,1509.57,52.06,1555.80,866.00
618,890.90,1513.57,49.25,1543.30,864.90
620,891.21,1517.58,35.34,1531.00,864.10
622,891.53,1521.58,21.52,1510.40,866.60
624,891.85,1525.58,28.94,1508.00,865.20
626,892.17,1529.57,21.18,1495.90,867.00
628,892.49,1533.57,13.89,1484.50,867.40
630,892.80,1537.56,6.44,1465.80,864.10
632,893.12,1541.54,3.26,1455.00,863.80
634,893.44,1545.52,0.32,1445.50,867.30
636,893.76,1549.50,0.02,1434.00,864.00
638,894.07,1553.48,0.00,1428.60,867.00
640,894.39,1557.45,0.00,1414.60,863.50
642,894.71,1561.42,0.88,1413.90,864.20
644,895.03,1565.39,0.54,1404.60,862.20
646,895.34,1569.35,4.23,1409.60,868.20
648,895.66,1573.31,0.94,1396.20,865.00
650,895.98,1577.26,0.00,1389.00,864.70
652,896.30,1581.22,0.00,1376.90,861.40
654,896.61,1585.17,0.00,1379.50,865.80
656,896.93,1589.11,0.00,1377.20,868.30
658,897.25,1593.06,5.13,1376.50,860.90
660,897.57,1597.00,4.88,1376.50,867.20
662,897.88,1600.93,0.49,1365.60,865.60
664,898.20,1604.87,11.70,1373.90,864.10
666,898.52,1608.80,1.89,1358.90,864.60
668,898.84,1612.72,4.55,1358.00,863.60
670,899.15,1616.65,10.48,1366.30,868.60
672,899.47,1620.57,10.61,1358.80,863.90
674,899.79,1624.49,16.05,1366.30,868.00
676,900.10,1628.40,12.86,1354.20,864.80
678,900.42,1632.31,18.49,1359.20,866.50
680,900.74,1636.22,19.38,1351.70,859.90
682,901.05,1640.12,19.92,1359.60,870.70
684,901.37,1644.02,19.34,1346.60,862.70
686,901.69,1647.92,21.89,1348.50,866.20
688,902.00,1651.82,23.84,1345.10,863.70
690,902.32,1655.71,26.02,1343.30,862.00
692,902.64,1659.60,25.95,1338.30,862.30
694,902.95,1663.48,27.23,1338.30,864.70
696,903.27,1667.36,25.47,1334.30,864.90
698,903.59,1671.24,18.46,1325.30,868.80
700,903.90,1675.11,28.12,1328.10,865.20
702,904.22,1678.99,22.03,1312.70,862.40
704,904.54,1682.85,22.58,1319.90,871.00
706,904.85,1686.72,13.36,1299.90,863.90
708,905.17,1690.58,17.60,1303.90,866.60
710,905.49,1694.44,24.55,1302.30,863.20
712,905.80,1698.29,28.66,1303.60,864.30
714,906.12,1702.15,28.91,1302.50,865.10
716,906.43,1706.00,21.59,1295.30,868.40
718,906.75,1709.84,27.05,1297.30,869.30
720,907.07,1713.68,22.68,1282.30,865.00
722,907.38,1717.52,16.54,1271.40,864.80
724,907.70,1721.36,12.94,1264.00,864.60
726,908.01,1725.19,8.61,1256.60,866.40
728,908.33,1729.02,11.69,1254.80,865.70
730,908.65,1732.85,11.01,1247.80,864.20
732,908.96,1736.67,11.79,1251.10,868.80
734,909.28,1740.49,4.59,1235.10,865.20
736,909.59,1744.30,6.27,1233.10,865.20
738,909.91,1748.12,10.54,1232.60,864.20
740,910.22,1751.93,9.60,1229.80,865.40
742,910.54,1755.73,5.18,1228.80,873.30
744,910.85,1759.54,8.95,1221.90,866.40
746,911.17,1763.34,3.65,1212.00,864.10
748,911.49,1767.13,3.85,1210.20,864.90
750,911.80,1770.93,8.11,1206.80,860.70
752,912.12,1774.72,11.10,1211.20,866.00
754,912.43,1778.50,11.38,1202.50,860.40
756,912.75,1782.29,17.50,1212.50,863.80
758,913.06,1786.07,26.09,1216.00,862.40
760,913.38,1789.84,32.84,1218.50,863.90
762,913.69,1793.62,36.37,1223.20,867.60
764,914.01,1797.39,20.22,1200.20,863.40
766,914.32,1801.15,14.46,1189.20,862.00
768,914.64,1804.92,9.41,1180.20,863.90
770,914.95,1808.68,10.38,1180.70,866.50
772,915.26,1812.44,10.82,1177.60,868.00
774,915.58,1816.19,13.08,1170.10,861.70
776,915.89,1819.94,11.15,1167.70,863.50
778,916.21,1823.69,10.29,1169.50,870.50
780,916.52,1827.43,10.58,1168.40,871.60
782,916.84,1831.17,16.43,1163.90,863.70
784,917.15,1834.91,22.33,1163.10,861.50
786,917.47,1838.64,20.71,1165.90,868.40
788,917.78,1842.38,16.77,1158.40,867.10
790,918.09,1846.10,19.78,1155.50,864.10
792,918.41,1849.83,22.09,1154.40,865.90
794,918.72,1853.55,23.42,1146.80,859.50
796,919.04,1857.27,16.72,1146.00,867.00
798,919.35,1860.98,19.73,1143.00,864.80
800,919.66,1864.69,28.65,1143.60,861.50
802,919.98,1868.40,26.75,1142.30,864.70
804,920.29,1872.11,26.48,1138.40,861.90
806,920.60,1875.81,23.19,1135.90,865.20
808,920.92,1879.51,26.85,1131.50,862.20
810,921.23,1883.20,37.88,1141.20,865.80
812,921.55,1886.90,28.08,1128.50,864.40
814,921.86,1890.58,28.80,1131.40,868.00
816,922.17,1894.27,26.19,1122.20,865.80
818,922.49,1897.95,26.57,1119.40,867.10
820,922.80,1901.63,32.25,1120.20,866.20
822,923.11,1905.31,27.85,1111.30,862.60
824,923.42,1908.98,23.10,1106.80,865.60
826,923.74,1912.65,29.00,1108.00,865.80
828,924.05,1916.31,28.35,1103.10,864.00
830,924.36,1919.98,28.71,1100.80,863.80
832,924.68,1923.64,30.39,1098.30,864.20
834,924.99,1927.29,30.33,1093.10,861.60
836,925.30,1930.94,30.29,1091.10,862.30
838,925.61,1934.59,27.87,1085.80,863.80
840,925.93,1938.24,28.24,1083.50,863.90
842,926.24,1941.88,22.71,1079.10,867.30
844,926.55,1945.52,27.80,1076.50,862.40
846,926.86,1949.16,27.54,1073.10,862.80
848,927.18,1952.79,22.76,1064.70,861.80
850,927.49,1956.42,27.29,1066.30,862.90
852,927.80,1960.05,33.35,1082.20,876.00
854,928.11,1963.67,25.74,1065.40,869.00
856,928.42,1967.29,26.03,1060.00,866.00
858,928.74,1970.91,30.10,1061.10,865.40
860,929.05,1974.52,31.28,1059.30,866.00
862,929.36,1978.13,32.48,1054.60,862.50
864,929.67,1981.74,31.80,1053.10,864.40
866,929.98,1985.35,36.67,1055.60,863.70
868,930.29,1988.95,41.36,1060.00,864.60
870,930.61,1992.54,49.07,1060.10,861.00
872,930.92,1996.14,57.40,1066.40,864.10
874,931.23,1999.73,61.39,1068.40,865.20
876,931.54,2003.32,55.33,1059.90,865.80
878,931.85,2006.90,44.45,1045.80,865.20
880,932.16,2010.48,31.23,1031.00,864.60
882,932.47,2014.06,22.57,1019.30,864.80
884,932.78,2017.63,22.64,1014.90,864.60
886,933.09,2021.21,15.07,1003.00,864.40
888,933.41,2024.77,13.02,1000.30,865.40
890,933.72,2028.34,6.54,994.10,868.60
892,934.03,2031.90,11.04,992.00,865.80
894,934.34,2035.46,12.70,990.30,866.00
896,934.65,2039.01,5.81,980.10,863.90
898,934.96,2042.57,4.67,980.50,867.80
900,935.27,2046.11,10.70,985.90,869.20
902,935.58,2049.66,12.21,975.80,861.30
904,935.89,2053.20,25.86,986.50,862.90
906,936.20,2056.74,25.88,986.30,864.80
908,936.51,2060.28,24.09,982.10,864.60
910,936.82,2063.81,12.95,972.50,867.60
912,937.13,2067.34,11.35,969.30,865.60
914,937.44,2070.86,2.46,955.40,865.60
916,937.75,2074.39,8.03,953.10,861.00
918,938.06,2077.91,5.62,951.60,864.70
920,938.37,2081.42,3.13,946.90,864.80
922,938.68,2084.94,5.71,947.40,864.30
924,938.99,2088.45,0.00,937.30,867.40
926,939.30,2091.95,3.61,942.60,866.60
928,939.60,2095.46,0.36,936.60,865.80
930,939.91,2098.96,0.00,934.00,868.00
932,940.22,2102.45,6.32,935.40,864.00
934,940.53,2105.95,0.25,927.70,862.30
936,940.84,2109.44,0.00,926.20,864.00
938,941.15,2112.92,0.00,927.30,866.20
940,941.46,2116.41,0.00,923.30,864.00
942,941.77,2119.89,1.18,929.20,867.60
944,942.07,2123.37,6.86,926.10,862.50
946,942.38,2126.84,0.00,923.70,866.60
948,942.69,2130.31,2.28,926.10,867.40
950,943.00,2133.78,4.44,923.30,864.50
952,943.31,2137.24,1.27,924.40,868.10
954,943.62,2140.70,0.62,920.30,865.10
956,943.92,2144.16,0.00,920.00,866.80
958,944.23,2147.62,1.75,922.40,867.00
960,944.54,2151.07,6.27,924.60,867.80
962,944.85,2154.52,5.71,928.00,871.60
964,945.16,2157.96,4.89,922.70,867.40
966,945.46,2161.40,5.98,922.50,867.40
968,945.77,2164.84,4.32,915.00,862.10
970,946.08,2168.28,3.77,917.50,864.70
972,946.39,2171.71,2.34,913.80,863.20
974,946.69,2175.14,4.99,917.60,866.20
976,947.00,2178.57,3.09,914.00,864.80
978,947.31,2181.99,1.90,910.20,862.50
980,947.61,2185.41,6.28,913.60,862.90
982,947.92,2188.82,1.52,910.90,865.10
984,948.23,2192.24,0.74,906.70,861.90
986,948.53,2195.65,0.00,907.80,864.90
988,948.84,2199.05,0.25,903.80,860.90
990,949.15,2202.46,6.74,909.70,862.20
992,949.45,2205.86,2.01,908.30,864.80
994,949.76,2209.25,3.71,906.90,863.10
996,950.07,2212.65,0.00,905.60,865.20
998,950.37,2216.04,0.00,902.20,862.00
1000,950.68,2219.43,0.29,906.80,865.60
1002,950.98,2222.81,4.67,910.40,866.40
1004,951.29,2226.19,2.82,907.30,865.40
1006,951.60,2229.57,5.94,905.70,860.40
1008,951.90,2232.94,4.30,906.20,862.60
1010,952.21,2236.32,9.05,910.10,863.20
1012,952.51,2239.68,8.43,913.10,866.20
1014,952.82,2243.05,13.83,910.70,860.00
1016,953.12,2246.41,12.12,916.60,868.60
1018,953.43,2249.77,8.61,918.90,873.20
1020,953.73,2253.12,9.08,914.30,867.10
1022,954.04,2256.48,7.79,906.80,861.40
1024,954.34,2259.83,14.56,916.40,866.70
1026,954.65,2263.17,12.13,912.40,864.20
1028,954.95,2266.51,12.65,915.20,866.00
1030,955.26,2269.85,16.31,919.70,867.80
1032,955.56,2273.19,22.05,921.90,866.10
1034,955.87,2276.52,28.36,924.10,863.70
1036,956.17,2279.85,28.27,931.50,870.20
1038,956.48,2283.18,34.04,928.00,860.60
1040,956.78,2286.50,41.65,938.50,865.10
1042,957.08,2289.82,65.63,950.70,858.90
1044,957.39,2293.14,80.35,971.10,867.40
1046,957.69,2296.45,96.40,979.50,862.00
1048,957.99,2299.76,126.87,1006.70,868.60
1050,958.30,2303.07,166.34,1027.60,866.00
1052,958.60,2306.38,170.14,1026.30,863.80
1054,958.91,2309.68,138.47,1008.30,866.00
1056,959.21,2312.98,113.23,987.20,860.60
1058,959.51,2316.27,87.69,973.20,864.20
1060,959.82,2319.56,59.69,954.10,868.60
1062,960.12,2322.85,61.07,945.50,862.20
1064,960.42,2326.14,52.27,935.90,861.10
1066,960.72,2329.42,40.85,932.40,865.70
1068,961.03,2332.70,25.48,921.50,866.30
1070,961.33,2335.97,24.78,922.60,867.40
1072,961.63,2339.25,17.13,911.90,863.80
1074,961.93,2342.52,19.68,912.30,864.10
1076,962.24,2345.78,22.50,914.90,865.00
1078,962.54,2349.05,9.25,907.00,866.20
1080,962.84,2352.31,16.93,908.70,862.50
1082,963.14,2355.56,15.59,907.50,863.30
1084,963.45,2358.82,15.92,905.90,861.30
1086,963.75,2362.07,10.69,906.80,865.40
1088,964.05,2365.32,6.77,910.10,872.10
1090,964.35,2368.56,9.88,905.80,867.00
1092,964.65,2371.80,14.76,906.80,864.40
1094,964.95,2375.04,5.99,900.80,863.10
1096,965.25,2378.27,8.24,902.20,864.20
1098,965.56,2381.51,16.36,906.50,864.80
1100,965.86,2384.73,2.67,900.60,867.20
1102,966.16,2387.96,6.95,900.60,863.40
1104,966.46,2391.18,3.26,904.30,870.90
1106,966.76,2394.40,10.24,899.90,861.80
1108,967.06,2397.62,19.24,908.80,866.40
1110,967.36,2400.83,17.40,904.50,862.50
1112,967.66,2404.04,13.96,908.80,869.00
1114,967.96,2407.25,20.09,902.60,860.20
1116,968.26,2410.45,27.12,907.80,861.70
1118,968.56,2413.65,9.33,900.80,865.40
1120,968.86,2416.85,20.67,911.40,868.20
1122,969.16,2420.04,14.15,901.50,864.70
1124,969.46,2423.23,21.35,902.60,861.30
1126,969.76,2426.42,7.42,897.90,864.70
1128,970.06,2429.60,3.41,893.10,862.60
1130,970.36,2432.79,4.52,895.80,864.70
1132,970.66,2435.96,5.68,894.70,864.40
1134,970.96,2439.14,9.00,896.00,864.50
1136,971.26,2442.31,5.58,895.00,865.00
1138,971.56,2445.48,5.55,894.80,865.30
1140,971.86,2448.65,6.92,893.10,863.30
1142,972.16,2451.81,2.59,893.40,865.30
1144,972.45,2454.97,0.47,891.30,865.70
1146,972.75,2458.13,9.27,894.80,864.40
1148,973.05,2461.28,4.42,889.60,862.20
1150,973.35,2464.43,3.34,892.40,865.60
1152,973.65,2467.58,10.30,892.90,862.80
1154,973.95,2470.72,9.57,893.10,863.90
1156,974.24,2473.86,4.63,893.20,866.30
1158,974.54,2477.00,6.33,888.80,860.50
1160,974.84,2480.13,9.25,896.40,867.40
1162,975.14,2483.27,17.44,894.70,862.60
1164,975.43,2486.40,18.07,893.40,860.10
1166,975.73,2489.52,9.47,892.60,863.10
1168,976.03,2492.64,9.60,893.30,864.10
1170,976.33,2495.76,24.45,902.30,865.40
1172,976.62,2498.88,25.21,898.20,862.00
1174,976.92,2501.99,32.22,905.90,864.60
1176,977.22,2505.10,31.88,910.20,867.80
1178,977.51,2508.21,45.08,917.30,865.20
1180,977.81,2511.31,60.61,927.40,866.00
1182,978.11,2514.41,100.01,944.90,862.50
1184,978.40,2517.51,147.52,967.80,864.40
1186,978.70,2520.61,179.00,979.70,864.90
1188,979.00,2523.70,182.98,982.30,865.90
1190,979.29,2526.79,143.91,967.30,866.20
1192,979.59,2529.87,104.20,949.70,866.30
1194,979.88,2532.95,76.57,929.50,862.60
1196,980.18,2536.03,60.13,921.10,866.20
1198,980.48,2539.11,50.01,916.90,868.80
1200,980.77,2542.18,33.95,902.40,864.20
1202,981.07,2545.25,30.74,905.00,869.50
1204,981.36,2548.32,25.54,896.00,862.90
1206,981.66,2551.38,13.43,895.40,869.40
1208,981.95,2554.44,18.22,894.20,866.60
1210,982.25,2557.50,13.45,896.00,871.40
1212,982.54,2560.56,13.77,892.60,868.00
1214,982.84,2563.61,15.30,893.70,869.40
1216,983.13,2566.66,11.95,892.40,869.30
1218,983.43,2569.70,5.00,888.40,868.80
1220,983.72,2572.74,6.05,889.50,869.60
1222,984.01,2575.78,11.42,888.60,866.20
1224,984.31,2578.82,8.70,882.40,862.30
1226,984.60,2581.85,12.23,887.00,866.00
1228,984.90,2584.88,9.23,881.30,861.80
1230,985.19,2587.91,9.54,885.50,865.30
1232,985.48,2590.93,7.29,884.60,865.30
1234,985.78,2593.96,6.53,884.60,866.20
1236,986.07,2596.97,7.94,885.00,866.60
1238,986.36,2599.99,16.61,889.90,868.60
1240,986.66,2603.00,9.37,888.20,869.80
1242,986.95,2606.01,3.84,887.30,870.60
1244,987.24,2609.01,3.73,882.80,866.20
1246,987.54,2612.02,13.48,879.50,859.80
1248,987.83,2615.02,17.29,886.50,866.20
1250,988.12,2618.01,2.68,883.10,868.40
1252,988.41,2621.01,0.00,882.60,870.20
1254,988.71,2624.00,14.74,881.90,862.80
1256,989.00,2626.99,3.22,883.70,869.40
1258,989.29,2629.97,0.00,882.30,871.00
1260,989.58,2632.95,20.59,888.30,866.40
1262,989.87,2635.93,7.31,886.20,870.20
1264,990.16,2638.91,12.36,883.50,864.70
1266,990.46,2641.88,20.20,888.80,868.00
1268,990.75,2644.85,15.83,891.00,872.20
1270,991.04,2647.81,10.19,883.20,866.00
1272,991.33,2650.78,4.98,883.30,868.60
1274,991.62,2653.74,7.43,883.90,867.70
1276,991.91,2656.70,2.90,883.10,869.40
1278,992.20,2659.65,11.61,885.40,868.00
1280,992.49,2662.60,4.08,880.10,866.40
1282,992.78,2665.55,26.84,893.50,869.80
1284,993.07,2668.50,19.89,890.50,869.20
1286,993.36,2671.44,22.59,890.60,868.00
1288,993.65,2674.38,23.62,892.00,869.60
1290,993.94,2677.31,29.32,892.10,867.40
1292,994.23,2680.25,42.51,896.80,866.40
1294,994.52,2683.18,37.76,894.70,867.20
1296,994.81,2686.10,55.80,900.70,867.10
1298,995.10,2689.03,34.81,895.00,869.20
1300,995.39,2691.95,39.13,893.70,864.70
1302,995.68,2694.87,24.02,895.10,872.40
1304,995.97,2697.78,24.03,891.40,869.20
1306,996.26,2700.70,29.94,888.40,864.80
1308,996.55,2703.61,24.76,888.80,867.60
1310,996.84,2706.51,17.35,890.50,871.80
1312,997.13,2709.42,13.93,888.50,870.50
1314,997.41,2712.32,8.84,885.60,870.00
1316,997.70,2715.21,28.75,887.10,864.80
1318,997.99,2718.11,15.08,884.80,868.20
1320,998.28,2721.00,11.52,883.70,867.60
1322,998.57,2723.89,7.42,886.80,872.40
1324,998.86,2726.77,13.72,882.80,866.40
1326,999.14,2729.66,4.46,882.70,869.80
1328,999.43,2732.54,16.69,885.70,867.20
1330,999.72,2735.41,10.42,881.00,865.60
1332,1000.01,2738.29,12.85,886.90,871.30
1334,1000.29,2741.16,9.60,883.60,868.80
1336,1000.58,2744.03,10.59,880.70,864.60
1338,1000.87,2746.89,1.28,884.40,872.30
1340,1001.15,2749.75,9.28,881.40,866.20
1342,1001.44,2752.61,6.33,883.60,869.60
1344,1001.73,2755.47,2.89,878.00,865.10
1346,1002.01,2758.32,6.57,881.40,866.70
1348,1002.30,2761.17,3.71,884.40,870.20
1350,1002.59,2764.02,9.27,885.70,868.90
1352,1002.87,2766.86,12.67,885.00,868.20
1354,1003.16,2769.70,3.30,883.60,869.20
1356,1003.44,2772.54,5.82,881.80,865.60
1358,1003.73,2775.38,5.70,882.50,866.10
1360,1004.01,2778.21,16.54,882.50,862.30
1362,1004.30,2781.04,0.00,883.50,868.60
1364,1004.58,2783.87,10.42,885.70,866.10
1366,1004.87,2786.69,3.86,881.30,863.50
1368,1005.15,2789.51,1.84,885.80,868.10
1370,1005.44,2792.33,0.00,887.30,871.20
1372,1005.72,2795.14,1.39,889.00,870.00
1374,1006.01,2797.95,0.00,888.90,870.60
1376,1006.29,2800.76,0.48,888.00,866.80
1378,1006.58,2803.57,0.48,893.80,871.50
1380,1006.86,2806.37,9.00,894.80,867.70
1382,1007.14,2809.17,16.38,894.80,865.80
1384,1007.43,2811.97,11.46,896.50,866.80
1386,1007.71,2814.77,22.14,901.40,864.80
1388,1008.00,2817.56,48.56,913.40,865.10
1390,1008.28,2820.35,69.77,927.40,869.80
1392,1008.56,2823.13,131.29,948.60,867.20
1394,1008.85,2825.91,244.57,983.20,869.80
1396,1009.13,2828.69,414.81,1018.70,869.90
1398,1009.41,2831.47,558.36,1044.40,870.40
1400,1009.69,2834.24,495.03,1029.20,865.80
1402,1009.98,2837.02,316.51,999.20,867.70
1404,1010.26,2839.78,172.96,967.60,869.40
1406,1010.54,2842.55,97.63,940.00,865.60
1408,1010.82,2845.31,63.19,929.10,868.60
1410,1011.11,2848.07,50.62,925.40,870.20
1412,1011.39,2850.83,29.28,919.80,870.60
1414,1011.67,2853.58,18.47,916.60,869.80
1416,1011.95,2856.33,17.18,913.10,866.10
1418,1012.23,2859.08,13.83,913.40,866.50
1420,1012.51,2861.83,6.58,910.40,865.00
1422,1012.80,2864.57,24.04,922.70,870.80
1424,1013.08,2867.31,20.48,919.20,869.00
1426,1013.36,2870.04,20.60,919.90,869.40
1428,1013.64,2872.78,26.84,922.70,869.80
1430,1013.92,2875.51,20.69,925.00,872.60
1432,1014.20,2878.24,20.45,923.10,870.20
1434,1014.48,2880.96,15.17,922.20,870.20
1436,1014.76,2883.68,24.16,921.10,865.60
1438,1015.04,2886.40,12.77,921.00,867.00
1440,1015.32,2889.12,6.61,922.30,869.40
1442,1015.60,2891.83,2.06,919.60,867.60
1444,1015.88,2894.54,10.95,923.50,868.90
1446,1016.16,2897.25,7.93,917.50,862.70
1448,1016.44,2899.96,0.00,920.70,870.50
1450,1016.72,2902.66,0.12,925.80,870.00
1452,1017.00,2905.36,0.00,929.80,873.20
1454,1017.28,2908.06,19.52,928.80,863.80
1456,1017.55,2910.75,29.01,934.80,869.20
1458,1017.83,2913.44,12.35,929.30,863.30
1460,1018.11,2916.13,6.38,935.00,866.30
1462,1018.39,2918.81,0.00,936.20,869.80
1464,1018.67,2921.49,0.00,938.10,868.20
1466,1018.95,2924.17,0.00,938.90,867.60
1468,1019.22,2926.85,0.00,946.60,872.10
1470,1019.50,2929.52,0.00,944.40,866.20
1472,1019.78,2932.20,0.00,953.60,865.00
1474,1020.06,2934.86,0.00,961.10,869.20
1476,1020.33,2937.53,6.42,974.20,870.60
1478,1020.61,2940.19,4.74,976.80,868.60
1480,1020.89,2942.85,0.00,983.40,871.30
1482,1021.17,2945.51,15.38,994.20,869.80
1484,1021.44,2948.16,53.87,1005.10,868.20
1486,1021.72,2950.81,131.28,1020.50,867.20
1488,1022.00,2953.46,250.10,1048.40,870.40
1490,1022.27,2956.11,369.01,1070.30,867.00
1492,1022.55,2958.75,465.57,1099.70,873.40
1494,1022.82,2961.39,667.51,1139.70,867.00
1496,1023.10,2964.03,900.59,1195.00,872.80
1498,1023.38,2966.66,1204.19,1253.10,868.60
1500,1023.65,2969.29,1659.17,1357.00,872.90
1502,1023.93,2971.92,2155.04,1491.30,873.70
1504,1024.20,2974.55,2749.57,1693.00,872.60
1506,1024.48,2977.17,3756.11,2025.40,872.50
1508,1024.75,2979.79,6232.38,2628.30,867.80
1510,1025.03,2982.41,12169.93,3635.00,869.20
1512,1025.30,2985.02,22184.29,4824.80,864.70
1514,1025.58,2987.63,28388.44,5431.30,869.80
1516,1025.85,2990.24,22283.75,4811.20,867.40
1518,1026.13,2992.85,12764.56,3653.10,874.70
1520,1026.40,2995.45,7507.87,2768.80,871.30
1522,1026.68,2998.05,5444.07,2260.90,868.80
1524,1026.95,3000.65,4505.09,1948.30,869.40
1526,1027.22,3003.25,3859.27,1743.30,868.40
1528,1027.50,3005.84,3230.64,1596.20,869.60
1530,1027.77,3008.43,2628.05,1478.50,869.60
1532,1028.04,3011.02,2193.54,1398.30,870.70
1534,1028.32,3013.60,1822.87,1323.90,867.10
1536,1028.59,3016.18,1559.87,1278.20,872.10
1538,1028.86,3018.76,1331.53,1227.20,864.80
1540,1029.14,3021.34,1236.11,1210.00,868.40
1542,1029.41,3023.91,1144.41,1187.50,868.50
1544,1029.68,3026.48,1166.08,1182.30,864.20
1546,1029.95,3029.05,1087.62,1172.70,869.40
1548,1030.22,3031.61,1106.88,1174.90,868.50
1550,1030.50,3034.17,1179.06,1187.50,870.20
1552,1030.77,3036.73,1255.13,1193.60,865.40
1554,1031.04,3039.29,1386.16,1219.60,871.40
1556,1031.31,3041.84,1512.07,1232.40,866.60
1558,1031.58,3044.39,1762.91,1273.80,872.10
1560,1031.85,3046.94,2011.05,1305.20,871.20
1562,1032.13,3049.49,2230.83,1326.40,867.80
1564,1032.40,3052.03,2421.88,1348.70,871.30
1566,1032.67,3054.57,2514.52,1350.70,865.80
1568,1032.94,3057.11,2347.09,1335.30,875.50
1570,1033.21,3059.64,2135.21,1297.80,867.00
1572,1033.48,3062.18,1827.69,1256.80,869.80
1574,1033.75,3064.70,1554.22,1218.30,871.00
1576,1034.02,3067.23,1266.53,1172.40,869.00
1578,1034.29,3069.75,1097.88,1142.10,866.00
1580,1034.56,3072.28,867.42,1111.20,871.70
1582,1034.83,3074.79,723.51,1083.60,866.30
1584,1035.10,3077.31,569.69,1063.80,870.50
1586,1035.37,3079.82,493.74,1047.60,868.10
1588,1035.64,3082.33,428.00,1041.70,874.60
1590,1035.91,3084.84,383.60,1028.30,868.50
1592,1036.17,3087.34,256.47,1007.10,865.70
1594,1036.44,3089.85,234.23,1011.40,873.80
1596,1036.71,3092.35,152.52,992.70,866.90
1598,1036.98,3094.84,92.65,981.20,863.80
1600,1037.25,3097.34,72.07,976.00,862.90
1602,1037.52,3099.83,28.37,974.10,869.90
1604,1037.78,3102.32,59.06,973.20,867.80
1606,1038.05,3104.80,49.24,970.00,869.10
1608,1038.32,3107.29,11.44,963.60,870.20
1610,1038.59,3109.77,21.87,960.40,868.10
1612,1038.85,3112.24,6.58,955.80,869.20
1614,1039.12,3114.72,0.00,952.70,870.60
1616,1039.39,3117.19,25.03,947.60,865.20
1618,1039.66,3119.66,9.23,947.10,869.20
1620,1039.92,3122.13,0.00,944.60,872.30
1622,1040.19,3124.59,31.87,943.00,868.20
1624,1040.45,3127.05,36.22,937.40,865.60
1626,1040.72,3129.51,0.00,934.90,869.60
1628,1040.99,3131.97,0.00,934.00,872.40
1630,1041.25,3134.42,4.88,934.00,871.50
1632,1041.52,3136.87,0.00,925.30,866.40
1634,1041.78,3139.32,3.07,927.90,869.40
1636,1042.05,3141.77,27.86,939.00,880.00
1638,1042.32,3144.21,0.00,920.80,867.40
1640,1042.58,3146.65,7.29,928.10,874.20
1642,1042.85,3149.09,3.36,922.90,871.00
1644,1043.11,3151.52,0.00,918.20,871.10
1646,1043.38,3153.96,1.90,919.20,870.20
1648,1043.64,3156.39,33.65,919.30,867.70
1650,1043.90,3158.81,10.13,916.20,868.20
1652,1044.17,3161.24,0.00,914.30,869.00
1654,1044.43,3163.66,32.03,915.60,868.00
1656,1044.70,3166.08,2.35,920.00,876.00
1658,1044.96,3168.49,26.12,915.60,869.80
1660,1045.22,3170.91,12.26,912.80,869.00
1662,1045.49,3173.32,24.05,912.70,867.80
1664,1045.75,3175.73,9.19,914.50,872.20
1666,1046.01,3178.13,28.13,911.10,867.00
1668,1046.28,3180.54,0.00,909.30,870.90
1670,1046.54,3182.94,41.19,914.50,871.60
1672,1046.80,3185.34,64.17,913.00,869.00
1674,1047.07,3187.73,44.52,909.00,866.70
1676,1047.33,3190.12,16.02,909.20,869.60
1678,1047.59,3192.51,37.24,912.20,870.60
1680,1047.85,3194.90,15.47,914.20,875.60
1682,1048.11,3197.29,65.98,913.50,871.20
1684,1048.38,3199.67,32.32,909.60,870.20
1686,1048.64,3202.05,8.02,912.40,875.60
1688,1048.90,3204.43,39.45,910.10,870.40
1690,1049.16,3206.80,63.23,909.30,869.10
1692,1049.42,3209.17,91.44,911.60,870.20
1694,1049.68,3211.54,69.78,907.20,867.40
1696,1049.94,3213.91,52.93,907.80,869.40
1698,1050.20,3216.27,92.26,912.90,871.20
1700,1050.46,3218.63,110.03,915.10,872.90
1702,1050.72,3220.99,123.67,913.90,871.80
1704,1050.98,3223.35,208.25,918.00,870.40
1706,1051.24,3225.70,159.62,913.50,870.20
1708,1051.50,3228.05,146.09,910.00,867.60
1710,1051.76,3230.40,128.40,914.30,873.40
1712,1052.02,3232.75,140.94,912.40,871.20
1714,1052.28,3235.09,173.23,916.20,873.30
1716,1052.54,3237.43,162.20,911.20,869.70
1718,1052.80,3239.77,141.85,908.20,868.90
1720,1053.06,3242.11,239.59,914.30,868.20
1722,1053.32,3244.44,166.68,908.40,868.10
1724,1053.58,3246.77,159.65,915.20,875.70
1726,1053.84,3249.10,211.08,912.70,869.90
1728,1054.10,3251.42,174.77,912.10,873.10
1730,1054.35,3253.75,278.58,912.80,867.50
1732,1054.61,3256.07,222.22,914.20,872.90
1734,1054.87,3258.39,145.20,909.10,873.10
1736,1055.13,3260.70,177.61,911.60,873.70
1738,1055.38,3263.01,282.31,911.40,867.40
1740,1055.64,3265.32,300.36,916.10,871.70
1742,1055.90,3267.63,202.97,904.30,866.60
1744,1056.16,3269.94,218.60,914.90,876.50
1746,1056.41,3272.24,267.18,915.90,875.10
1748,1056.67,3274.54,292.79,913.60,871.90
1750,1056.93,3276.84,267.39,913.10,873.40
1752,1057.18,3279.13,266.69,907.60,868.00
1754,1057.44,3281.42,261.64,909.80,870.60
1756,1057.69,3283.71,224.87,904.90,868.80
1758,1057.95,3286.00,310.01,914.70,874.40
1760,1058.21,3288.28,340.32,908.00,866.90
1762,1058.46,3290.57,252.57,909.00,873.30
1764,1058.72,3292.85,339.92,909.90,868.60
1766,1058.97,3295.12,241.68,905.40,870.80
1768,1059.23,3297.40,288.42,905.20,868.70
1770,1059.48,3299.67,349.74,909.20,869.60
1772,1059.74,3301.94,274.28,902.30,867.00
1774,1059.99,3304.21,260.68,907.20,872.70
1776,1060.25,3306.47,264.54,909.30,875.20
1778,1060.50,3308.73,308.84,903.60,868.00
1780,1060.76,3310.99,256.95,902.30,870.80
1782,1061.01,3313.25,400.63,905.80,867.40
1784,1061.26,3315.50,324.02,902.90,868.30
1786,1061.52,3317.76,221.20,901.90,872.50
1788,1061.77,3320.01,268.85,906.60,874.60
1790,1062.02,3322.25,311.81,901.40,867.80
1792,1062.28,3324.50,293.12,902.40,870.70
1794,1062.53,3326.74,311.83,897.80,865.90
1796,1062.78,3328.98,325.56,900.60,868.60
1798,1063.04,3331.22,261.88,899.90,871.30
1800,1063.29,3333.45,213.81,896.60,870.60
1802,1063.54,3335.68,406.44,902.00,866.30
1804,1063.79,3337.91,275.72,902.00,873.40
1806,1064.05,3340.14,300.68,905.40,875.90
1808,1064.30,3342.36,277.16,897.00,869.60
1810,1064.55,3344.59,349.12,899.70,870.00
1812,1064.80,3346.81,386.48,899.20,867.80
1814,1065.05,3349.02,319.32,898.60,869.00
1816,1065.30,3351.24,204.58,898.00,873.80
1818,1065.55,3353.45,279.58,896.60,869.60
1820,1065.81,3355.66,339.87,902.40,875.00
1822,1066.06,3357.87,423.81,897.90,868.60
1824,1066.31,3360.07,392.15,895.00,866.40
1826,1066.56,3362.27,233.21,897.80,874.50
1828,1066.81,3364.47,177.35,891.20,869.60
1830,1067.06,3366.67,196.60,895.70,873.40
1832,1067.31,3368.87,270.38,893.80,869.90
1834,1067.56,3371.06,471.41,892.70,863.10
1836,1067.81,3373.25,466.12,891.90,863.80
1838,1068.06,3375.44,318.48,891.40,868.20
1840,1068.31,3377.62,350.04,894.00,867.90
1842,1068.56,3379.81,168.01,887.10,868.50
1844,1068.80,3381.99,185.23,895.20,876.00
1846,1069.05,3384.16,248.23,893.50,872.70
1848,1069.30,3386.34,417.10,893.50,867.60
1850,1069.55,3388.51,385.83,890.70,867.00
1852,1069.80,3390.68,319.54,892.80,871.60
1854,1070.05,3392.85,320.19,896.40,874.70
1856,1070.30,3395.02,316.48,893.50,871.10
1858,1070.54,3397.18,175.05,885.20,868.60
1860,1070.79,3399.34,322.41,891.90,869.80
1862,1071.04,3401.50,284.24,888.00,869.00
1864,1071.29,3403.66,462.66,886.40,862.40
1866,1071.53,3405.81,439.23,892.30,869.00
1868,1071.78,3407.96,381.69,891.10,868.80
1870,1072.03,3410.11,244.46,889.00,871.40
1872,1072.27,3412.26,200.56,887.00,871.40
1874,1072.52,3414.40,372.69,888.20,866.80
1876,1072.77,3416.54,332.07,886.40,867.00
1878,1073.01,3418.68,255.32,890.20,873.90
1880,1073.26,3420.82,342.48,881.30,862.70
1882,1073.51,3422.96,405.53,891.20,871.10
1884,1073.75,3425.09,402.01,889.00,868.60
1886,1074.00,3427.22,274.41,882.00,865.30
1888,1074.24,3429.35,245.35,888.60,873.10
1890,1074.49,3431.47,377.41,884.50,865.50
1892,1074.73,3433.59,370.72,884.00,866.20
1894,1074.98,3435.71,414.55,893.50,874.70
1896,1075.22,3437.83,366.83,886.10,868.60
1898,1075.47,3439.95,395.95,890.10,871.10
1900,1075.71,3442.06,305.62,887.70,871.10
1902,1075.96,3444.17,220.36,884.10,870.60
1904,1076.20,3446.28,265.20,876.50,862.30
1906,1076.44,3448.38,382.85,890.40,873.60
1908,1076.69,3450.49,342.88,888.60,873.50
1910,1076.93,3452.59,448.84,886.10,868.20
1912,1077.17,3454.69,318.75,885.80,871.40
1914,1077.42,3456.79,316.74,883.20,868.60
1916,1077.66,3458.88,319.58,883.10,868.40
1918,1077.90,3460.97,254.31,879.70,867.30
1920,1078.15,3463.06,359.61,886.30,871.30
1922,1078.39,3465.15,327.32,883.30,869.40
1924,1078.63,3467.23,276.38,877.20,864.90
1926,1078.87,3469.32,253.42,885.90,874.60
1928,1079.12,3471.40,410.72,883.20,868.10
1930,1079.36,3473.47,249.70,889.80,878.70
1932,1079.60,3475.55,299.15,878.90,866.00
1934,1079.84,3477.62,227.57,882.20,871.50
1936,1080.08,3479.69,176.83,877.50,868.80
1938,1080.33,3481.76,441.89,879.80,865.00
1940,1080.57,3483.83,218.68,880.70,871.20
1942,1080.81,3485.89,233.23,878.60,868.40
1944,1081.05,3487.95,281.76,884.00,872.70
1946,1081.29,3490.01,312.81,879.80,868.50
1948,1081.53,3492.07,395.88,879.50,867.00
1950,1081.77,3494.12,251.71,875.60,866.40
1952,1082.01,3496.18,263.53,880.80,870.90
1954,1082.25,3498.23,143.90,877.10,870.00
1956,1082.49,3500.27,343.77,880.50,868.60
1958,1082.73,3502.32,285.59,876.80,867.00
1960,1082.97,3504.36,342.80,879.20,868.40
1962,1083.21,3506.40,329.84,878.40,867.80
1964,1083.45,3508.44,440.92,877.30,864.10
1966,1083.69,3510.48,210.06,884.20,876.60
1968,1083.93,3512.51,492.03,883.10,869.80
1970,1084.16,3514.54,402.54,880.10,868.80
1972,1084.40,3516.57,221.93,877.80,870.20
1974,1084.64,3518.60,255.31,875.20,866.80
1976,1084.88,3520.62,308.89,880.90,871.50
1978,1085.12,3522.65,377.76,884.30,873.70
1980,1085.36,3524.67,179.35,878.00,871.80
1982,1085.59,3526.68,345.88,877.00,867.50
1984,1085.83,3528.70,397.61,882.10,871.80
1986,1086.07,3530.71,348.22,875.80,866.60
1988,1086.31,3532.72,291.98,880.10,871.90
1990,1086.54,3534.73,178.87,873.50,867.60
1992,1086.78,3536.74,242.86,880.90,873.90
1994,1087.02,3538.74,227.22,876.20,869.90
1996,1087.25,3540.74,212.23,871.10,865.30
1998,1087.49,3542.74,412.96,878.40,868.90
2000,1087.73,3544.74,326.94,878.40,870.10
2002,1087.96,3546.74,342.78,877.00,867.80
2004,1088.20,3548.73,190.42,880.10,874.20
2006,1088.43,3550.72,221.98,876.40,870.40
2008,1088.67,3552.71,578.41,877.20,865.80
2010,1088.90,3554.69,218.27,872.10,867.00
2012,1089.14,3556.68,386.15,877.40,869.40
2014,1089.38,3558.66,519.77,876.60,865.80
2016,1089.61,3560.64,242.05,874.10,868.00
2018,1089.84,3562.62,299.73,877.10,869.70
2020,1090.08,3564.59,282.05,872.90,866.20
2022,1090.31,3566.56,293.39,874.10,868.00
2024,1090.55,3568.53,496.05,873.80,865.40
2026,1090.78,3570.50,292.79,871.20,865.60
2028,1091.02,3572.47,303.61,872.00,865.10
2030,1091.25,3574.43,228.94,872.20,865.60
2032,1091.48,3576.39,150.04,868.20,863.60
2034,1091.72,3578.35,273.44,867.80,861.90
2036,1091.95,3580.31,586.60,875.00,865.90
2038,1092.18,3582.26,534.42,871.20,863.10
2040,1092.42,3584.22,288.22,867.80,862.70
2042,1092.65,3586.17,229.93,867.20,863.00
2044,1092.88,3588.12,0.00,862.70,862.00
2046,1093.11,3590.06,377.00,869.20,859.70
2047,1093.23,3591.03,40.73,864.40,861.50