File: plugins/Raman/MatchingLibrary/785X/diethylether.csv
ENLIGHTEN Version,4.1.22
Measurement ID,20250220-195350-334154-WP-01977
Serial Number,WP-01977
Model,WP-785X-F13-R-ILC
Detector,S16011-1106
Label,diethylether
Declared Match,
Declared Score,0
Scan Averaging,2
Boxcar,0
Technique,Raman
Baseline Correction Algo,AirPLS
ROI Pixel Start,47
ROI Pixel End,2047
ROI Start Line,0
ROI Stop Line,63
CCD C4,1.38617e-12
Slit Width,25
Cropped,True
Interpolated,False
Wavenumber Correction,-0.100481
Raman Intensity Corrected,True
Deconvolved,True
Region,
High Gain Mode,False
Laser Power mW,
Electrical Dark Correction,False
Battery %,
Device ID,<DeviceID USB:0x24aa:0x1000:0:1>
FW Version,10.0.0.10
FPGA Version,035-001
BLE Version,
Prefix,enlighten
Suffix,
Preset,
Auto-Raman,True
Session Count,0
Plugin Name,
Integration Time,738
Timestamp,2025-02-20 19:53:50.3342
Note,
Temperature,0
CCD C0,793.274
CCD C1,0.153259
CCD C2,1.40788e-05
CCD C3,-1.132e-08
CCD Offset,0
CCD Gain,1.9
CCD Offset Odd,0
CCD Gain Odd,1.9
Laser Wavelength,785.032
Laser Enable,False
Laser Power %,0
Laser Temperature,0
Pixel Count,2048

Pixel,Wavelength,Wavenumber,Processed,Raw,Dark
0,793.27,132.25,NA,1051.50,1001.00
2,793.58,137.12,NA,1087.00,1042.00
4,793.89,141.99,NA,1065.50,1023.00
6,794.19,146.86,NA,1074.00,1027.50
8,794.50,151.72,NA,1091.50,1052.50
10,794.81,156.58,NA,1085.50,1040.00
12,795.12,161.44,NA,1066.50,1020.00
14,795.42,166.30,NA,1067.50,1019.00
16,795.73,171.16,NA,1078.50,1013.50
18,796.04,176.01,NA,1118.50,1053.00
20,796.35,180.86,NA,1110.50,1050.50
22,796.65,185.71,NA,1150.00,1084.50
24,796.96,190.56,NA,1113.50,1045.50
26,797.27,195.41,NA,1153.00,1075.00
28,797.58,200.25,NA,1127.00,1065.50
30,797.88,205.09,NA,1099.00,1037.00
32,798.19,209.93,NA,1127.00,1045.00
34,798.50,214.77,NA,1131.00,1044.50
36,798.81,219.60,NA,1133.00,1035.50
38,799.12,224.43,NA,1202.50,1044.50
40,799.43,229.27,NA,1477.00,1074.00
42,799.74,234.09,NA,2470.50,1062.00
44,800.04,238.92,NA,4000.50,1106.00
46,800.35,243.75,NA,4554.50,1052.00
48,800.66,248.57,311.73,4592.00,1084.50
50,800.97,253.39,138.16,4468.50,1080.50
52,801.28,258.21,49.32,4366.00,1088.50
54,801.59,263.02,25.28,4293.50,1084.50
56,801.90,267.83,16.51,4259.50,1064.50
58,802.21,272.65,0.00,4216.00,1081.50
60,802.52,277.46,10.93,4219.00,1071.50
62,802.83,282.26,37.53,4294.50,1103.50
64,803.14,287.07,168.61,4420.00,1103.50
66,803.45,291.87,281.03,4532.50,1101.50
68,803.76,296.67,412.13,4674.50,1095.00
70,804.07,301.47,440.81,4659.50,1072.50
72,804.38,306.26,361.03,4561.50,1061.50
74,804.69,311.06,333.10,4491.50,1059.50
76,805.00,315.85,225.68,4352.50,1063.50
78,805.31,320.64,174.50,4254.00,1074.00
80,805.62,325.42,66.19,4119.50,1093.00
82,805.93,330.21,7.41,4037.50,1081.00
84,806.24,334.99,0.00,3931.00,1045.00
86,806.55,339.77,0.00,3928.50,1062.50
88,806.86,344.55,34.72,4054.50,1075.00
90,807.17,349.32,206.45,4216.00,1054.00
92,807.48,354.10,514.76,4666.50,1065.50
94,807.80,358.87,1045.72,5412.50,1100.50
96,808.11,363.63,1688.06,6289.00,1080.00
98,808.42,368.40,2562.62,7453.00,1063.00
100,808.73,373.16,3553.17,8613.50,1058.00
102,809.04,377.93,3941.64,8994.00,1036.50
104,809.35,382.68,3302.66,8316.50,1061.00
106,809.66,387.44,2412.46,7238.50,1057.00
108,809.98,392.19,1653.55,6176.50,1046.50
110,810.29,396.95,1288.77,5616.00,1078.00
112,810.60,401.70,1105.62,5300.00,1048.50
114,810.91,406.44,1146.47,5331.50,1056.00
116,811.22,411.19,1296.42,5566.00,1080.50
118,811.54,415.93,1666.56,6103.50,1072.00
120,811.85,420.67,2256.78,7087.00,1049.00
122,812.16,425.41,3440.38,9466.50,1051.00
124,812.47,430.14,6515.64,15302.50,1083.50
126,812.79,434.87,16034.78,27900.50,1067.50
128,813.10,439.60,28784.59,39836.50,1036.00
130,813.41,444.33,22778.67,34707.00,1065.50
132,813.72,449.06,9834.22,20366.00,1053.00
134,814.04,453.78,4360.62,11409.00,1065.50
136,814.35,458.50,2489.94,7523.00,1039.50
138,814.66,463.22,1598.37,5823.00,1032.00
140,814.98,467.93,1135.34,5044.50,1044.50
142,815.29,472.65,864.05,4614.50,1057.00
144,815.60,477.36,834.55,4506.00,1049.00
146,815.92,482.06,868.32,4537.50,1031.00
148,816.23,486.77,1139.88,4996.00,1063.00
150,816.54,491.47,1644.11,5768.00,1089.00
152,816.86,496.17,2489.80,6782.50,1036.00
154,817.17,500.87,3120.34,7467.00,1052.00
156,817.48,505.57,2760.20,7034.00,1043.50
158,817.80,510.26,1829.57,5864.50,1031.00
160,818.11,514.95,1174.40,4902.00,1057.00
162,818.42,519.64,819.34,4293.50,1063.50
164,818.74,524.32,654.06,4013.00,1049.00
166,819.05,529.00,752.30,4205.50,1072.00
168,819.37,533.68,1231.51,4856.50,1051.50
170,819.68,538.36,2058.34,5808.50,1062.00
172,819.99,543.04,2338.28,6077.00,1075.00
174,820.31,547.71,1588.45,5206.00,1054.50
176,820.62,552.38,920.82,4229.00,1028.50
178,820.94,557.05,506.56,3530.50,1038.50
180,821.25,561.71,289.78,3099.50,1017.00
182,821.57,566.37,186.93,2878.50,1031.50
184,821.88,571.03,142.69,2770.50,1041.00
186,822.20,575.69,78.89,2653.50,1057.00
188,822.51,580.34,7.88,2516.00,1037.00
190,822.83,584.99,0.00,2446.00,1055.00
192,823.14,589.64,0.00,2369.00,1044.00
194,823.46,594.29,0.00,2356.50,1052.00
196,823.77,598.93,0.00,2360.50,1048.00
198,824.09,603.57,8.74,2364.00,1023.50
200,824.40,608.21,88.87,2416.00,1042.50
202,824.72,612.85,71.85,2401.00,1064.00
204,825.03,617.48,23.21,2313.00,1047.50
206,825.35,622.11,0.83,2274.50,1076.00
208,825.66,626.74,12.84,2291.00,1060.00
210,825.98,631.36,173.74,2439.00,1039.00
212,826.29,635.99,260.31,2477.00,1050.00
214,826.61,640.61,50.48,2307.50,1050.50
216,826.92,645.22,0.00,2088.50,1032.50
218,827.24,649.84,0.00,2040.00,1011.50
220,827.56,654.45,0.00,2064.00,1065.50
222,827.87,659.06,8.85,2134.00,1069.00
224,828.19,663.67,81.57,2172.50,1040.00
226,828.50,668.27,108.66,2263.00,1106.00
228,828.82,672.87,104.72,2206.50,1061.00
230,829.13,677.47,89.19,2146.50,1041.00
232,829.45,682.06,37.62,2091.50,1052.00
234,829.77,686.66,1.07,2031.50,1063.50
236,830.08,691.25,0.00,1971.00,1048.50
238,830.40,695.83,0.00,1949.00,1037.00
240,830.72,700.42,0.00,1942.50,1038.00
242,831.03,705.00,0.00,1893.00,993.50
244,831.35,709.58,0.00,1961.00,1043.50
246,831.66,714.15,0.00,1927.50,1000.00
248,831.98,718.73,0.00,1982.00,1047.50
250,832.30,723.30,0.00,1944.50,1022.50
252,832.61,727.87,0.00,2009.00,1080.00
254,832.93,732.43,0.00,1976.50,987.50
256,833.25,736.99,2.41,2102.00,1058.50
258,833.56,741.55,0.00,2092.00,1032.00
260,833.88,746.11,7.26,2143.00,1023.00
262,834.20,750.66,10.20,2189.50,1040.50
264,834.51,755.22,55.05,2299.00,1045.50
266,834.83,759.76,123.24,2442.50,1053.00
268,835.15,764.31,222.61,2636.50,1054.00
270,835.47,768.85,317.67,2816.50,1027.50
272,835.78,773.39,497.46,3174.50,1030.00
274,836.10,777.93,803.61,3761.00,1036.00
276,836.42,782.46,1305.24,4719.00,1039.00
278,836.73,787.00,2139.11,6159.00,1027.00
280,837.05,791.52,3508.05,8150.50,1023.00
282,837.37,796.05,4560.76,9640.50,1061.00
284,837.69,800.57,4373.56,9620.50,1034.00
286,838.00,805.09,3786.46,9023.00,1036.00
288,838.32,809.61,3587.66,8755.00,1037.00
290,838.64,814.13,3774.56,9016.50,1072.00
292,838.95,818.64,4098.97,9742.00,1048.50
294,839.27,823.15,4675.29,11434.50,1037.00
296,839.59,827.65,7188.64,16094.50,1060.00
298,839.91,832.15,13061.76,24567.50,1040.00
300,840.22,836.65,17422.51,31542.00,1085.50
302,840.54,841.15,19829.50,35453.00,1034.00
304,840.86,845.65,22341.56,36978.50,1071.00
306,841.18,850.14,14940.57,27780.50,1069.50
308,841.50,854.63,6466.27,15925.50,1121.50
310,841.81,859.11,3439.01,9806.00,1041.00
312,842.13,863.60,2616.29,7649.50,1061.50
314,842.45,868.07,2442.62,7070.00,1030.50
316,842.77,872.55,2493.67,7176.50,1050.00
318,843.08,877.03,2851.17,7714.00,1079.50
320,843.40,881.50,3181.11,8002.00,1019.00
322,843.72,885.97,2968.45,7774.50,1061.50
324,844.04,890.43,2284.82,6900.50,1022.00
326,844.36,894.89,1972.69,6502.50,1031.50
328,844.67,899.35,2054.84,6668.50,1058.00
330,844.99,903.81,2578.14,7511.00,1024.50
332,845.31,908.26,3372.47,8826.50,1055.00
334,845.63,912.71,4371.01,10173.50,1046.50
336,845.95,917.16,4742.55,10691.50,1057.00
338,846.27,921.61,4024.78,10328.50,1440.50
340,846.58,926.05,3314.99,9051.50,1047.00
342,846.90,930.49,3334.16,8886.50,1053.50
344,847.22,934.92,3572.96,8911.00,1049.00
346,847.54,939.36,2973.43,8034.50,1006.50
348,847.86,943.79,2080.22,6795.00,1025.50
350,848.18,948.21,1457.49,5739.00,1015.00
352,848.49,952.64,980.46,4914.00,1026.50
354,848.81,957.06,557.91,4196.00,1003.00
356,849.13,961.48,308.45,3846.50,1073.00
358,849.45,965.89,130.57,3543.00,1058.00
360,849.77,970.31,12.59,3361.50,1030.50
362,850.09,974.71,0.00,3283.00,1043.50
364,850.40,979.12,0.00,3319.50,1064.50
366,850.72,983.52,0.05,3403.50,1077.50
368,851.04,987.92,36.80,3522.00,1022.00
370,851.36,992.32,234.61,3798.50,1020.00
372,851.68,996.72,439.00,4186.50,1042.50
374,852.00,1001.11,638.44,4535.50,1022.00
376,852.32,1005.50,868.24,4942.00,1007.50
378,852.63,1009.88,1065.14,5475.50,1077.00
380,852.95,1014.26,1506.63,6292.00,1049.50
382,853.27,1018.64,2317.23,7546.00,1069.50
384,853.59,1023.02,3178.29,8643.50,1037.00
386,853.91,1027.39,3291.33,8920.00,1018.00
388,854.23,1031.76,2692.44,8471.50,1029.00
390,854.55,1036.13,2706.17,8670.00,1035.00
392,854.87,1040.49,3731.28,9871.50,1023.00
394,855.18,1044.86,4416.64,10589.50,1043.50
396,855.50,1049.21,3541.28,9698.00,1044.50
398,855.82,1053.57,2705.84,8666.50,1056.00
400,856.14,1057.92,2577.48,8443.00,1031.00
402,856.46,1062.27,2853.98,9011.50,1034.00
404,856.78,1066.62,3879.93,10677.00,1011.00
406,857.10,1070.96,5585.27,13013.50,1021.00
408,857.42,1075.30,6745.13,14579.50,1064.00
410,857.74,1079.64,6198.62,14063.00,1031.50
412,858.06,1083.97,5076.20,12741.00,1028.50
414,858.37,1088.30,4437.74,11918.00,1012.00
416,858.69,1092.63,4675.44,12181.00,1016.00
418,859.01,1096.95,5724.46,13405.50,1019.00
420,859.33,1101.27,6125.21,14039.50,1047.50
422,859.65,1105.59,5774.64,13897.00,1037.00
424,859.97,1109.91,5755.00,14009.00,1019.00
426,860.29,1114.22,6246.79,14616.50,1030.00
428,860.61,1118.53,6731.94,15129.00,1014.00
430,860.93,1122.84,6612.18,14960.00,1031.00
432,861.25,1127.14,5919.57,14100.00,1066.50
434,861.56,1131.44,5090.25,13017.00,1024.50
436,861.88,1135.74,4860.36,12974.50,1028.00
438,862.20,1140.03,5711.30,14817.00,1047.50
440,862.52,1144.32,8360.10,19159.50,1043.00
442,862.84,1148.61,13238.69,25117.00,1051.00
444,863.16,1152.89,15689.90,27345.50,1036.00
446,863.48,1157.17,10707.57,21870.50,1039.00
448,863.80,1161.45,5310.44,14517.50,1038.50
450,864.12,1165.73,2993.40,10216.50,1055.00
452,864.44,1170.00,2223.79,8306.00,1022.50
454,864.76,1174.27,1819.96,7432.00,1044.00
456,865.07,1178.53,1376.98,6680.00,999.00
458,865.39,1182.80,1053.57,6165.50,1034.50
460,865.71,1187.06,767.65,5678.50,1034.00
462,866.03,1191.31,387.15,5139.50,1042.00
464,866.35,1195.57,152.07,4753.00,1016.00
466,866.67,1199.82,24.66,4617.50,1046.50
468,866.99,1204.06,0.00,4468.50,1037.00
470,867.31,1208.31,0.00,4462.50,1053.00
472,867.63,1212.55,0.00,4488.50,1032.00
474,867.95,1216.79,0.00,4525.00,1009.50
476,868.27,1221.02,0.00,4660.00,1033.50
478,868.58,1225.25,30.35,4854.50,1006.50
480,868.90,1229.48,226.15,5218.00,1043.00
482,869.22,1233.71,414.47,5562.00,1054.00
484,869.54,1237.93,693.44,6123.00,1062.50
486,869.86,1242.15,1138.37,6862.50,1034.00
488,870.18,1246.36,1741.23,7840.00,1009.50
490,870.50,1250.58,2513.77,9150.00,1045.50
492,870.82,1254.79,3338.73,10622.50,1086.00
494,871.14,1258.99,4331.17,12310.00,1050.00
496,871.46,1263.20,5646.67,14432.00,1049.00
498,871.78,1267.40,7301.18,16699.00,1027.50
500,872.10,1271.59,8377.11,17966.50,1020.00
502,872.41,1275.79,7721.40,17161.00,1020.00
504,872.73,1279.98,5984.54,15011.50,1044.50
506,873.05,1284.17,4462.01,12833.00,1055.00
508,873.37,1288.35,3613.61,11331.00,997.00
510,873.69,1292.53,3238.97,10617.00,1015.50
512,874.01,1296.71,3030.13,10184.50,1023.00
514,874.33,1300.88,2858.06,9841.00,1001.00
516,874.65,1305.06,2424.79,9294.50,1019.00
518,874.97,1309.22,2084.30,8849.00,1016.50
520,875.29,1313.39,2027.01,8771.00,1039.00
522,875.60,1317.55,2119.27,8839.50,1039.00
524,875.92,1321.71,2202.93,8922.00,1025.00
526,876.24,1325.87,2045.17,8790.00,1059.00
528,876.56,1330.02,1907.09,8596.00,1020.50
530,876.88,1334.17,1835.56,8553.00,1052.00
532,877.20,1338.32,1836.38,8545.50,1009.00
534,877.52,1342.46,1944.86,8704.50,1001.00
536,877.84,1346.60,2076.00,8921.00,1047.50
538,878.16,1350.73,2126.80,8990.50,1025.00
540,878.47,1354.87,2063.39,8973.50,1021.00
542,878.79,1359.00,2006.14,8985.50,1026.50
544,879.11,1363.13,2137.14,9222.00,1035.00
546,879.43,1367.25,2393.06,9547.50,1023.00
548,879.75,1371.37,2686.36,9924.50,1013.00
550,880.07,1375.49,2706.85,10057.50,1007.50
552,880.39,1379.60,2639.67,10097.50,1046.50
554,880.71,1383.71,2802.16,10287.00,1024.00
556,881.03,1387.82,2878.84,10424.00,1020.00
558,881.34,1391.93,2987.29,10601.50,991.50
560,881.66,1396.03,3088.93,10787.50,1012.00
562,881.98,1400.13,3172.87,10984.50,1035.00
564,882.30,1404.22,3242.94,11169.00,1035.00
566,882.62,1408.31,3552.13,11635.00,1008.50
568,882.94,1412.40,3945.76,12216.50,1039.00
570,883.26,1416.49,4281.99,12739.50,1023.50
572,883.57,1420.57,4515.10,13290.50,1048.50
574,883.89,1424.65,5028.61,14224.50,1019.00
576,884.21,1428.73,6032.52,15989.00,1052.50
578,884.53,1432.80,7730.90,18934.50,1074.00
580,884.85,1436.87,10691.05,23630.50,1020.00
582,885.17,1440.93,15532.60,30398.50,1009.50
584,885.49,1445.00,20806.46,37362.50,1009.50
586,885.80,1449.06,23687.86,41836.00,1018.00
588,886.12,1453.11,24682.35,43805.00,1069.50
590,886.44,1457.17,25410.99,44066.50,1048.50
592,886.76,1461.22,23599.05,41169.00,1040.00
594,887.08,1465.26,18339.30,34631.00,1059.00
596,887.40,1469.31,13800.81,28371.50,1009.50
598,887.71,1473.35,11156.86,24113.50,1014.00
600,888.03,1477.38,9532.64,21444.00,1046.50
602,888.35,1481.42,8640.17,20031.00,1062.00
604,888.67,1485.45,8446.44,19457.50,1045.50
606,888.99,1489.48,8600.69,19193.50,1014.00
608,889.31,1493.50,8048.02,18245.00,1047.50
610,889.62,1497.52,6328.44,16098.00,1041.50
612,889.94,1501.54,4617.57,13816.50,1003.00
614,890.26,1505.56,3584.43,12241.00,1015.00
616,890.58,1509.57,2932.63,11153.00,1029.50
618,890.90,1513.57,2468.71,10387.50,1013.00
620,891.21,1517.58,2068.90,9807.50,1024.00
622,891.53,1521.58,1754.89,9346.00,1021.00
624,891.85,1525.58,1562.84,9051.00,1024.50
626,892.17,1529.57,1246.91,8628.00,1042.00
628,892.49,1533.57,1058.91,8358.50,1036.00
630,892.80,1537.56,886.47,8072.50,1005.50
632,893.12,1541.54,693.91,7825.00,1012.00
634,893.44,1545.52,485.47,7584.00,1047.50
636,893.76,1549.50,384.40,7380.00,1001.50
638,894.07,1553.48,272.34,7290.50,1035.00
640,894.39,1557.45,108.15,7051.00,1020.50
642,894.71,1561.42,139.35,7038.00,1036.00
644,895.03,1565.39,104.93,6905.00,990.50
646,895.34,1569.35,13.67,6754.00,1037.50
648,895.66,1573.31,50.19,6713.50,1027.50
650,895.98,1577.26,6.06,6577.50,1019.00
652,896.30,1581.22,4.33,6496.00,1004.00
654,896.61,1585.17,0.00,6402.00,1025.00
656,896.93,1589.11,0.00,6350.50,1050.50
658,897.25,1593.06,0.00,6256.00,1013.50
660,897.57,1597.00,0.00,6185.50,1038.50
662,897.88,1600.93,0.08,6160.00,1026.00
664,898.20,1604.87,0.00,6062.00,1020.50
666,898.52,1608.80,0.00,6002.50,1008.00
668,898.84,1612.72,4.85,6007.50,992.50
670,899.15,1616.65,66.30,6063.00,1032.00
672,899.47,1620.57,137.42,6062.50,1005.50
674,899.79,1624.49,181.69,6087.50,1024.00
676,900.10,1628.40,215.75,6084.50,1011.00
678,900.42,1632.31,247.29,6102.50,1032.00
680,900.74,1636.22,233.21,6003.00,991.50
682,901.05,1640.12,279.17,6091.50,1072.00
684,901.37,1644.02,335.68,6056.50,1013.00
686,901.69,1647.92,369.81,6072.50,1030.00
688,902.00,1651.82,374.47,6007.00,1010.50
690,902.32,1655.71,398.36,5972.00,1003.00
692,902.64,1659.60,360.66,5880.00,1003.50
694,902.95,1663.48,329.34,5825.50,1029.50
696,903.27,1667.36,322.85,5752.00,1021.50
698,903.59,1671.24,352.60,5753.00,1041.50
700,903.90,1675.11,282.28,5626.50,1035.00
702,904.22,1678.99,283.67,5544.00,993.50
704,904.54,1682.85,314.82,5591.00,1073.00
706,904.85,1686.72,361.13,5521.00,998.00
708,905.17,1690.58,284.59,5418.50,1019.00
710,905.49,1694.44,331.71,5427.50,1018.00
712,905.80,1698.29,357.62,5404.00,1014.00
714,906.12,1702.15,374.02,5388.00,1027.50
716,906.43,1706.00,389.03,5348.50,1023.50
718,906.75,1709.84,393.14,5338.00,1049.00
720,907.07,1713.68,375.32,5232.50,1000.00
722,907.38,1717.52,356.30,5193.50,1021.00
724,907.70,1721.36,442.28,5248.50,1022.00
726,908.01,1725.19,485.81,5244.00,1019.00
728,908.33,1729.02,534.98,5239.50,1035.00
730,908.65,1732.85,508.14,5139.50,1019.00
732,908.96,1736.67,386.14,5014.00,1038.00
734,909.28,1740.49,291.39,4837.50,1014.00
736,909.59,1744.30,304.54,4794.00,1040.00
738,909.91,1748.12,334.32,4742.00,1015.00
740,910.22,1751.93,248.83,4613.50,1024.50
742,910.54,1755.73,257.77,4617.50,1086.50
744,910.85,1759.54,188.50,4449.50,1049.50
746,911.17,1763.34,71.39,4254.00,1013.00
748,911.49,1767.13,3.72,4126.00,1038.00
750,911.80,1770.93,1.45,4050.00,1003.00
752,912.12,1774.72,0.00,4001.50,1035.00
754,912.43,1778.50,0.00,3945.50,1004.00
756,912.75,1782.29,0.00,3888.50,1000.00
758,913.06,1786.07,0.00,3880.00,1012.50
760,913.38,1789.84,4.31,3862.00,1017.50
762,913.69,1793.62,28.46,3863.00,1031.00
764,914.01,1797.39,0.00,3771.50,1020.00
766,914.32,1801.15,9.92,3765.00,1013.50
768,914.64,1804.92,0.00,3708.00,1009.50
770,914.95,1808.68,0.00,3691.00,1027.50
772,915.26,1812.44,0.00,3672.00,1035.00
774,915.58,1816.19,25.86,3642.50,992.50
776,915.89,1819.94,28.17,3639.00,1019.00
778,916.21,1823.69,48.82,3655.00,1039.00
780,916.52,1827.43,16.86,3610.00,1057.00
782,916.84,1831.17,60.57,3569.50,989.50
784,917.15,1834.91,94.45,3566.50,997.00
786,917.47,1838.64,69.20,3567.50,1036.00
788,917.78,1842.38,76.39,3532.00,1018.00
790,918.09,1846.10,92.78,3501.50,1010.50
792,918.41,1849.83,75.23,3466.00,1020.00
794,918.72,1853.55,73.20,3406.00,984.50
796,919.04,1857.27,83.23,3418.50,1006.50
798,919.35,1860.98,122.48,3427.00,1001.50
800,919.66,1864.69,151.41,3430.50,1008.50
802,919.98,1868.40,163.43,3435.50,1022.00
804,920.29,1872.11,171.21,3407.00,1015.00
806,920.60,1875.81,189.50,3381.00,998.00
808,920.92,1879.51,180.66,3368.50,1017.00
810,921.23,1883.20,183.97,3366.50,1033.00
812,921.55,1886.90,215.03,3335.00,993.50
814,921.86,1890.58,193.98,3318.00,1039.50
816,922.17,1894.27,232.70,3325.50,1037.00
818,922.49,1897.95,206.36,3276.00,1035.00
820,922.80,1901.63,174.03,3195.50,1009.50
822,923.11,1905.31,162.72,3161.50,1020.00
824,923.42,1908.98,179.60,3155.00,1031.00
826,923.74,1912.65,167.24,3124.00,1034.50
828,924.05,1916.31,203.40,3123.50,1014.00
830,924.36,1919.98,208.37,3083.50,1007.50
832,924.68,1923.64,207.22,3046.50,1003.00
834,924.99,1927.29,172.51,2987.00,996.00
836,925.30,1930.94,179.47,2963.00,991.50
838,925.61,1934.59,188.44,2949.50,1007.50
840,925.93,1938.24,175.33,2920.00,1011.50
842,926.24,1941.88,159.72,2898.50,1022.00
844,926.55,1945.52,165.60,2848.50,1002.00
846,926.86,1949.16,144.72,2810.50,1016.00
848,927.18,1952.79,146.35,2776.00,1005.50
850,927.49,1956.42,161.24,2762.00,1003.00
852,927.80,1960.05,130.28,2805.50,1096.50
854,928.11,1963.67,141.38,2719.00,1027.00
856,928.42,1967.29,156.77,2707.50,1031.50
858,928.74,1970.91,121.09,2628.00,1012.50
860,929.05,1974.52,117.16,2600.00,1012.00
862,929.36,1978.13,130.50,2586.00,1005.50
864,929.67,1981.74,123.63,2565.00,1021.00
866,929.98,1985.35,134.14,2540.50,1010.50
868,930.29,1988.95,113.16,2508.00,1018.00
870,930.61,1992.54,130.81,2477.00,1002.00
872,930.92,1996.14,128.26,2452.00,1012.50
874,931.23,1999.73,110.93,2432.50,1025.50
876,931.54,2003.32,81.23,2379.00,1021.50
878,931.85,2006.90,70.08,2331.00,1015.00
880,932.16,2010.48,45.81,2264.50,1000.00
882,932.47,2014.06,52.94,2260.50,1009.50
884,932.78,2017.63,39.66,2236.00,1023.00
886,933.09,2021.21,22.35,2189.00,1020.00
888,933.41,2024.77,35.02,2181.00,1021.50
890,933.72,2028.34,19.68,2174.00,1055.00
892,934.03,2031.90,25.29,2119.00,1019.00
894,934.34,2035.46,4.92,2104.50,1040.00
896,934.65,2039.01,0.00,2032.00,1003.50
898,934.96,2042.57,11.49,2061.00,1036.00
900,935.27,2046.11,19.49,2060.00,1059.50
902,935.58,2049.66,9.88,1959.50,982.00
904,935.89,2053.20,1.26,1969.00,1018.00
906,936.20,2056.74,0.00,1925.50,1019.00
908,936.51,2060.28,18.17,1940.00,1018.00
910,936.82,2063.81,12.88,1922.50,1024.50
912,937.13,2067.34,0.00,1883.00,1025.50
914,937.44,2070.86,12.59,1870.50,1008.50
916,937.75,2074.39,19.40,1852.00,994.00
918,938.06,2077.91,21.07,1862.00,1012.50
920,938.37,2081.42,62.35,1882.00,1020.50
922,938.68,2084.94,69.38,1847.50,1005.00
924,938.99,2088.45,45.11,1823.00,1012.00
926,939.30,2091.95,24.81,1817.50,1038.00
928,939.60,2095.46,11.83,1763.00,1010.50
930,939.91,2098.96,7.43,1778.50,1047.50
932,940.22,2102.45,0.00,1724.50,1025.50
934,940.53,2105.95,1.26,1697.00,1005.00
936,940.84,2109.44,0.00,1684.00,1015.00
938,941.15,2112.92,7.30,1695.00,1022.00
940,941.46,2116.41,39.37,1679.50,1004.00
942,941.77,2119.89,4.63,1673.00,1024.50
944,942.07,2123.37,0.00,1628.50,1025.50
946,942.38,2126.84,0.00,1635.00,1030.00
948,942.69,2130.31,0.28,1635.00,1030.00
950,943.00,2133.78,1.42,1608.50,1008.00
952,943.31,2137.24,3.48,1615.00,1021.00
954,943.62,2140.70,0.00,1608.00,1033.00
956,943.92,2144.16,0.00,1584.50,1022.00
958,944.23,2147.62,0.00,1589.50,1020.00
960,944.54,2151.07,0.00,1609.00,1050.50
962,944.85,2154.52,14.00,1643.50,1054.00
964,945.16,2157.96,41.85,1624.50,1033.00
966,945.46,2161.40,17.60,1618.00,1043.00
968,945.77,2164.84,42.40,1581.00,982.00
970,946.08,2168.28,42.94,1616.00,1023.00
972,946.39,2171.71,46.09,1610.00,1016.00
974,946.69,2175.14,49.55,1611.50,1017.00
976,947.00,2178.57,96.02,1636.00,1002.00
978,947.31,2181.99,115.90,1644.50,998.00
980,947.61,2185.41,140.96,1689.00,1023.50
982,947.92,2188.82,161.07,1714.50,1034.00
984,948.23,2192.24,175.29,1687.50,997.00
986,948.53,2195.65,223.49,1740.50,1014.00
988,948.84,2199.05,205.03,1675.00,972.50
990,949.15,2202.46,206.07,1729.00,1022.00
992,949.45,2205.86,199.73,1719.50,1014.00
994,949.76,2209.25,204.45,1698.50,995.00
996,950.07,2212.65,244.44,1741.00,1012.00
998,950.37,2216.04,228.01,1708.00,997.00
1000,950.68,2219.43,240.16,1746.00,1024.00
1002,950.98,2222.81,262.12,1769.50,1030.50
1004,951.29,2226.19,301.60,1769.50,1003.00
1006,951.60,2229.57,298.15,1751.00,992.00
1008,951.90,2232.94,344.76,1782.50,989.50
1010,952.21,2236.32,360.19,1801.00,1007.50
1012,952.51,2239.68,342.52,1808.00,1028.50
1014,952.82,2243.05,310.85,1740.50,981.50
1016,953.12,2246.41,319.54,1808.50,1046.50
1018,953.43,2249.77,326.09,1829.50,1069.00
1020,953.73,2253.12,322.57,1790.00,1034.50
1022,954.04,2256.48,323.77,1737.50,986.50
1024,954.34,2259.83,361.09,1807.00,1038.00
1026,954.65,2263.17,353.10,1763.00,1006.00
1028,954.95,2266.51,315.95,1752.00,1020.00
1030,955.26,2269.85,314.55,1778.50,1045.50
1032,955.56,2273.19,298.49,1739.50,1024.00
1034,955.87,2276.52,346.34,1775.50,1026.50
1036,956.17,2279.85,362.69,1805.00,1049.50
1038,956.48,2283.18,421.45,1782.00,989.50
1040,956.78,2286.50,442.40,1803.50,1003.00
1042,957.08,2289.82,455.89,1797.50,989.00
1044,957.39,2293.14,466.99,1826.50,1012.00
1046,957.69,2296.45,406.75,1765.00,996.00
1048,957.99,2299.76,394.25,1799.00,1041.50
1050,958.30,2303.07,350.75,1742.50,1028.50
1052,958.60,2306.38,337.36,1710.00,1014.00
1054,958.91,2309.68,306.50,1684.00,1016.00
1056,959.21,2312.98,254.03,1635.00,1003.00
1058,959.51,2316.27,214.73,1615.00,1015.50
1060,959.82,2319.56,260.14,1662.50,1045.00
1062,960.12,2322.85,246.00,1600.50,1003.50
1064,960.42,2326.14,210.32,1568.00,997.00
1066,960.72,2329.42,163.43,1555.00,1020.50
1068,961.03,2332.70,137.81,1534.50,1016.00
1070,961.33,2335.97,65.75,1489.50,1029.50
1072,961.63,2339.25,71.03,1462.00,1004.00
1074,961.93,2342.52,65.41,1452.50,1009.50
1076,962.24,2345.78,66.30,1447.50,1006.50
1078,962.54,2349.05,12.23,1413.50,1012.00
1080,962.84,2352.31,2.65,1411.00,1019.50
1082,963.14,2355.56,0.00,1387.00,1004.50
1084,963.45,2358.82,0.00,1394.00,1015.00
1086,963.75,2362.07,16.97,1417.50,1024.00
1088,964.05,2365.32,1.14,1436.00,1055.50
1090,964.35,2368.56,15.11,1410.00,1017.00
1092,964.65,2371.80,13.80,1424.50,1035.00
1094,964.95,2375.04,31.65,1411.00,1010.50
1096,965.25,2378.27,0.00,1388.50,1008.50
1098,965.56,2381.51,20.99,1418.00,1020.00
1100,965.86,2384.73,2.56,1412.00,1024.50
1102,966.16,2387.96,0.00,1393.00,1011.00
1104,966.46,2391.18,21.91,1444.50,1043.00
1106,966.76,2394.40,0.32,1401.50,1011.50
1108,967.06,2397.62,0.00,1418.50,1038.00
1110,967.36,2400.83,0.00,1406.50,1012.00
1112,967.66,2404.04,11.17,1450.50,1043.50
1114,967.96,2407.25,0.00,1390.00,990.50
1116,968.26,2410.45,0.00,1423.50,1019.00
1118,968.56,2413.65,10.90,1417.00,997.00
1120,968.86,2416.85,7.29,1474.00,1057.00
1122,969.16,2420.04,0.00,1437.00,1023.00
1124,969.46,2423.23,24.51,1448.00,1002.00
1126,969.76,2426.42,58.32,1482.00,1022.00
1128,970.06,2429.60,34.61,1443.50,996.00
1130,970.36,2432.79,40.31,1466.00,1009.50
1132,970.66,2435.96,0.00,1451.00,1015.00
1134,970.96,2439.14,0.61,1448.00,1006.00
1136,971.26,2442.31,0.00,1485.00,1042.00
1138,971.56,2445.48,18.08,1485.00,1018.00
1140,971.86,2448.65,42.82,1482.00,1006.50
1142,972.16,2451.81,82.42,1517.50,1022.50
1144,972.45,2454.97,35.38,1506.00,1015.50
1146,972.75,2458.13,2.45,1488.50,1018.00
1148,973.05,2461.28,0.00,1469.00,1006.00
1150,973.35,2464.43,5.34,1504.00,1025.50
1152,973.65,2467.58,0.00,1486.00,1021.00
1154,973.95,2470.72,0.00,1495.50,1014.00
1156,974.24,2473.86,0.00,1492.50,1016.00
1158,974.54,2477.00,5.42,1505.00,994.50
1160,974.84,2480.13,0.00,1540.00,1032.00
1162,975.14,2483.27,20.83,1552.50,1013.50
1164,975.43,2486.40,0.00,1531.50,1001.00
1166,975.73,2489.52,45.97,1585.00,1011.00
1168,976.03,2492.64,12.37,1578.00,1009.50
1170,976.33,2495.76,35.15,1618.00,1026.00
1172,976.62,2498.88,59.22,1615.00,998.00
1174,976.92,2501.99,7.82,1628.50,1029.00
1176,977.22,2505.10,32.81,1643.50,1017.00
1178,977.51,2508.21,3.29,1640.00,1018.00
1180,977.81,2511.31,3.29,1654.00,1018.00
1182,978.11,2514.41,3.15,1662.50,1018.00
1184,978.40,2517.51,69.86,1722.00,1017.00
1186,978.70,2520.61,156.35,1770.50,1015.00
1188,979.00,2523.70,206.16,1830.00,1040.00
1190,979.29,2526.79,282.24,1856.00,1009.50
1192,979.59,2529.87,337.44,1915.50,1025.50
1194,979.88,2532.95,381.06,1925.50,1007.50
1196,980.18,2536.03,463.97,1998.50,1030.50
1198,980.48,2539.11,406.20,1997.00,1049.50
1200,980.77,2542.18,412.14,1976.00,1014.00
1202,981.07,2545.25,364.18,1990.00,1040.00
1204,981.36,2548.32,265.68,1924.50,1015.00
1206,981.66,2551.38,261.13,1958.50,1045.50
1208,981.95,2554.44,220.68,1917.00,1023.00
1210,982.25,2557.50,189.28,1936.00,1048.00
1212,982.54,2560.56,133.19,1918.50,1051.50
1214,982.84,2563.61,108.11,1912.00,1055.00
1216,983.13,2566.66,130.56,1924.50,1045.50
1218,983.43,2569.70,62.85,1897.50,1038.00
1220,983.72,2572.74,49.98,1904.50,1042.00
1222,984.01,2575.78,71.32,1909.50,1027.50
1224,984.31,2578.82,101.69,1923.00,1016.50
1226,984.60,2581.85,138.47,1974.00,1040.00
1228,984.90,2584.88,248.71,2000.50,1003.00
1230,985.19,2587.91,372.82,2084.00,1022.50
1232,985.48,2590.93,507.46,2169.50,1040.00
1234,985.78,2593.96,577.20,2201.00,1029.50
1236,986.07,2596.97,634.75,2243.50,1029.50
1238,986.36,2599.99,678.59,2305.50,1063.50
1240,986.66,2603.00,697.51,2306.50,1053.50
1242,986.95,2606.01,691.30,2314.00,1057.00
1244,987.24,2609.01,684.83,2310.50,1051.00
1246,987.54,2612.02,719.96,2264.00,987.00
1248,987.83,2615.02,663.32,2300.50,1043.00
1250,988.12,2618.01,575.17,2276.50,1049.50
1252,988.41,2621.01,522.29,2238.00,1031.00
1254,988.71,2624.00,507.38,2214.00,1014.00
1256,989.00,2626.99,455.45,2218.50,1046.50
1258,989.29,2629.97,446.66,2207.50,1034.00
1260,989.58,2632.95,315.97,2175.00,1046.50
1262,989.87,2635.93,199.01,2140.00,1061.50
1264,990.16,2638.91,211.03,2101.00,1018.00
1266,990.46,2641.88,215.93,2125.00,1043.50
1268,990.75,2644.85,222.69,2162.00,1078.00
1270,991.04,2647.81,97.17,2084.00,1037.00
1272,991.33,2650.78,14.29,2070.00,1040.00
1274,991.62,2653.74,0.00,2012.00,1040.00
1276,991.91,2656.70,0.00,2002.00,1029.00
1278,992.20,2659.65,0.00,2067.00,1046.00
1280,992.49,2662.60,0.00,2037.00,1024.00
1282,992.78,2665.55,0.00,2095.50,1067.00
1284,993.07,2668.50,0.00,2127.50,1066.50
1286,993.36,2671.44,0.00,2136.00,1051.50
1288,993.65,2674.38,0.00,2236.00,1050.50
1290,993.94,2677.31,0.00,2364.00,1038.50
1292,994.23,2680.25,0.32,2515.00,1042.50
1294,994.52,2683.18,77.11,2839.50,1041.00
1296,994.81,2686.10,830.90,3357.00,1047.50
1298,995.10,2689.03,2941.10,4086.00,1046.00
1300,995.39,2691.95,5295.46,4748.50,1036.00
1302,995.68,2694.87,5637.32,5022.50,1073.50
1304,995.97,2697.78,4076.46,4779.00,1066.50
1306,996.26,2700.70,2845.94,4463.50,1012.00
1308,996.55,2703.61,2368.58,4342.00,1032.50
1310,996.84,2706.51,2328.76,4336.50,1054.00
1312,997.13,2709.42,2162.21,4316.50,1054.00
1314,997.41,2712.32,1551.16,4210.00,1063.00
1316,997.70,2715.21,1190.19,4174.50,1040.00
1318,997.99,2718.11,1125.02,4270.00,1038.00
1320,998.28,2721.00,1304.22,4448.50,1030.50
1322,998.57,2723.89,1948.88,4818.50,1074.00
1324,998.86,2726.77,3464.17,5301.00,1028.50
1326,999.14,2729.66,5152.44,5769.00,1046.50
1328,999.43,2732.54,5312.52,5828.00,1043.50
1330,999.72,2735.41,3814.73,5558.50,1037.00
1332,1000.01,2738.29,1712.88,5090.50,1064.50
1334,1000.29,2741.16,613.40,4773.00,1045.00
1336,1000.58,2744.03,175.43,4568.00,1018.00
1338,1000.87,2746.89,151.47,4631.50,1057.00
1340,1001.15,2749.75,348.45,4697.00,1034.00
1342,1001.44,2752.61,832.95,4863.50,1045.50
1344,1001.73,2755.47,245.37,4811.00,1030.50
1346,1002.01,2758.32,30.84,4829.50,1041.50
1348,1002.30,2761.17,6.89,4902.00,1069.50
1350,1002.59,2764.02,15.15,4969.50,1063.50
1352,1002.87,2766.86,192.05,5139.50,1037.00
1354,1003.16,2769.70,885.20,5398.00,1018.50
1356,1003.44,2772.54,1986.83,5660.50,1020.00
1358,1003.73,2775.38,2619.43,5833.50,1054.00
1360,1004.01,2778.21,2217.78,5821.50,1010.50
1362,1004.30,2781.04,799.62,5623.50,1037.00
1364,1004.58,2783.87,186.57,5446.00,1034.00
1366,1004.87,2786.69,160.00,5448.00,1010.00
1368,1005.15,2789.51,601.46,5748.50,1046.50
1370,1005.44,2792.33,1914.00,6254.00,1070.00
1372,1005.72,2795.14,4670.81,7089.00,1056.00
1374,1006.01,2797.95,8577.08,8167.50,1062.00
1376,1006.29,2800.76,13207.39,9339.00,1035.00
1378,1006.58,2803.57,16723.58,10299.50,1083.50
1380,1006.86,2806.37,18121.93,10626.00,1028.50
1382,1007.14,2809.17,18629.33,10721.50,1047.50
1384,1007.43,2811.97,17719.08,10373.50,1030.50
1386,1007.71,2814.77,14505.61,9523.00,1029.50
1388,1008.00,2817.56,10709.37,8523.50,1034.00
1390,1008.28,2820.35,8024.66,7731.50,1060.00
1392,1008.56,2823.13,6793.17,7237.50,1035.00
1394,1008.85,2825.91,6299.44,7006.00,1053.50
1396,1009.13,2828.69,6450.23,6971.50,1045.00
1398,1009.41,2831.47,7500.67,7250.50,1056.00
1400,1009.69,2834.24,8865.06,7584.00,1019.00
1402,1009.98,2837.02,10867.50,8190.50,1047.50
1404,1010.26,2839.78,13592.42,9013.50,1065.50
1406,1010.54,2842.55,17255.45,10059.00,1009.50
1408,1010.82,2845.31,21560.70,11363.50,1048.50
1410,1011.11,2848.07,28171.23,13209.00,1060.00
1412,1011.39,2850.83,35828.42,15168.00,1069.00
1414,1011.67,2853.58,44458.27,17310.50,1056.00
1416,1011.95,2856.33,52205.72,19355.00,1048.50
1418,1012.23,2859.08,57724.16,21031.00,1051.00
1420,1012.51,2861.83,63432.68,22746.00,1034.00
1422,1012.80,2864.57,71541.52,24798.50,1093.00
1424,1013.08,2867.31,82032.27,26873.50,1083.50
1426,1013.36,2870.04,90778.27,28334.00,1072.00
1428,1013.64,2872.78,91817.86,28278.00,1056.00
1430,1013.92,2875.51,85045.91,26841.50,1099.50
1432,1014.20,2878.24,74602.30,24469.50,1054.00
1434,1014.48,2880.96,65022.67,22101.00,1042.00
1436,1014.76,2883.68,58152.41,20201.00,1041.00
1438,1015.04,2886.40,53193.59,18713.50,1033.50
1440,1015.32,2889.12,49863.45,17726.50,1062.00
1442,1015.60,2891.83,47828.70,17010.50,1038.00
1444,1015.88,2894.54,48282.39,16881.00,1069.00
1446,1016.16,2897.25,50659.17,17041.00,1010.00
1448,1016.44,2899.96,52540.76,17229.50,1065.50
1450,1016.72,2902.66,52920.21,17209.50,1052.00
1452,1017.00,2905.36,50258.43,16698.50,1080.00
1454,1017.28,2908.06,49071.31,16484.50,1041.00
1456,1017.55,2910.75,49141.07,16514.00,1060.50
1458,1017.83,2913.44,51907.42,17137.50,1038.00
1460,1018.11,2916.13,55941.11,18168.50,1057.00
1462,1018.39,2918.81,63228.32,20003.00,1062.00
1464,1018.67,2921.49,74041.29,22486.50,1052.50
1466,1018.95,2924.17,90621.66,25894.50,1055.00
1468,1019.22,2926.85,111555.07,29773.00,1074.00
1470,1019.50,2929.52,130752.56,33056.00,1036.00
1472,1019.78,2932.20,139945.82,34538.00,1033.00
1474,1020.06,2934.86,139326.97,34254.50,1041.00
1476,1020.33,2937.53,131776.62,32697.50,1076.00
1478,1020.61,2940.19,116111.40,29574.50,1069.50
1480,1020.89,2942.85,97986.46,26010.00,1069.00
1482,1021.17,2945.51,81154.74,22445.00,1051.50
1484,1021.44,2948.16,69579.70,19678.00,1049.50
1486,1021.72,2950.81,62131.52,17641.50,1058.00
1488,1022.00,2953.46,56562.79,16105.50,1080.50
1490,1022.27,2956.11,51110.93,14743.50,1052.00
1492,1022.55,2958.75,46340.17,13719.50,1062.00
1494,1022.82,2961.39,42557.84,12915.50,1054.00
1496,1023.10,2964.03,41372.27,12638.50,1078.00
1498,1023.38,2966.66,42902.24,12788.50,1042.00
1500,1023.65,2969.29,45737.76,13164.00,1071.50
1502,1023.93,2971.92,50698.53,13835.50,1072.50
1504,1024.20,2974.55,55701.36,14463.00,1073.00
1506,1024.48,2977.17,58587.72,14741.00,1065.50
1508,1024.75,2979.79,57752.48,14427.00,1042.00
1510,1025.03,2982.41,53832.86,13670.00,1044.50
1512,1025.30,2985.02,48056.14,12603.00,1028.50
1514,1025.58,2987.63,40804.57,11304.50,1060.00
1516,1025.85,2990.24,34260.91,10028.00,1025.50
1518,1026.13,2992.85,28646.83,8923.00,1061.00
1520,1026.40,2995.45,24499.20,8023.50,1061.50
1522,1026.68,2998.05,20561.53,7157.50,1046.50
1524,1026.95,3000.65,17534.25,6526.00,1062.00
1526,1027.22,3003.25,14549.01,5884.00,1040.50
1528,1027.50,3005.84,12059.23,5377.00,1041.50
1530,1027.77,3008.43,9737.49,4925.00,1049.00
1532,1028.04,3011.02,7638.79,4516.00,1056.00
1534,1028.32,3013.60,5953.25,4157.00,1047.50
1536,1028.59,3016.18,4667.19,3883.50,1053.00
1538,1028.86,3018.76,3631.82,3634.00,1012.50
1540,1029.14,3021.34,2132.78,3393.00,1046.50
1542,1029.41,3023.91,1243.48,3193.50,1023.50
1544,1029.68,3026.48,424.66,3007.00,1031.50
1546,1029.95,3029.05,76.70,2872.00,1045.50
1548,1030.22,3031.61,0.12,2703.00,1033.50
1550,1030.50,3034.17,0.00,2602.00,1031.00
1552,1030.77,3036.73,0.00,2502.00,1042.00
1554,1031.04,3039.29,0.00,2430.50,1058.00
1556,1031.31,3041.84,0.00,2295.50,1019.00
1558,1031.58,3044.39,0.00,2291.00,1083.50
1560,1031.85,3046.94,0.00,2230.00,1060.50
1562,1032.13,3049.49,0.00,2128.00,1026.50
1564,1032.40,3052.03,9.68,2122.00,1057.00
1566,1032.67,3054.57,0.00,2035.50,1032.00
1568,1032.94,3057.11,0.00,2030.50,1085.50
1570,1033.21,3059.64,0.00,1921.00,1016.00
1572,1033.48,3062.18,0.00,1920.00,1070.00
1574,1033.75,3064.70,36.04,1912.50,1061.00
1576,1034.02,3067.23,87.86,1878.00,1057.00
1578,1034.29,3069.75,28.65,1800.50,1015.50
1580,1034.56,3072.28,0.00,1801.00,1055.00
1582,1034.83,3074.79,214.87,1753.50,1000.00
1584,1035.10,3077.31,0.00,1751.00,1054.00
1586,1035.37,3079.82,1.82,1711.00,1034.00
1588,1035.64,3082.33,0.00,1710.00,1085.50
1590,1035.91,3084.84,28.49,1699.50,1060.00
1592,1036.17,3087.34,0.00,1651.00,1041.50
1594,1036.44,3089.85,0.00,1664.50,1082.00
1596,1036.71,3092.35,132.37,1631.00,1032.00
1598,1036.98,3094.84,0.00,1568.50,1019.00
1600,1037.25,3097.34,0.00,1574.00,1028.50
1602,1037.52,3099.83,88.85,1581.00,1036.00
1604,1037.78,3102.32,219.78,1582.00,1040.00
1606,1038.05,3104.80,96.70,1583.50,1066.50
1608,1038.32,3107.29,21.95,1543.00,1047.50
1610,1038.59,3109.77,126.91,1533.50,1036.00
1612,1038.85,3112.24,50.16,1506.00,1034.00
1614,1039.12,3114.72,100.26,1523.00,1057.00
1616,1039.39,3117.19,7.35,1450.00,1007.50
1618,1039.66,3119.66,15.18,1494.50,1061.00
1620,1039.92,3122.13,0.00,1483.50,1066.50
1622,1040.19,3124.59,0.00,1462.00,1054.00
1624,1040.45,3127.05,0.00,1418.50,1032.50
1626,1040.72,3129.51,0.00,1450.50,1057.50
1628,1040.99,3131.97,0.00,1455.50,1065.50
1630,1041.25,3134.42,0.00,1457.00,1073.00
1632,1041.52,3136.87,0.00,1408.00,1028.50
1634,1041.78,3139.32,0.00,1424.00,1054.00
1636,1042.05,3141.77,68.63,1511.00,1132.50
1638,1042.32,3144.21,116.82,1417.50,1038.50
1640,1042.58,3146.65,122.95,1454.00,1075.00
1642,1042.85,3149.09,239.81,1437.50,1048.50
1644,1043.11,3151.52,316.63,1433.00,1048.50
1646,1043.38,3153.96,254.51,1431.00,1058.00
1648,1043.64,3156.39,167.08,1405.50,1039.00
1650,1043.90,3158.81,164.40,1419.50,1050.50
1652,1044.17,3161.24,199.89,1430.00,1062.00
1654,1044.43,3163.66,504.98,1412.00,1022.00
1656,1044.70,3166.08,600.54,1474.50,1086.00
1658,1044.96,3168.49,576.26,1435.00,1050.50
1660,1045.22,3170.91,471.89,1422.50,1047.50
1662,1045.49,3173.32,456.10,1426.00,1054.00
1664,1045.75,3175.73,497.58,1435.00,1063.00
1666,1046.01,3178.13,749.06,1439.50,1046.00
1668,1046.28,3180.54,745.84,1464.00,1074.00
1670,1046.54,3182.94,851.92,1474.50,1079.50
1672,1046.80,3185.34,1157.94,1462.50,1045.50
1674,1047.07,3187.73,1078.19,1438.50,1033.00
1676,1047.33,3190.12,1313.77,1475.50,1049.50
1678,1047.59,3192.51,1238.08,1476.50,1061.00
1680,1047.85,3194.90,1363.13,1514.50,1092.00
1682,1048.11,3197.29,1446.17,1500.50,1076.00
1684,1048.38,3199.67,1639.28,1494.50,1057.00
1686,1048.64,3202.05,1564.83,1513.50,1084.50
1688,1048.90,3204.43,1708.05,1491.00,1050.50
1690,1049.16,3206.80,1549.50,1467.00,1047.00
1692,1049.42,3209.17,1967.64,1515.50,1068.50
1694,1049.68,3211.54,1930.77,1479.50,1042.50
1696,1049.94,3213.91,2097.33,1506.00,1054.00
1698,1050.20,3216.27,1987.63,1508.50,1063.50
1700,1050.46,3218.63,1964.95,1528.00,1090.00
1702,1050.72,3220.99,2213.45,1511.50,1062.50
1704,1050.98,3223.35,2426.74,1530.50,1070.50
1706,1051.24,3225.70,2140.88,1484.00,1050.00
1708,1051.50,3228.05,2494.33,1485.00,1026.50
1710,1051.76,3230.40,2204.15,1523.00,1094.00
1712,1052.02,3232.75,2564.84,1509.50,1056.00
1714,1052.28,3235.09,2292.47,1513.50,1083.50
1716,1052.54,3237.43,2532.86,1496.50,1049.50
1718,1052.80,3239.77,2413.94,1480.50,1047.50
1720,1053.06,3242.11,2722.45,1503.00,1053.00
1722,1053.32,3244.44,2698.34,1469.00,1028.50
1724,1053.58,3246.77,2841.42,1537.50,1092.00
1726,1053.84,3249.10,2595.81,1484.00,1059.50
1728,1054.10,3251.42,2527.43,1485.00,1067.00
1730,1054.35,3253.75,2710.41,1470.50,1041.00
1732,1054.61,3256.07,2461.57,1486.00,1079.00
1734,1054.87,3258.39,2816.28,1488.00,1061.00
1736,1055.13,3260.70,2496.17,1451.50,1054.00
1738,1055.38,3263.01,2798.91,1464.00,1051.00
1740,1055.64,3265.32,3097.40,1482.00,1052.00
1742,1055.90,3267.63,2741.89,1434.50,1031.50
1744,1056.16,3269.94,2933.53,1493.50,1080.50
1746,1056.41,3272.24,2602.75,1479.50,1092.00
1748,1056.67,3274.54,2471.67,1442.50,1067.00
1750,1056.93,3276.84,2674.44,1454.00,1070.00
1752,1057.18,3279.13,2976.98,1445.00,1046.50
1754,1057.44,3281.42,2748.79,1416.00,1036.00
1756,1057.69,3283.71,2942.05,1441.50,1053.00
1758,1057.95,3286.00,2951.90,1458.50,1075.00
1760,1058.21,3288.28,2851.73,1427.50,1055.00
1762,1058.46,3290.57,2721.64,1447.00,1085.50
1764,1058.72,3292.85,2896.91,1434.00,1063.50
1766,1058.97,3295.12,2522.81,1386.00,1040.50
1768,1059.23,3297.40,2474.00,1394.00,1055.00
1770,1059.48,3299.67,3059.33,1432.00,1063.00
1772,1059.74,3301.94,2737.40,1371.00,1026.50
1774,1059.99,3304.21,2953.02,1421.50,1069.00
1776,1060.25,3306.47,3174.62,1444.00,1083.50
1778,1060.50,3308.73,3051.90,1395.00,1043.00
1780,1060.76,3310.99,2494.68,1369.00,1047.50
1782,1061.01,3313.25,2351.56,1373.00,1061.00
1784,1061.26,3315.50,2532.61,1369.00,1053.50
1786,1061.52,3317.76,2870.53,1398.50,1073.50
1788,1061.77,3320.01,2996.46,1400.50,1074.00
1790,1062.02,3322.25,2643.36,1355.00,1047.50
1792,1062.28,3324.50,2675.12,1371.00,1061.00
1794,1062.53,3326.74,2518.85,1336.00,1036.00
1796,1062.78,3328.98,2683.00,1367.00,1062.00
1798,1063.04,3331.22,2673.57,1352.50,1052.50
1800,1063.29,3333.45,2593.60,1340.00,1048.50
1802,1063.54,3335.68,2769.91,1345.50,1049.50
1804,1063.79,3337.91,2726.34,1360.50,1070.50
1806,1064.05,3340.14,2851.21,1389.00,1095.00
1808,1064.30,3342.36,2713.76,1321.50,1036.00
1810,1064.55,3344.59,2788.49,1350.50,1064.00
1812,1064.80,3346.81,2572.75,1321.50,1049.00
1814,1065.05,3349.02,2597.10,1315.50,1044.50
1816,1065.30,3351.24,2346.03,1339.50,1082.50
1818,1065.55,3353.45,2645.85,1323.50,1055.00
1820,1065.81,3355.66,2477.86,1359.50,1102.50
1822,1066.06,3357.87,2434.41,1309.50,1057.00
1824,1066.31,3360.07,2511.47,1286.50,1032.00
1826,1066.56,3362.27,2430.90,1316.00,1067.50
1828,1066.81,3364.47,2450.74,1283.50,1037.50
1830,1067.06,3366.67,2840.46,1309.50,1050.00
1832,1067.31,3368.87,2615.07,1289.50,1043.50
1834,1067.56,3371.06,2985.42,1272.50,1013.00
1836,1067.81,3373.25,2293.09,1258.50,1029.50
1838,1068.06,3375.44,2375.25,1269.50,1037.00
1840,1068.31,3377.62,2242.50,1264.50,1040.00
1842,1068.56,3379.81,2287.74,1253.00,1032.00
1844,1068.80,3381.99,3169.34,1328.50,1078.00
1846,1069.05,3384.16,2779.52,1292.50,1060.00
1848,1069.30,3386.34,2869.08,1274.50,1037.00
1850,1069.55,3388.51,2341.81,1260.00,1043.00
1852,1069.80,3390.68,2194.67,1269.50,1061.00
1854,1070.05,3392.85,2569.64,1320.00,1100.50
1856,1070.30,3395.02,2379.61,1274.00,1064.00
1858,1070.54,3397.18,2020.38,1224.00,1029.50
1860,1070.79,3399.34,2527.65,1260.00,1050.00
1862,1071.04,3401.50,2803.95,1256.50,1041.50
1864,1071.29,3403.66,2606.48,1226.50,1020.00
1866,1071.53,3405.81,2090.95,1247.00,1058.00
1868,1071.78,3407.96,2157.55,1241.00,1049.50
1870,1072.03,3410.11,2309.96,1252.50,1058.50
1872,1072.27,3412.26,2577.12,1260.00,1061.00
1874,1072.52,3414.40,2771.18,1241.00,1039.00
1876,1072.77,3416.54,2569.62,1226.00,1033.00
1878,1073.01,3418.68,2817.92,1261.00,1060.00
1880,1073.26,3420.82,2320.44,1191.50,1007.50
1882,1073.51,3422.96,2398.72,1249.50,1063.00
1884,1073.75,3425.09,2411.30,1232.50,1048.50
1886,1074.00,3427.22,2994.99,1216.50,1019.00
1888,1074.24,3429.35,2568.23,1259.00,1081.00
1890,1074.49,3431.47,3269.64,1230.00,1031.50
1892,1074.73,3433.59,2201.32,1192.00,1024.00
1894,1074.98,3435.71,2265.53,1248.00,1075.00
1896,1075.22,3437.83,1450.94,1193.50,1050.00
1898,1075.47,3439.95,2632.76,1231.50,1053.50
1900,1075.71,3442.06,2436.26,1238.00,1071.00
1902,1075.96,3444.17,2446.64,1217.50,1052.50
1904,1076.20,3446.28,2529.43,1150.00,984.00
1906,1076.44,3448.38,2603.29,1244.50,1078.00
1908,1076.69,3450.49,2502.84,1229.50,1067.50
1910,1076.93,3452.59,2704.66,1216.50,1049.50
1912,1077.17,3454.69,2277.88,1191.50,1038.00
1914,1077.42,3456.79,2359.01,1201.00,1046.50
1916,1077.66,3458.88,2456.83,1183.00,1027.50
1918,1077.90,3460.97,2231.48,1178.50,1031.50
1920,1078.15,3463.06,3024.77,1226.00,1059.00
1922,1078.39,3465.15,1746.85,1191.50,1062.00
1924,1078.63,3467.23,2435.81,1161.50,1014.50
1926,1078.87,3469.32,2531.85,1207.00,1057.00
1928,1079.12,3471.40,1620.19,1169.50,1044.50
1930,1079.36,3473.47,1739.27,1227.50,1100.50
1932,1079.60,3475.55,2486.55,1162.00,1018.00
1934,1079.84,3477.62,2064.01,1190.00,1060.50
1936,1080.08,3479.69,2358.15,1162.00,1027.00
1938,1080.33,3481.76,2399.06,1158.50,1023.00
1940,1080.57,3483.83,2047.99,1170.50,1043.50
1942,1080.81,3485.89,1337.79,1165.50,1057.00
1944,1081.05,3487.95,2450.24,1195.00,1059.00
1946,1081.29,3490.01,2005.00,1175.00,1053.00
1948,1081.53,3492.07,2870.97,1169.00,1027.50
1950,1081.77,3494.12,1690.27,1149.00,1037.00
1952,1082.01,3496.18,2211.04,1192.00,1068.50
1954,1082.25,3498.23,1634.75,1145.00,1038.00
1956,1082.49,3500.27,2624.79,1175.50,1048.50
1958,1082.73,3502.32,2125.87,1134.00,1018.00
1960,1082.97,3504.36,2001.22,1166.00,1051.00
1962,1083.21,3506.40,1207.27,1131.00,1035.50
1964,1083.45,3508.44,1907.72,1119.50,1010.50
1966,1083.69,3510.48,1886.95,1188.00,1083.00
1968,1083.93,3512.51,2100.58,1160.00,1051.00
1970,1084.16,3514.54,1538.49,1140.50,1042.00
1972,1084.40,3516.57,1038.36,1136.00,1048.50
1974,1084.64,3518.60,1486.82,1121.50,1025.00
1976,1084.88,3520.62,1626.75,1165.00,1068.50
1978,1085.12,3522.65,1657.51,1181.00,1086.50
1980,1085.36,3524.67,2568.77,1161.00,1049.50
1982,1085.59,3526.68,1463.28,1122.50,1033.00
1984,1085.83,3528.70,1765.69,1166.00,1070.00
1986,1086.07,3530.71,2180.18,1131.00,1027.50
1988,1086.31,3532.72,2058.79,1156.00,1057.00
1990,1086.54,3534.73,1685.90,1119.50,1028.50
1992,1086.78,3536.74,1574.48,1166.00,1077.00
1994,1087.02,3538.74,1624.33,1138.50,1050.00
1996,1087.25,3540.74,2184.01,1107.00,1011.50
1998,1087.49,3542.74,2197.07,1136.50,1043.00
2000,1087.73,3544.74,1875.30,1126.00,1037.00
2002,1087.96,3546.74,940.16,1118.00,1045.50
2004,1088.20,3548.73,795.13,1138.50,1069.00
2006,1088.43,3550.72,1295.76,1130.00,1051.00
2008,1088.67,3552.71,1196.98,1111.00,1035.00
2010,1088.90,3554.69,991.13,1094.50,1024.00
2012,1089.14,3556.68,1392.66,1128.00,1052.00
2014,1089.38,3558.66,1567.66,1102.00,1024.50
2016,1089.61,3560.64,1016.62,1094.00,1026.50
2018,1089.84,3562.62,1825.53,1141.50,1060.00
2020,1090.08,3564.59,1071.85,1090.00,1022.00
2022,1090.31,3566.56,1041.77,1088.00,1022.00
2024,1090.55,3568.53,1492.33,1098.50,1027.50
2026,1090.78,3570.50,1969.62,1079.00,1001.00
2028,1091.02,3572.47,1050.68,1074.00,1008.50
2030,1091.25,3574.43,190.02,1076.00,1025.50
2032,1091.48,3576.39,918.61,1059.00,994.00
2034,1091.72,3578.35,1036.29,1050.50,984.50
2036,1091.95,3580.31,265.64,1072.00,1022.00
2038,1092.18,3582.26,1117.75,1049.00,988.50
2040,1092.42,3584.22,1250.88,1045.00,984.50
2042,1092.65,3586.17,753.92,1055.00,1000.00
2044,1092.88,3588.12,352.17,1042.00,991.50
2046,1093.11,3590.06,0.00,1030.00,995.00
2047,1093.23,3591.03,305.76,1027.50,968.00