File: plugins/Raman/MatchingLibrary/785X/dimethyl carbonate.csv
ENLIGHTEN Version,4.1.22
Measurement ID,20250220-200411-991069-WP-01977
Serial Number,WP-01977
Model,WP-785X-F13-R-ILC
Detector,S16011-1106
Label,dimethyl carbonate
Declared Match,
Declared Score,0
Scan Averaging,5
Boxcar,0
Technique,Raman
Baseline Correction Algo,AirPLS
ROI Pixel Start,47
ROI Pixel End,2047
ROI Start Line,0
ROI Stop Line,63
CCD C4,1.38617e-12
Slit Width,25
Cropped,True
Interpolated,False
Wavenumber Correction,-0.100481
Raman Intensity Corrected,True
Deconvolved,True
Region,
High Gain Mode,False
Laser Power mW,
Electrical Dark Correction,False
Battery %,
Device ID,<DeviceID USB:0x24aa:0x1000:0:1>
FW Version,10.0.0.10
FPGA Version,035-001
BLE Version,
Prefix,enlighten
Suffix,
Preset,
Auto-Raman,True
Session Count,0
Plugin Name,
Integration Time,210
Timestamp,2025-02-20 20:04:11.9911
Note,
Temperature,0
CCD C0,793.274
CCD C1,0.153259
CCD C2,1.40788e-05
CCD C3,-1.132e-08
CCD Offset,0
CCD Gain,1.9
CCD Offset Odd,0
CCD Gain Odd,1.9
Laser Wavelength,785.032
Laser Enable,False
Laser Power %,0
Laser Temperature,0
Pixel Count,2048

Pixel,Wavelength,Wavenumber,Processed,Raw,Dark
0,793.27,132.25,NA,901.80,888.40
2,793.58,137.12,NA,908.60,898.80
4,793.89,141.99,NA,908.60,894.00
6,794.19,146.86,NA,903.00,895.40
8,794.50,151.72,NA,915.40,898.60
10,794.81,156.58,NA,914.20,901.60
12,795.12,161.44,NA,909.80,891.80
14,795.42,166.30,NA,902.60,892.20
16,795.73,171.16,NA,903.80,893.40
18,796.04,176.01,NA,918.00,901.20
20,796.35,180.86,NA,914.80,900.40
22,796.65,185.71,NA,929.60,911.00
24,796.96,190.56,NA,918.80,903.00
26,797.27,195.41,NA,930.80,908.40
28,797.58,200.25,NA,928.00,907.80
30,797.88,205.09,NA,919.80,897.80
32,798.19,209.93,NA,920.40,897.20
34,798.50,214.77,NA,928.60,899.40
36,798.81,219.60,NA,937.60,897.80
38,799.12,224.43,NA,954.40,900.20
40,799.43,229.27,NA,1075.20,906.20
42,799.74,234.09,NA,1531.00,906.20
44,800.04,238.92,NA,2312.60,917.80
46,800.35,243.75,NA,2889.80,901.20
48,800.66,248.57,676.11,3361.60,907.80
50,800.97,253.39,1233.14,3739.40,913.60
52,801.28,258.21,1304.47,3892.40,911.20
54,801.59,263.02,1156.98,3670.00,913.00
56,801.90,267.83,756.29,3161.20,903.40
58,802.21,272.65,433.77,2709.80,909.60
60,802.52,277.46,208.52,2336.40,911.20
62,802.83,282.26,67.72,2103.40,914.20
64,803.14,287.07,1.92,1942.40,913.80
66,803.45,291.87,0.00,1817.20,913.80
68,803.76,296.67,0.00,1738.20,916.80
70,804.07,301.47,0.00,1679.20,905.00
72,804.38,306.26,0.00,1640.00,903.80
74,804.69,311.06,0.00,1622.40,906.20
76,805.00,315.85,0.00,1589.60,905.60
78,805.31,320.64,0.00,1592.20,909.80
80,805.62,325.42,0.00,1581.80,915.20
82,805.93,330.21,0.01,1600.60,910.20
84,806.24,334.99,4.22,1601.60,899.20
86,806.55,339.77,43.66,1637.60,901.80
88,806.86,344.55,78.40,1695.60,913.80
90,807.17,349.32,141.35,1773.40,905.00
92,807.48,354.10,246.04,1921.60,910.00
94,807.80,358.87,388.21,2114.20,911.80
96,808.11,363.63,582.30,2342.40,906.40
98,808.42,368.40,730.27,2505.80,904.20
100,808.73,373.16,712.53,2480.20,903.40
102,809.04,377.93,552.10,2287.80,899.20
104,809.35,382.68,382.70,2065.00,901.20
106,809.66,387.44,251.84,1877.80,906.20
108,809.98,392.19,185.49,1753.40,894.60
110,810.29,396.95,126.53,1676.00,910.40
112,810.60,401.70,89.47,1602.60,903.40
114,810.91,406.44,58.54,1545.00,903.80
116,811.22,411.19,35.49,1519.20,911.00
118,811.54,415.93,6.36,1464.40,911.60
120,811.85,420.67,21.98,1450.00,894.60
122,812.16,425.41,3.48,1432.80,898.60
124,812.47,430.14,0.00,1409.80,907.80
126,812.79,434.87,0.00,1397.20,898.80
128,813.10,439.60,0.00,1377.20,899.60
130,813.41,444.33,0.00,1392.20,900.80
132,813.72,449.06,0.00,1384.60,896.40
134,814.04,453.78,2.76,1400.00,903.80
136,814.35,458.50,10.92,1393.80,897.20
138,814.66,463.22,23.49,1405.80,896.20
140,814.98,467.93,33.16,1423.20,901.20
142,815.29,472.65,72.10,1470.00,900.60
144,815.60,477.36,98.80,1506.80,899.00
146,815.92,482.06,139.89,1563.60,895.20
148,816.23,486.77,187.83,1649.20,909.40
150,816.54,491.47,279.59,1790.80,910.80
152,816.86,496.17,439.19,2055.00,895.60
154,817.17,500.87,701.14,2767.20,904.20
156,817.48,505.57,1529.09,5221.40,902.40
158,817.80,510.26,6090.70,13630.40,900.00
160,818.11,514.95,20358.64,28177.20,912.80
162,818.42,519.64,21018.22,28738.40,909.80
164,818.74,524.32,6815.91,14650.60,905.00
166,819.05,529.00,1712.02,5641.60,908.80
168,819.37,533.68,722.50,2829.60,903.80
170,819.68,538.36,411.69,1984.60,900.40
172,819.99,543.04,242.15,1671.80,911.80
174,820.31,547.71,150.85,1499.60,900.80
176,820.62,552.38,84.69,1379.20,896.80
178,820.94,557.05,54.65,1322.00,898.80
180,821.25,561.71,30.48,1269.60,889.40
182,821.57,566.37,23.82,1260.40,893.00
184,821.88,571.03,47.90,1315.60,904.00
186,822.20,575.69,155.80,1447.00,903.00
188,822.51,580.34,260.08,1515.40,899.20
190,822.83,584.99,109.41,1378.40,905.20
192,823.14,589.64,12.42,1239.00,903.60
194,823.46,594.29,0.04,1171.80,902.40
196,823.77,598.93,0.00,1159.40,901.00
198,824.09,603.57,0.00,1138.40,895.20
200,824.40,608.21,0.00,1130.80,897.40
202,824.72,612.85,0.00,1133.20,906.20
204,825.03,617.48,0.00,1127.60,903.00
206,825.35,622.11,0.45,1151.80,908.40
208,825.66,626.74,19.17,1217.20,905.00
210,825.98,631.36,139.77,1400.60,899.20
212,826.29,635.99,392.81,1645.60,904.20
214,826.61,640.61,273.96,1540.20,899.20
216,826.92,645.22,66.32,1293.80,894.00
218,827.24,649.84,14.27,1168.20,891.60
220,827.56,654.45,11.16,1160.80,905.00
222,827.87,659.06,13.89,1158.20,902.60
224,828.19,663.67,25.11,1171.00,899.40
226,828.50,668.27,28.40,1198.80,917.00
228,828.82,672.87,53.01,1230.20,903.60
230,829.13,677.47,88.04,1305.20,895.00
232,829.45,682.06,183.20,1545.20,903.40
234,829.77,686.66,554.78,2129.80,921.60
236,830.08,691.25,1163.19,2697.20,901.80
238,830.40,695.83,813.86,2388.60,902.00
240,830.72,700.42,261.74,1695.40,899.60
242,831.03,705.00,98.67,1328.20,881.40
244,831.35,709.58,51.65,1222.00,894.20
246,831.66,714.15,21.33,1153.60,886.40
248,831.98,718.73,14.30,1143.00,900.20
250,832.30,723.30,3.01,1120.40,893.00
252,832.61,727.87,0.00,1122.20,908.60
254,832.93,732.43,0.00,1098.60,888.00
256,833.25,736.99,0.00,1117.20,905.00
258,833.56,741.55,0.00,1112.60,897.80
260,833.88,746.11,0.00,1118.80,895.60
262,834.20,750.66,0.00,1126.80,902.80
264,834.51,755.22,0.66,1137.20,903.60
266,834.83,759.76,0.00,1137.40,903.00
268,835.15,764.31,3.82,1154.80,903.40
270,835.47,768.85,10.28,1157.60,894.20
272,835.78,773.39,18.78,1181.40,898.60
274,836.10,777.93,31.71,1211.20,898.40
276,836.42,782.46,46.99,1252.40,899.20
278,836.73,787.00,98.48,1339.00,890.00
280,837.05,791.52,183.01,1457.20,890.80
282,837.37,796.05,253.43,1551.60,903.40
284,837.69,800.57,187.81,1473.80,894.00
286,838.00,805.09,87.25,1348.20,899.60
288,838.32,809.61,32.18,1257.40,896.60
290,838.64,814.13,8.65,1218.40,907.00
292,838.95,818.64,1.85,1201.40,895.80
294,839.27,823.15,0.00,1189.00,897.80
296,839.59,827.65,0.00,1202.40,898.80
298,839.91,832.15,0.00,1201.40,897.60
300,840.22,836.65,0.02,1233.60,913.40
302,840.54,841.15,17.58,1269.60,890.80
304,840.86,845.65,59.39,1374.40,907.80
306,841.18,850.14,157.28,1637.80,901.20
308,841.50,854.63,590.05,2346.60,915.20
310,841.81,859.11,1285.72,3030.40,901.20
312,842.13,863.60,988.73,2787.40,900.20
314,842.45,868.07,352.38,2009.20,893.60
316,842.77,872.55,172.13,1651.80,905.00
318,843.08,877.03,166.51,1587.00,908.20
320,843.40,881.50,223.66,1645.80,887.60
322,843.72,885.97,296.60,1802.20,900.60
324,844.04,890.43,437.96,2076.20,895.00
326,844.36,894.89,714.80,2633.40,894.80
328,844.67,899.35,1248.01,3944.00,903.20
330,844.99,903.81,2453.28,7452.00,895.40
332,845.31,908.26,7108.05,17381.80,905.80
334,845.63,912.71,22580.47,36455.80,910.20
336,845.95,917.16,30486.33,43415.80,904.20
338,846.27,921.61,13115.52,26308.20,988.80
340,846.58,926.05,3847.01,11087.60,903.00
342,846.90,930.49,1771.02,5389.00,903.00
344,847.22,934.92,1113.15,3441.80,903.80
346,847.54,939.36,734.00,2637.00,886.40
348,847.86,943.79,538.79,2290.40,894.00
350,848.18,948.21,457.52,2136.60,891.40
352,848.49,952.64,442.24,2124.00,896.40
354,848.81,957.06,511.33,2251.80,885.00
356,849.13,961.48,705.41,2601.40,907.40
358,849.45,965.89,989.61,3000.80,906.20
360,849.77,970.31,1233.88,3282.60,897.40
362,850.09,974.71,1107.82,3118.00,896.60
364,850.40,979.12,737.23,2642.20,907.00
366,850.72,983.52,413.50,2141.60,910.00
368,851.04,987.92,249.66,1816.00,890.40
370,851.36,992.32,153.68,1632.00,889.60
372,851.68,996.72,96.88,1537.00,894.80
374,852.00,1001.11,53.39,1456.20,889.80
376,852.32,1005.50,28.73,1417.20,887.60
378,852.63,1009.88,11.19,1411.40,907.80
380,852.95,1014.26,19.41,1415.40,902.60
382,853.27,1018.64,50.85,1449.60,906.20
384,853.59,1023.02,76.96,1459.40,894.40
386,853.91,1027.39,49.37,1420.60,894.00
388,854.23,1031.76,12.96,1369.20,891.00
390,854.55,1036.13,0.27,1333.00,889.60
392,854.87,1040.49,0.00,1311.80,893.20
394,855.18,1044.86,0.00,1306.60,899.80
396,855.50,1049.21,0.00,1304.80,898.00
398,855.82,1053.57,0.00,1309.40,899.40
400,856.14,1057.92,0.00,1309.20,896.00
402,856.46,1062.27,0.00,1326.20,897.20
404,856.78,1066.62,0.00,1324.40,886.40
406,857.10,1070.96,0.03,1356.20,888.20
408,857.42,1075.30,2.21,1397.60,906.80
410,857.74,1079.64,17.70,1424.60,897.00
412,858.06,1083.97,31.96,1468.20,895.80
414,858.37,1088.30,76.85,1557.60,890.00
416,858.69,1092.63,149.10,1684.60,893.00
418,859.01,1096.95,211.12,1816.00,890.80
420,859.33,1101.27,294.62,2027.20,896.60
422,859.65,1105.59,484.76,2436.60,893.00
424,859.97,1109.91,930.38,3220.80,886.80
426,860.29,1114.22,1775.47,4346.40,894.80
428,860.61,1118.53,2340.16,4956.60,893.00
430,860.93,1122.84,1762.94,4360.20,898.40
432,861.25,1127.14,908.13,3260.20,905.80
434,861.56,1131.44,470.53,2499.60,891.20
436,861.88,1135.74,306.64,2166.20,894.60
438,862.20,1140.03,250.36,2051.80,893.60
440,862.52,1144.32,282.76,2119.20,897.60
442,862.84,1148.61,359.21,2282.20,907.00
444,863.16,1152.89,542.59,2586.60,894.40
446,863.48,1157.17,813.94,2987.80,893.40
448,863.80,1161.45,1037.42,3283.40,898.40
450,864.12,1165.73,1041.17,3301.80,894.40
452,864.44,1170.00,785.40,3009.20,893.20
454,864.76,1174.27,556.99,2701.80,899.00
456,865.07,1178.53,480.85,2562.00,890.40
458,865.39,1182.80,479.58,2555.20,900.80
460,865.71,1187.06,509.32,2596.60,894.80
462,866.03,1191.31,528.44,2680.40,902.80
464,866.35,1195.57,614.78,2889.00,894.80
466,866.67,1199.82,867.73,3380.60,901.60
468,866.99,1204.06,1390.40,4180.20,899.20
470,867.31,1208.31,2136.76,5076.60,903.80
472,867.63,1212.55,2285.03,5218.40,898.80
474,867.95,1216.79,1550.32,4379.20,887.40
476,868.27,1221.02,850.33,3420.00,899.00
478,868.58,1225.25,494.51,2779.80,887.60
480,868.90,1229.48,313.55,2447.40,903.00
482,869.22,1233.71,205.28,2255.80,897.20
484,869.54,1237.93,122.53,2136.80,909.00
486,869.86,1242.15,79.86,2054.60,893.00
488,870.18,1246.36,47.47,2002.40,888.00
490,870.50,1250.58,9.08,1980.80,899.00
492,870.82,1254.79,0.02,1976.20,912.40
494,871.14,1258.99,0.00,1954.80,898.20
496,871.46,1263.20,1.21,1992.80,899.80
498,871.78,1267.40,0.00,1984.40,893.60
500,872.10,1271.59,0.00,2015.60,890.80
502,872.41,1275.79,0.05,2047.20,894.80
504,872.73,1279.98,15.21,2094.80,898.20
506,873.05,1284.17,18.11,2125.40,901.40
508,873.37,1288.35,30.43,2146.00,882.60
510,873.69,1292.53,24.77,2177.60,893.40
512,874.01,1296.71,33.89,2213.00,893.00
514,874.33,1300.88,36.98,2232.20,889.20
516,874.65,1305.06,51.89,2285.60,895.40
518,874.97,1309.22,61.55,2315.60,891.00
520,875.29,1313.39,70.64,2361.60,897.60
522,875.60,1317.55,76.88,2393.00,897.20
524,875.92,1321.71,93.83,2430.00,892.00
526,876.24,1325.87,97.02,2467.20,900.40
528,876.56,1330.02,91.47,2482.80,896.40
530,876.88,1334.17,108.10,2527.80,901.60
532,877.20,1338.32,94.40,2516.40,888.00
534,877.52,1342.46,104.59,2554.00,889.20
536,877.84,1346.60,92.43,2564.20,895.60
538,878.16,1350.73,96.93,2587.60,891.40
540,878.47,1354.87,105.46,2622.00,892.00
542,878.79,1359.00,111.89,2649.80,894.80
544,879.11,1363.13,111.30,2671.60,896.00
546,879.43,1367.25,84.25,2655.80,891.00
548,879.75,1371.37,97.21,2688.80,895.40
550,880.07,1375.49,77.19,2678.00,891.20
552,880.39,1379.60,76.88,2709.80,896.80
554,880.71,1383.71,86.05,2731.60,894.80
556,881.03,1387.82,87.63,2746.40,892.40
558,881.34,1391.93,105.38,2771.40,883.20
560,881.66,1396.03,146.63,2830.80,892.60
562,881.98,1400.13,179.95,2882.40,896.60
564,882.30,1404.22,248.25,2975.20,893.40
566,882.62,1408.31,290.75,3041.60,890.40
568,882.94,1412.40,375.48,3179.80,895.00
570,883.26,1416.49,467.71,3330.20,896.80
572,883.57,1420.57,598.74,3568.00,901.00
574,883.89,1424.65,859.58,3966.20,888.40
576,884.21,1428.73,1241.69,4500.00,904.20
578,884.53,1432.80,1690.31,5112.40,904.60
580,884.85,1436.87,1910.58,5536.00,894.60
582,885.17,1440.93,2202.61,6130.40,889.20
584,885.49,1445.00,2857.79,7172.60,892.40
586,885.80,1449.06,3978.66,8693.60,889.20
588,886.12,1453.11,5209.26,10264.80,901.00
590,886.44,1457.17,5841.43,11116.20,899.40
592,886.76,1461.22,5713.44,11034.60,901.60
594,887.08,1465.26,5171.17,10306.80,906.00
596,887.40,1469.31,4432.13,9211.40,889.60
598,887.71,1473.35,3550.19,7937.80,890.00
600,888.03,1477.38,2692.20,6699.00,897.00
602,888.35,1481.42,2071.57,5741.20,899.20
604,888.67,1485.45,1638.61,5040.80,899.00
606,888.99,1489.48,1306.09,4503.80,888.20
608,889.31,1493.50,1066.69,4113.20,894.80
610,889.62,1497.52,911.22,3854.00,897.20
612,889.94,1501.54,748.88,3603.80,893.20
614,890.26,1505.56,640.09,3431.80,893.00
616,890.58,1509.57,580.83,3328.60,893.40
618,890.90,1513.57,520.41,3221.60,889.20
620,891.21,1517.58,502.49,3184.60,894.80
622,891.53,1521.58,470.11,3136.20,897.00
624,891.85,1525.58,424.96,3063.40,892.60
626,892.17,1529.57,433.91,3061.00,898.60
628,892.49,1533.57,419.82,3036.00,899.20
630,892.80,1537.56,394.35,2991.80,892.80
632,893.12,1541.54,393.15,2971.20,886.40
634,893.44,1545.52,370.44,2944.40,899.60
636,893.76,1549.50,345.63,2894.40,886.80
638,894.07,1553.48,340.47,2893.20,900.20
640,894.39,1557.45,340.56,2872.20,890.00
642,894.71,1561.42,341.13,2876.80,898.80
644,895.03,1565.39,345.56,2862.40,885.60
646,895.34,1569.35,347.73,2865.80,895.20
648,895.66,1573.31,345.77,2854.00,890.80
650,895.98,1577.26,328.54,2836.20,896.00
652,896.30,1581.22,335.98,2834.00,891.40
654,896.61,1585.17,380.63,2882.60,894.00
656,896.93,1589.11,369.12,2859.40,897.40
658,897.25,1593.06,383.44,2850.40,887.60
660,897.57,1597.00,332.25,2789.80,895.00
662,897.88,1600.93,261.44,2699.00,896.00
664,898.20,1604.87,210.15,2616.20,895.60
666,898.52,1608.80,152.29,2525.60,890.40
668,898.84,1612.72,124.97,2478.60,890.80
670,899.15,1616.65,107.53,2449.80,897.40
672,899.47,1620.57,87.57,2404.20,887.20
674,899.79,1624.49,70.08,2376.20,891.40
676,900.10,1628.40,47.17,2335.40,886.80
678,900.42,1632.31,27.77,2318.80,900.40
680,900.74,1636.22,13.60,2274.20,886.40
682,901.05,1640.12,8.37,2270.40,907.60
684,901.37,1644.02,8.36,2234.00,892.60
686,901.69,1647.92,11.09,2220.40,897.40
688,902.00,1651.82,13.27,2199.40,892.40
690,902.32,1655.71,16.39,2180.20,892.20
692,902.64,1659.60,30.53,2168.80,889.60
694,902.95,1663.48,19.98,2150.20,896.80
696,903.27,1667.36,2.03,2103.20,896.40
698,903.59,1671.24,1.99,2087.60,902.40
700,903.90,1675.11,0.04,2054.60,893.20
702,904.22,1678.99,0.00,2012.80,884.40
704,904.54,1682.85,0.00,2015.80,909.00
706,904.85,1686.72,1.32,1998.00,888.00
708,905.17,1690.58,0.00,1963.20,890.00
710,905.49,1694.44,1.96,1973.00,887.20
712,905.80,1698.29,11.20,1979.00,893.00
714,906.12,1702.15,29.16,1992.40,893.60
716,906.43,1706.00,60.62,2024.40,897.00
718,906.75,1709.84,104.52,2063.40,901.60
720,907.07,1713.68,112.31,2060.20,886.80
722,907.38,1717.52,121.22,2082.60,896.20
724,907.70,1721.36,208.04,2175.20,895.60
726,908.01,1725.19,291.31,2253.40,894.40
728,908.33,1729.02,353.77,2329.60,900.00
730,908.65,1732.85,405.03,2411.80,893.60
732,908.96,1736.67,448.74,2543.20,898.20
734,909.28,1740.49,696.68,2965.80,893.20
736,909.59,1744.30,1324.98,3823.60,899.00
738,909.91,1748.12,2582.96,5136.40,893.20
740,910.22,1751.93,3678.47,6120.60,898.40
742,910.54,1755.73,3516.96,6066.20,914.00
744,910.85,1759.54,2644.34,5217.80,895.80
746,911.17,1763.34,1842.89,4255.60,893.60
748,911.49,1767.13,1204.35,3409.00,895.60
750,911.80,1770.93,725.33,2757.60,888.80
752,912.12,1774.72,410.41,2321.20,899.80
754,912.43,1778.50,239.37,2052.80,886.00
756,912.75,1782.29,135.37,1881.40,884.80
758,913.06,1786.07,87.11,1787.40,884.80
760,913.38,1789.84,53.53,1732.00,891.40
762,913.69,1793.62,34.46,1708.80,902.60
764,914.01,1797.39,14.71,1666.00,893.40
766,914.32,1801.15,7.16,1637.40,893.20
768,914.64,1804.92,8.37,1620.80,888.40
770,914.95,1808.68,0.03,1608.40,898.20
772,915.26,1812.44,0.00,1591.20,896.60
774,915.58,1816.19,0.00,1558.20,888.60
776,915.89,1819.94,0.00,1565.40,893.60
778,916.21,1823.69,4.23,1582.60,893.20
780,916.52,1827.43,21.42,1587.40,905.00
782,916.84,1831.17,35.02,1573.20,885.00
784,917.15,1834.91,13.33,1546.60,886.40
786,917.47,1838.64,13.73,1544.60,890.60
788,917.78,1842.38,1.32,1518.80,889.80
790,918.09,1846.10,6.26,1517.00,889.60
792,918.41,1849.83,0.64,1504.80,891.60
794,918.72,1853.55,0.00,1486.40,884.40
796,919.04,1857.27,10.29,1490.80,886.40
798,919.35,1860.98,0.44,1481.00,894.40
800,919.66,1864.69,6.25,1484.20,891.20
802,919.98,1868.40,13.46,1479.60,892.40
804,920.29,1872.11,17.10,1472.20,892.40
806,920.60,1875.81,23.51,1469.20,887.60
808,920.92,1879.51,22.83,1466.60,890.80
810,921.23,1883.20,36.14,1478.00,898.20
812,921.55,1886.90,39.23,1459.20,885.40
814,921.86,1890.58,29.43,1460.40,903.00
816,922.17,1894.27,26.65,1445.40,897.40
818,922.49,1897.95,28.06,1437.40,895.20
820,922.80,1901.63,38.49,1432.20,889.40
822,923.11,1905.31,30.94,1420.00,892.40
824,923.42,1908.98,34.13,1421.20,895.60
826,923.74,1912.65,38.96,1418.20,896.20
828,924.05,1916.31,41.24,1408.20,891.60
830,924.36,1919.98,44.63,1399.40,886.80
832,924.68,1923.64,51.17,1400.00,888.40
834,924.99,1927.29,53.02,1398.20,891.60
836,925.30,1930.94,48.06,1381.40,885.20
838,925.61,1934.59,54.53,1382.60,891.00
840,925.93,1938.24,63.50,1378.40,886.00
842,926.24,1941.88,41.94,1365.00,897.40
844,926.55,1945.52,49.69,1355.80,887.60
846,926.86,1949.16,51.07,1348.00,891.60
848,927.18,1952.79,43.83,1332.20,890.00
850,927.49,1956.42,34.39,1314.60,886.80
852,927.80,1960.05,30.90,1315.40,900.80
854,928.11,1963.67,36.39,1300.20,890.20
856,928.42,1967.29,23.40,1290.20,897.60
858,928.74,1970.91,13.67,1269.20,893.60
860,929.05,1974.52,27.11,1267.40,886.00
862,929.36,1978.13,18.74,1248.60,885.20
864,929.67,1981.74,22.34,1249.80,890.40
866,929.98,1985.35,20.69,1240.60,890.40
868,930.29,1988.95,10.75,1231.00,894.80
870,930.61,1992.54,3.73,1214.40,892.20
872,930.92,1996.14,2.86,1202.80,890.60
874,931.23,1999.73,4.22,1201.60,895.20
876,931.54,2003.32,0.51,1188.00,892.40
878,931.85,2006.90,1.86,1182.20,892.00
880,932.16,2010.48,5.47,1177.60,891.20
882,932.47,2014.06,4.63,1167.80,888.20
884,932.78,2017.63,3.23,1165.00,891.40
886,933.09,2021.21,6.37,1162.20,891.60
888,933.41,2024.77,14.28,1161.60,893.00
890,933.72,2028.34,14.35,1165.60,901.20
892,934.03,2031.90,16.90,1155.80,896.20
894,934.34,2035.46,21.03,1148.00,893.80
896,934.65,2039.01,13.32,1130.20,888.40
898,934.96,2042.57,8.54,1127.40,893.40
900,935.27,2046.11,2.32,1122.60,900.20
902,935.58,2049.66,0.00,1092.80,883.40
904,935.89,2053.20,0.00,1097.20,895.80
906,936.20,2056.74,0.00,1090.00,893.20
908,936.51,2060.28,0.00,1081.80,888.80
910,936.82,2063.81,3.44,1088.00,896.40
912,937.13,2067.34,2.51,1079.60,894.80
914,937.44,2070.86,0.00,1070.80,893.20
916,937.75,2074.39,0.00,1060.40,888.00
918,938.06,2077.91,0.00,1058.20,892.40
920,938.37,2081.42,5.57,1058.00,890.40
922,938.68,2084.94,0.00,1048.80,890.60
924,938.99,2088.45,1.13,1044.60,888.20
926,939.30,2091.95,5.80,1049.20,894.20
928,939.60,2095.46,0.00,1033.00,891.40
930,939.91,2098.96,4.93,1046.20,898.60
932,940.22,2102.45,2.10,1034.60,893.60
934,940.53,2105.95,2.99,1027.00,887.60
936,940.84,2109.44,9.16,1027.00,886.80
938,941.15,2112.92,8.59,1028.60,889.60
940,941.46,2116.41,0.00,1016.20,891.20
942,941.77,2119.89,0.00,1020.40,896.60
944,942.07,2123.37,12.38,1019.00,886.80
946,942.38,2126.84,13.52,1026.20,895.80
948,942.69,2130.31,0.00,1014.20,898.00
950,943.00,2133.78,3.37,1006.80,889.20
952,943.31,2137.24,4.66,1012.60,893.00
954,943.62,2140.70,0.00,1005.00,895.60
956,943.92,2144.16,0.00,998.80,892.60
958,944.23,2147.62,4.40,1011.00,897.40
960,944.54,2151.07,6.33,1010.20,901.00
962,944.85,2154.52,3.27,1011.80,905.40
964,945.16,2157.96,2.40,1001.60,897.80
966,945.46,2161.40,10.98,1007.00,898.20
968,945.77,2164.84,0.00,979.40,883.60
970,946.08,2168.28,0.85,990.80,892.20
972,946.39,2171.71,0.00,983.00,888.00
974,946.69,2175.14,1.20,986.80,890.80
976,947.00,2178.57,0.00,983.00,890.60
978,947.31,2181.99,1.04,985.20,889.60
980,947.61,2185.41,8.90,993.60,893.00
982,947.92,2188.82,2.82,989.20,894.80
984,948.23,2192.24,7.03,983.20,884.40
986,948.53,2195.65,1.41,985.80,892.60
988,948.84,2199.05,7.08,976.40,878.60
990,949.15,2202.46,8.03,992.40,894.80
992,949.45,2205.86,9.70,991.20,891.80
994,949.76,2209.25,11.99,990.20,888.40
996,950.07,2212.65,18.23,998.20,890.60
998,950.37,2216.04,27.26,999.40,883.60
1000,950.68,2219.43,38.70,1017.20,892.00
1002,950.98,2222.81,56.02,1031.00,894.40
1004,951.29,2226.19,74.34,1037.80,887.00
1006,951.60,2229.57,78.84,1041.80,885.60
1008,951.90,2232.94,89.19,1047.20,884.40
1010,952.21,2236.32,87.69,1043.00,884.40
1012,952.51,2239.68,67.45,1034.80,892.60
1014,952.82,2243.05,56.22,1018.20,881.80
1016,953.12,2246.41,31.00,1014.40,899.20
1018,953.43,2249.77,33.16,1023.40,910.00
1020,953.73,2253.12,23.52,1000.00,895.80
1022,954.04,2256.48,17.07,983.00,881.00
1024,954.34,2259.83,5.30,990.00,900.00
1026,954.65,2263.17,12.29,983.00,888.80
1028,954.95,2266.51,19.18,988.40,891.00
1030,955.26,2269.85,20.13,996.00,898.00
1032,955.56,2273.19,8.16,984.40,895.60
1034,955.87,2276.52,6.14,982.00,894.80
1036,956.17,2279.85,3.97,984.80,900.00
1038,956.48,2283.18,8.97,975.40,886.40
1040,956.78,2286.50,0.00,968.80,889.20
1042,957.08,2289.82,0.00,962.60,882.80
1044,957.39,2293.14,3.67,976.60,893.40
1046,957.69,2296.45,2.78,969.20,886.80
1048,957.99,2299.76,16.99,991.80,898.20
1050,958.30,2303.07,19.97,990.00,895.00
1052,958.60,2306.38,28.89,992.20,888.80
1054,958.91,2309.68,31.74,996.60,891.20
1056,959.21,2312.98,44.84,1003.00,888.20
1058,959.51,2316.27,62.69,1018.20,889.60
1060,959.82,2319.56,75.05,1038.20,899.80
1062,960.12,2322.85,102.99,1041.40,886.80
1064,960.42,2326.14,115.95,1041.00,883.80
1066,960.72,2329.42,98.74,1043.20,894.80
1068,961.03,2332.70,47.74,1014.20,897.20
1070,961.33,2335.97,42.40,1008.60,893.20
1072,961.63,2339.25,34.81,995.80,890.80
1074,961.93,2342.52,45.59,998.80,890.00
1076,962.24,2345.78,31.96,989.00,890.20
1078,962.54,2349.05,29.95,987.80,889.20
1080,962.84,2352.31,19.91,983.40,892.80
1082,963.14,2355.56,18.05,978.00,890.00
1084,963.45,2358.82,13.31,976.40,891.60
1086,963.75,2362.07,14.90,983.60,897.20
1088,964.05,2365.32,24.08,994.80,903.80
1090,964.35,2368.56,35.68,987.40,890.00
1092,964.65,2371.80,30.43,990.40,894.60
1094,964.95,2375.04,27.45,982.20,889.60
1096,965.25,2378.27,27.56,984.00,893.00
1098,965.56,2381.51,16.70,980.80,896.40
1100,965.86,2384.73,11.84,976.20,895.40
1102,966.16,2387.96,11.74,969.40,889.80
1104,966.46,2391.18,18.36,980.00,896.20
1106,966.76,2394.40,0.00,959.60,891.40
1108,967.06,2397.62,9.05,973.40,894.80
1110,967.36,2400.83,0.58,963.60,892.60
1112,967.66,2404.04,9.71,978.60,899.60
1114,967.96,2407.25,0.00,955.40,885.60
1116,968.26,2410.45,9.09,972.60,891.60
1118,968.56,2413.65,24.96,974.40,889.20
1120,968.86,2416.85,32.32,991.00,902.40
1122,969.16,2420.04,11.24,973.60,894.80
1124,969.46,2423.23,7.07,969.00,892.20
1126,969.76,2426.42,12.67,970.40,891.60
1128,970.06,2429.60,27.39,965.00,878.60
1130,970.36,2432.79,3.36,966.40,891.80
1132,970.66,2435.96,1.08,963.00,890.40
1134,970.96,2439.14,6.98,968.00,890.00
1136,971.26,2442.31,2.91,970.40,897.80
1138,971.56,2445.48,10.04,972.20,896.00
1140,971.86,2448.65,13.11,967.80,890.20
1142,972.16,2451.81,10.62,975.40,897.40
1144,972.45,2454.97,2.90,968.60,894.40
1146,972.75,2458.13,2.35,967.00,893.20
1148,973.05,2461.28,6.72,964.80,888.40
1150,973.35,2464.43,16.57,974.60,892.60
1152,973.65,2467.58,17.47,971.80,889.40
1154,973.95,2470.72,12.91,973.80,894.60
1156,974.24,2473.86,20.56,972.20,888.40
1158,974.54,2477.00,22.23,970.40,883.60
1160,974.84,2480.13,10.33,977.60,897.40
1162,975.14,2483.27,15.02,974.60,891.80
1164,975.43,2486.40,14.71,964.80,882.40
1166,975.73,2489.52,18.42,973.00,888.00
1168,976.03,2492.64,20.38,971.20,886.00
1170,976.33,2495.76,14.48,977.40,893.40
1172,976.62,2498.88,7.37,973.20,891.20
1174,976.92,2501.99,1.64,975.20,898.80
1176,977.22,2505.10,10.93,974.40,893.80
1178,977.51,2508.21,17.50,975.80,890.60
1180,977.81,2511.31,0.00,971.00,896.60
1182,978.11,2514.41,0.96,970.80,893.20
1184,978.40,2517.51,7.35,977.20,895.20
1186,978.70,2520.61,12.64,976.80,893.80
1188,979.00,2523.70,15.54,984.60,898.60
1190,979.29,2526.79,5.76,975.40,893.60
1192,979.59,2529.87,19.29,984.20,894.20
1194,979.88,2532.95,39.87,983.00,885.20
1196,980.18,2536.03,28.14,991.00,897.00
1198,980.48,2539.11,25.04,993.60,898.80
1200,980.77,2542.18,44.16,998.00,893.20
1202,981.07,2545.25,54.74,1008.00,900.00
1204,981.36,2548.32,62.07,1003.20,890.60
1206,981.66,2551.38,52.67,1009.20,900.80
1208,981.95,2554.44,69.89,1008.40,891.00
1210,982.25,2557.50,72.75,1021.60,902.20
1212,982.54,2560.56,59.01,1013.40,900.40
1214,982.84,2563.61,76.23,1023.60,901.00
1216,983.13,2566.66,86.39,1029.00,900.80
1218,983.43,2569.70,94.06,1031.80,900.00
1220,983.72,2572.74,108.70,1038.80,900.60
1222,984.01,2575.78,112.03,1033.60,894.00
1224,984.31,2578.82,127.01,1039.00,891.00
1226,984.60,2581.85,123.50,1048.40,900.60
1228,984.90,2584.88,141.24,1047.20,889.60
1230,985.19,2587.91,167.88,1063.60,894.40
1232,985.48,2590.93,181.03,1073.80,898.40
1234,985.78,2593.96,206.37,1087.00,897.20
1236,986.07,2596.97,236.28,1099.80,896.20
1238,986.36,2599.99,268.81,1124.00,906.20
1240,986.66,2603.00,278.47,1128.60,905.40
1242,986.95,2606.01,301.25,1134.40,900.80
1244,987.24,2609.01,337.27,1144.20,897.00
1246,987.54,2612.02,341.84,1131.80,883.80
1248,987.83,2615.02,327.99,1141.00,898.80
1250,988.12,2618.01,301.62,1130.60,901.20
1252,988.41,2621.01,296.06,1121.80,895.00
1254,988.71,2624.00,244.12,1096.20,895.00
1256,989.00,2626.99,225.58,1090.20,898.20
1258,989.29,2629.97,193.26,1074.80,897.80
1260,989.58,2632.95,177.70,1068.20,898.40
1262,989.87,2635.93,163.27,1065.00,902.40
1264,990.16,2638.91,137.74,1044.60,896.00
1266,990.46,2641.88,143.33,1045.80,897.80
1268,990.75,2644.85,129.62,1050.00,908.40
1270,991.04,2647.81,112.74,1031.80,895.40
1272,991.33,2650.78,97.22,1028.20,899.40
1274,991.62,2653.74,92.35,1021.60,896.40
1276,991.91,2656.70,87.11,1017.80,895.20
1278,992.20,2659.65,83.38,1015.00,895.00
1280,992.49,2662.60,72.52,1010.20,896.00
1282,992.78,2665.55,60.48,1016.20,907.00
1284,993.07,2668.50,52.99,1006.60,900.60
1286,993.36,2671.44,38.64,999.20,900.00
1288,993.65,2674.38,33.86,998.20,901.40
1290,993.94,2677.31,15.18,989.40,900.80
1292,994.23,2680.25,15.14,989.40,898.20
1294,994.52,2683.18,1.07,980.20,896.80
1296,994.81,2686.10,0.43,980.60,898.00
1298,995.10,2689.03,0.03,981.40,899.20
1300,995.39,2691.95,12.09,983.20,896.60
1302,995.68,2694.87,0.00,986.40,906.60
1304,995.97,2697.78,0.00,985.20,909.00
1306,996.26,2700.70,0.56,977.60,892.40
1308,996.55,2703.61,0.00,985.60,899.60
1310,996.84,2706.51,1.69,992.80,902.20
1312,997.13,2709.42,2.33,990.80,899.40
1314,997.41,2712.32,25.13,1006.00,903.40
1316,997.70,2715.21,48.22,1010.20,897.00
1318,997.99,2718.11,54.24,1016.80,899.60
1320,998.28,2721.00,55.58,1018.00,898.20
1322,998.57,2723.89,81.84,1037.80,907.40
1324,998.86,2726.77,103.27,1032.00,894.20
1326,999.14,2729.66,114.90,1040.60,895.20
1328,999.43,2732.54,99.09,1041.60,898.20
1330,999.72,2735.41,116.27,1042.40,892.40
1332,1000.01,2738.29,124.08,1056.40,905.40
1334,1000.29,2741.16,128.94,1050.60,896.80
1336,1000.58,2744.03,89.72,1036.00,892.60
1338,1000.87,2746.89,75.72,1042.20,901.00
1340,1001.15,2749.75,85.02,1041.80,897.60
1342,1001.44,2752.61,83.25,1038.00,895.60
1344,1001.73,2755.47,60.42,1033.20,896.40
1346,1002.01,2758.32,58.54,1035.20,896.40
1348,1002.30,2761.17,36.38,1035.60,905.00
1350,1002.59,2764.02,33.35,1034.20,904.60
1352,1002.87,2766.86,42.89,1033.40,898.20
1354,1003.16,2769.70,2.66,1018.40,896.40
1356,1003.44,2772.54,2.80,1016.20,893.00
1358,1003.73,2775.38,0.00,1019.80,903.20
1360,1004.01,2778.21,0.00,1012.40,890.80
1362,1004.30,2781.04,0.00,1022.60,897.20
1364,1004.58,2783.87,0.00,1023.00,897.40
1366,1004.87,2786.69,0.00,1020.80,888.00
1368,1005.15,2789.51,0.00,1034.60,903.00
1370,1005.44,2792.33,0.00,1045.20,903.40
1372,1005.72,2795.14,0.00,1042.60,902.80
1374,1006.01,2797.95,1.77,1062.60,901.80
1376,1006.29,2800.76,0.00,1057.00,895.60
1378,1006.58,2803.57,0.00,1076.60,910.60
1380,1006.86,2806.37,0.00,1081.40,896.60
1382,1007.14,2809.17,0.00,1101.00,894.80
1384,1007.43,2811.97,0.00,1120.20,899.20
1386,1007.71,2814.77,0.13,1148.00,892.80
1388,1008.00,2817.56,4.25,1178.00,897.00
1390,1008.28,2820.35,63.88,1233.00,902.80
1392,1008.56,2823.13,237.55,1285.20,895.80
1394,1008.85,2825.91,463.11,1359.40,901.00
1396,1009.13,2828.69,792.88,1469.60,899.60
1398,1009.41,2831.47,1215.13,1632.60,907.40
1400,1009.69,2834.24,1754.22,1822.80,892.00
1402,1009.98,2837.02,2799.11,2185.00,897.20
1404,1010.26,2839.78,4446.96,2657.00,905.20
1406,1010.54,2842.55,6874.76,3201.20,893.80
1408,1010.82,2845.31,9388.18,3702.60,900.60
1410,1011.11,2848.07,10076.46,3833.80,904.20
1412,1011.39,2850.83,8663.39,3584.40,907.80
1414,1011.67,2853.58,6773.41,3203.20,900.00
1416,1011.95,2856.33,5122.12,2797.20,904.00
1418,1012.23,2859.08,4196.40,2509.40,901.20
1420,1012.51,2861.83,3693.41,2318.80,898.60
1422,1012.80,2864.57,3318.87,2202.40,914.20
1424,1013.08,2867.31,3049.82,2118.20,907.40
1426,1013.36,2870.04,2908.01,2083.60,906.20
1428,1013.64,2872.78,3058.46,2128.80,898.40
1430,1013.92,2875.51,3378.94,2239.80,913.00
1432,1014.20,2878.24,4085.66,2409.40,909.60
1434,1014.48,2880.96,5362.79,2668.40,897.80
1436,1014.76,2883.68,6607.05,2892.20,893.40
1438,1015.04,2886.40,7276.37,3017.80,897.80
1440,1015.32,2889.12,7035.37,2990.40,908.60
1442,1015.60,2891.83,6318.86,2856.20,898.80
1444,1015.88,2894.54,5488.59,2691.80,903.80
1446,1016.16,2897.25,4924.38,2545.60,894.40
1448,1016.44,2899.96,4599.97,2454.60,901.80
1450,1016.72,2902.66,4450.01,2398.00,905.80
1452,1017.00,2905.36,4469.00,2382.40,911.40
1454,1017.28,2908.06,4587.63,2377.00,898.40
1456,1017.55,2910.75,4489.38,2353.60,905.80
1458,1017.83,2913.44,4452.57,2337.00,897.20
1460,1018.11,2916.13,4431.13,2335.40,904.40
1462,1018.39,2918.81,4404.08,2320.80,904.20
1464,1018.67,2921.49,4524.03,2337.00,898.60
1466,1018.95,2924.17,4562.74,2342.40,899.40
1468,1019.22,2926.85,4723.63,2380.40,903.00
1470,1019.50,2929.52,4942.75,2416.40,893.00
1472,1019.78,2932.20,5290.23,2495.80,895.20
1474,1020.06,2934.86,5648.54,2579.80,895.60
1476,1020.33,2937.53,6162.96,2713.00,912.40
1478,1020.61,2940.19,7175.84,2929.20,902.40
1480,1020.89,2942.85,8196.77,3168.80,905.00
1482,1021.17,2945.51,9543.21,3497.20,899.40
1484,1021.44,2948.16,11391.77,3967.20,903.80
1486,1021.72,2950.81,14231.97,4655.80,901.80
1488,1022.00,2953.46,18394.99,5587.80,909.00
1490,1022.27,2956.11,24632.21,6785.60,905.80
1492,1022.55,2958.75,32754.25,8109.00,908.40
1494,1022.82,2961.39,40600.53,9193.80,900.20
1496,1023.10,2964.03,43810.43,9578.60,906.60
1498,1023.38,2966.66,39788.58,8965.00,900.00
1500,1023.65,2969.29,31916.05,7779.20,907.00
1502,1023.93,2971.92,24001.48,6418.00,908.00
1504,1024.20,2974.55,18129.79,5253.80,908.60
1506,1024.48,2977.17,14305.78,4394.00,901.60
1508,1024.75,2979.79,11535.53,3735.60,901.20
1510,1025.03,2982.41,9737.44,3297.60,901.00
1512,1025.30,2985.02,8376.65,2973.20,897.40
1514,1025.58,2987.63,7397.03,2755.00,899.60
1516,1025.85,2990.24,6665.21,2590.60,897.20
1518,1026.13,2992.85,6169.43,2481.80,905.80
1520,1026.40,2995.45,6022.81,2426.00,898.20
1522,1026.68,2998.05,5983.17,2409.60,902.60
1524,1026.95,3000.65,5854.54,2374.40,904.60
1526,1027.22,3003.25,6067.26,2395.00,904.20
1528,1027.50,3005.84,6268.54,2409.00,900.80
1530,1027.77,3008.43,6428.10,2425.40,903.00
1532,1028.04,3011.02,6553.94,2439.40,907.80
1534,1028.32,3013.60,6749.13,2458.20,901.80
1536,1028.59,3016.18,6677.94,2443.60,902.60
1538,1028.86,3018.76,6634.20,2424.00,892.60
1540,1029.14,3021.34,6605.10,2423.00,904.60
1542,1029.41,3023.91,6670.56,2418.20,898.80
1544,1029.68,3026.48,6775.48,2423.60,897.60
1546,1029.95,3029.05,7008.87,2448.60,901.00
1548,1030.22,3031.61,7217.45,2455.40,896.60
1550,1030.50,3034.17,7412.85,2464.20,892.80
1552,1030.77,3036.73,7200.10,2421.80,898.40
1554,1031.04,3039.29,7130.51,2408.20,905.00
1556,1031.31,3041.84,6621.14,2308.60,894.20
1558,1031.58,3044.39,6261.64,2259.80,909.40
1560,1031.85,3046.94,5676.74,2154.60,904.80
1562,1032.13,3049.49,5027.00,2032.80,891.40
1564,1032.40,3052.03,4411.01,1944.40,901.60
1566,1032.67,3054.57,3715.42,1830.80,898.80
1568,1032.94,3057.11,3205.69,1757.00,910.40
1570,1033.21,3059.64,2745.32,1660.00,892.00
1572,1033.48,3062.18,2312.16,1605.00,907.40
1574,1033.75,3064.70,1956.85,1543.20,902.60
1576,1034.02,3067.23,1593.75,1491.20,911.00
1578,1034.29,3069.75,1338.29,1430.80,893.20
1580,1034.56,3072.28,1018.35,1394.00,906.20
1582,1034.83,3074.79,763.30,1341.80,894.40
1584,1035.10,3077.31,666.34,1332.60,900.80
1586,1035.37,3079.82,402.10,1288.60,895.60
1588,1035.64,3082.33,225.28,1281.60,915.80
1590,1035.91,3084.84,181.99,1255.20,901.20
1592,1036.17,3087.34,70.36,1227.80,899.00
1594,1036.44,3089.85,19.01,1224.20,914.20
1596,1036.71,3092.35,55.15,1203.60,896.40
1598,1036.98,3094.84,0.00,1175.00,896.80
1600,1037.25,3097.34,9.04,1168.60,890.80
1602,1037.52,3099.83,0.00,1163.20,899.00
1604,1037.78,3102.32,0.00,1148.40,896.60
1606,1038.05,3104.80,0.00,1147.60,905.80
1608,1038.32,3107.29,0.00,1133.20,897.40
1610,1038.59,3109.77,30.91,1135.60,895.80
1612,1038.85,3112.24,59.74,1130.20,899.00
1614,1039.12,3114.72,69.40,1131.80,907.00
1616,1039.39,3117.19,0.00,1098.80,891.40
1618,1039.66,3119.66,17.88,1113.40,901.60
1620,1039.92,3122.13,0.00,1103.00,904.20
1622,1040.19,3124.59,0.70,1097.00,901.00
1624,1040.45,3127.05,80.94,1097.20,895.40
1626,1040.72,3129.51,14.91,1092.00,904.20
1628,1040.99,3131.97,0.00,1082.40,908.20
1630,1041.25,3134.42,46.31,1096.40,911.60
1632,1041.52,3136.87,95.95,1079.80,893.20
1634,1041.78,3139.32,51.17,1081.60,902.20
1636,1042.05,3141.77,0.00,1094.80,925.80
1638,1042.32,3144.21,33.71,1071.40,898.40
1640,1042.58,3146.65,44.17,1077.40,906.20
1642,1042.85,3149.09,19.37,1071.60,905.80
1644,1043.11,3151.52,21.79,1063.60,899.60
1646,1043.38,3153.96,5.00,1067.60,907.80
1648,1043.64,3156.39,80.69,1064.20,898.20
1650,1043.90,3158.81,53.55,1057.80,897.60
1652,1044.17,3161.24,0.00,1061.80,911.00
1654,1044.43,3163.66,73.80,1053.40,895.80
1656,1044.70,3166.08,115.65,1070.40,910.80
1658,1044.96,3168.49,69.24,1056.80,902.80
1660,1045.22,3170.91,50.56,1051.60,901.40
1662,1045.49,3173.32,90.22,1050.40,898.80
1664,1045.75,3175.73,60.43,1051.00,905.00
1666,1046.01,3178.13,83.83,1048.00,901.80
1668,1046.28,3180.54,93.84,1052.20,906.20
1670,1046.54,3182.94,29.34,1046.80,908.60
1672,1046.80,3185.34,62.60,1043.40,902.60
1674,1047.07,3187.73,55.48,1035.60,898.40
1676,1047.33,3190.12,137.56,1046.00,904.80
1678,1047.59,3192.51,120.84,1040.00,903.00
1680,1047.85,3194.90,120.87,1050.00,913.00
1682,1048.11,3197.29,29.60,1034.60,907.40
1684,1048.38,3199.67,58.63,1032.20,904.60
1686,1048.64,3202.05,58.30,1037.20,911.60
1688,1048.90,3204.43,15.60,1027.40,906.40
1690,1049.16,3206.80,29.38,1023.60,901.20
1692,1049.42,3209.17,37.20,1030.00,909.40
1694,1049.68,3211.54,109.47,1021.40,897.40
1696,1049.94,3213.91,67.09,1020.00,901.80
1698,1050.20,3216.27,145.26,1029.40,906.20
1700,1050.46,3218.63,113.43,1031.20,912.60
1702,1050.72,3220.99,112.76,1021.00,904.60
1704,1050.98,3223.35,132.58,1023.60,906.40
1706,1051.24,3225.70,99.12,1019.40,903.80
1708,1051.50,3228.05,32.57,1009.20,901.40
1710,1051.76,3230.40,142.68,1025.40,909.00
1712,1052.02,3232.75,189.50,1016.00,900.20
1714,1052.28,3235.09,106.29,1020.60,913.00
1716,1052.54,3237.43,142.54,1011.20,901.80
1718,1052.80,3239.77,232.15,1014.40,898.80
1720,1053.06,3242.11,160.32,1016.20,908.00
1722,1053.32,3244.44,231.50,1010.20,899.00
1724,1053.58,3246.77,287.88,1021.80,908.40
1726,1053.84,3249.10,186.02,1008.80,903.40
1728,1054.10,3251.42,230.66,1009.40,901.40
1730,1054.35,3253.75,225.43,1007.60,901.20
1732,1054.61,3256.07,182.21,1011.80,910.00
1734,1054.87,3258.39,187.54,1007.80,906.60
1736,1055.13,3260.70,157.61,998.20,900.60
1738,1055.38,3263.01,252.90,1004.40,902.40
1740,1055.64,3265.32,300.11,1006.80,904.40
1742,1055.90,3267.63,359.25,997.60,892.00
1744,1056.16,3269.94,233.54,1010.40,912.80
1746,1056.41,3272.24,149.09,1006.40,915.80
1748,1056.67,3274.54,265.76,1002.80,906.20
1750,1056.93,3276.84,330.07,999.60,900.80
1752,1057.18,3279.13,259.03,997.40,903.80
1754,1057.44,3281.42,269.50,991.20,897.40
1756,1057.69,3283.71,311.11,997.20,902.20
1758,1057.95,3286.00,380.65,1006.40,909.60
1760,1058.21,3288.28,377.65,994.40,900.20
1762,1058.46,3290.57,414.66,1000.00,904.20
1764,1058.72,3292.85,312.55,996.60,906.00
1766,1058.97,3295.12,186.31,983.20,901.40
1768,1059.23,3297.40,319.27,985.40,897.40
1770,1059.48,3299.67,287.34,988.80,905.00
1772,1059.74,3301.94,204.71,976.40,898.00
1774,1059.99,3304.21,257.74,988.00,907.00
1776,1060.25,3306.47,322.34,994.20,911.20
1778,1060.50,3308.73,278.89,980.60,902.00
1780,1060.76,3310.99,373.61,984.20,901.40
1782,1061.01,3313.25,230.62,979.80,905.00
1784,1061.26,3315.50,291.23,981.40,902.60
1786,1061.52,3317.76,250.91,982.80,906.60
1788,1061.77,3320.01,122.16,980.20,913.80
1790,1062.02,3322.25,194.67,972.20,903.80
1792,1062.28,3324.50,410.99,980.40,903.00
1794,1062.53,3326.74,220.21,966.20,899.00
1796,1062.78,3328.98,348.36,977.60,905.00
1798,1063.04,3331.22,318.54,972.00,901.40
1800,1063.29,3333.45,254.84,965.20,897.20
1802,1063.54,3335.68,152.04,965.80,903.40
1804,1063.79,3337.91,188.31,972.20,908.60
1806,1064.05,3340.14,355.81,980.60,909.60
1808,1064.30,3342.36,248.41,960.60,897.40
1810,1064.55,3344.59,279.87,971.60,909.00
1812,1064.80,3346.81,376.30,966.00,901.20
1814,1065.05,3349.02,428.72,966.00,898.80
1816,1065.30,3351.24,121.93,967.20,913.00
1818,1065.55,3353.45,188.99,961.20,902.60
1820,1065.81,3355.66,81.40,969.80,918.40
1822,1066.06,3357.87,194.44,957.00,900.60
1824,1066.31,3360.07,257.82,954.20,897.20
1826,1066.56,3362.27,334.15,962.40,904.60
1828,1066.81,3364.47,423.42,958.00,898.20
1830,1067.06,3366.67,413.50,960.20,900.40
1832,1067.31,3368.87,174.67,949.00,898.40
1834,1067.56,3371.06,205.82,944.60,892.20
1836,1067.81,3373.25,227.64,944.60,892.40
1838,1068.06,3375.44,289.65,945.80,892.80
1840,1068.31,3377.62,342.66,950.20,896.40
1842,1068.56,3379.81,238.44,942.60,893.80
1844,1068.80,3381.99,370.50,965.20,912.00
1846,1069.05,3384.16,199.73,953.40,907.80
1848,1069.30,3386.34,210.35,944.20,898.80
1850,1069.55,3388.51,316.26,952.60,902.60
1852,1069.80,3390.68,114.40,947.20,905.40
1854,1070.05,3392.85,120.99,960.40,918.60
1856,1070.30,3395.02,182.59,947.60,904.60
1858,1070.54,3397.18,564.83,948.00,893.60
1860,1070.79,3399.34,343.38,946.20,900.80
1862,1071.04,3401.50,260.76,941.40,898.40
1864,1071.29,3403.66,246.27,934.40,891.40
1866,1071.53,3405.81,292.57,945.00,900.40
1868,1071.78,3407.96,423.29,945.80,897.40
1870,1072.03,3410.11,269.16,943.60,902.80
1872,1072.27,3412.26,333.10,945.60,904.20
1874,1072.52,3414.40,543.62,945.00,897.00
1876,1072.77,3416.54,216.75,937.80,899.20
1878,1073.01,3418.68,139.26,946.80,910.40
1880,1073.26,3420.82,247.34,927.80,886.80
1882,1073.51,3422.96,211.36,942.20,905.80
1884,1073.75,3425.09,621.20,944.80,898.60
1886,1074.00,3427.22,489.88,935.00,893.20
1888,1074.24,3429.35,303.42,944.80,907.40
1890,1074.49,3431.47,318.87,937.20,898.60
1892,1074.73,3433.59,292.96,929.00,892.20
1894,1074.98,3435.71,370.89,943.20,905.40
1896,1075.22,3437.83,329.23,934.20,899.00
1898,1075.47,3439.95,443.21,945.00,907.00
1900,1075.71,3442.06,398.84,942.60,905.80
1902,1075.96,3444.17,491.10,938.60,898.80
1904,1076.20,3446.28,282.42,915.40,882.40
1906,1076.44,3448.38,491.36,948.80,909.20
1908,1076.69,3450.49,234.14,938.40,907.80
1910,1076.93,3452.59,315.42,933.80,901.80
1912,1077.17,3454.69,457.22,932.20,897.00
1914,1077.42,3456.79,159.24,930.60,903.80
1916,1077.66,3458.88,198.11,927.00,898.80
1918,1077.90,3460.97,148.43,923.60,897.60
1920,1078.15,3463.06,458.15,942.40,909.20
1922,1078.39,3465.15,666.68,933.00,896.80
1924,1078.63,3467.23,661.26,923.80,887.20
1926,1078.87,3469.32,215.90,931.40,905.00
1928,1079.12,3471.40,138.95,926.40,902.00
1930,1079.36,3473.47,207.02,944.20,918.00
1932,1079.60,3475.55,388.48,922.00,892.20
1934,1079.84,3477.62,405.61,933.00,905.20
1936,1080.08,3479.69,538.50,924.80,895.20
1938,1080.33,3481.76,431.26,921.40,892.80
1940,1080.57,3483.83,218.28,925.60,900.80
1942,1080.81,3485.89,61.26,926.60,907.00
1944,1081.05,3487.95,150.22,932.80,911.00
1946,1081.29,3490.01,171.33,924.60,903.40
1948,1081.53,3492.07,81.18,918.80,900.40
1950,1081.77,3494.12,312.37,922.60,899.20
1952,1082.01,3496.18,173.49,927.60,907.80
1954,1082.25,3498.23,335.31,915.40,892.20
1956,1082.49,3500.27,96.61,920.60,903.00
1958,1082.73,3502.32,451.63,917.80,892.40
1960,1082.97,3504.36,237.67,924.60,904.60
1962,1083.21,3506.40,314.44,919.60,898.00
1964,1083.45,3508.44,176.34,912.40,893.40
1966,1083.69,3510.48,128.50,935.80,917.60
1968,1083.93,3512.51,167.31,920.80,901.80
1970,1084.16,3514.54,176.80,918.80,901.00
1972,1084.40,3516.57,527.80,922.40,898.80
1974,1084.64,3518.60,180.16,913.40,897.00
1976,1084.88,3520.62,540.13,928.60,905.80
1978,1085.12,3522.65,500.49,931.80,909.80
1980,1085.36,3524.67,461.34,919.20,897.00
1982,1085.59,3526.68,185.83,913.60,896.60
1984,1085.83,3528.70,3.36,920.20,908.20
1986,1086.07,3530.71,324.22,913.40,892.80
1988,1086.31,3532.72,6.76,919.00,907.40
1990,1086.54,3534.73,385.81,911.00,891.80
1992,1086.78,3536.74,220.01,926.00,910.80
1994,1087.02,3538.74,421.84,921.40,903.00
1996,1087.25,3540.74,731.01,912.40,889.20
1998,1087.49,3542.74,769.91,922.00,898.20
2000,1087.73,3544.74,439.04,919.00,900.60
2002,1087.96,3546.74,213.29,916.40,902.20
2004,1088.20,3548.73,322.80,925.40,909.20
2006,1088.43,3550.72,495.77,921.60,902.20
2008,1088.67,3552.71,460.58,912.80,894.20
2010,1088.90,3554.69,329.15,908.80,893.20
2012,1089.14,3556.68,478.56,920.60,903.00
2014,1089.38,3558.66,493.36,909.40,892.40
2016,1089.61,3560.64,522.53,912.40,895.20
2018,1089.84,3562.62,558.90,921.60,903.40
2020,1090.08,3564.59,456.68,911.40,894.60
2022,1090.31,3566.56,474.66,913.00,896.20
2024,1090.55,3568.53,499.50,912.20,896.20
2026,1090.78,3570.50,791.21,911.00,892.00
2028,1091.02,3572.47,425.71,907.00,893.40
2030,1091.25,3574.43,509.51,907.40,891.40
2032,1091.48,3576.39,110.99,895.60,886.00
2034,1091.72,3578.35,0.00,896.60,891.40
2036,1091.95,3580.31,260.44,907.80,895.40
2038,1092.18,3582.26,704.28,901.40,883.60
2040,1092.42,3584.22,233.82,894.80,884.80
2042,1092.65,3586.17,719.89,903.40,887.60
2044,1092.88,3588.12,266.88,896.60,884.20
2046,1093.11,3590.06,0.00,890.40,884.80
2047,1093.23,3591.03,22.80,892.20,881.20