File: plugins/Raman/MatchingLibrary/785X/DMSO.csv
ENLIGHTEN Version,4.1.22
Measurement ID,20250220-200023-341747-WP-01977
Serial Number,WP-01977
Model,WP-785X-F13-R-ILC
Detector,S16011-1106
Label,DMSO
Declared Match,
Declared Score,0
Scan Averaging,10
Boxcar,0
Technique,Raman
Baseline Correction Algo,AirPLS
ROI Pixel Start,47
ROI Pixel End,2047
ROI Start Line,0
ROI Stop Line,63
CCD C4,1.38617e-12
Slit Width,25
Cropped,True
Interpolated,False
Wavenumber Correction,-0.100481
Raman Intensity Corrected,True
Deconvolved,True
Region,
High Gain Mode,False
Laser Power mW,
Electrical Dark Correction,False
Battery %,
Device ID,<DeviceID USB:0x24aa:0x1000:0:1>
FW Version,10.0.0.10
FPGA Version,035-001
BLE Version,
Prefix,enlighten
Suffix,
Preset,
Auto-Raman,True
Session Count,0
Plugin Name,
Integration Time,78
Timestamp,2025-02-20 20:00:23.3417
Note,
Temperature,0
CCD C0,793.274
CCD C1,0.153259
CCD C2,1.40788e-05
CCD C3,-1.132e-08
CCD Offset,0
CCD Gain,1.9
CCD Offset Odd,0
CCD Gain Odd,1.9
Laser Wavelength,785.032
Laser Enable,False
Laser Power %,0
Laser Temperature,0
Pixel Count,2048

Pixel,Wavelength,Wavenumber,Processed,Raw,Dark
0,793.27,132.25,NA,885.60,861.10
2,793.58,137.12,NA,892.40,861.80
4,793.89,141.99,NA,889.30,860.70
6,794.19,146.86,NA,891.80,858.40
8,794.50,151.72,NA,893.30,862.90
10,794.81,156.58,NA,894.80,862.70
12,795.12,161.44,NA,894.00,861.70
14,795.42,166.30,NA,890.20,860.60
16,795.73,171.16,NA,892.60,859.70
18,796.04,176.01,NA,894.00,863.10
20,796.35,180.86,NA,894.10,862.80
22,796.65,185.71,NA,896.60,864.30
24,796.96,190.56,NA,896.30,861.60
26,797.27,195.41,NA,900.10,866.70
28,797.58,200.25,NA,901.00,865.00
30,797.88,205.09,NA,898.30,863.20
32,798.19,209.93,NA,898.30,862.00
34,798.50,214.77,NA,900.70,861.90
36,798.81,219.60,NA,903.90,863.30
38,799.12,224.43,NA,911.50,866.40
40,799.43,229.27,NA,962.20,867.00
42,799.74,234.09,NA,1153.00,865.70
44,800.04,238.92,NA,1467.80,869.20
46,800.35,243.75,NA,1616.80,864.00
48,800.66,248.57,38.75,1683.70,867.80
50,800.97,253.39,99.83,1726.90,868.80
52,801.28,258.21,128.22,1773.80,870.40
54,801.59,263.02,182.47,1831.70,867.10
56,801.90,267.83,230.52,1893.00,866.20
58,802.21,272.65,302.09,1985.60,867.80
60,802.52,277.46,407.61,2123.20,866.40
62,802.83,282.26,556.92,2341.70,870.10
64,803.14,287.07,840.01,2755.40,870.70
66,803.45,291.87,1327.29,3482.70,869.40
68,803.76,296.67,2325.80,4799.60,871.50
70,804.07,301.47,3836.73,6540.80,867.80
72,804.38,306.26,4962.57,7767.90,867.60
74,804.69,311.06,4793.43,7711.90,868.60
76,805.00,315.85,3799.74,6824.70,864.40
78,805.31,320.64,3272.33,6444.90,868.20
80,805.62,325.42,4141.86,7651.90,869.00
82,805.93,330.21,6637.08,10258.50,867.40
84,806.24,334.99,8253.57,11642.60,866.70
86,806.55,339.77,6058.06,9565.30,868.00
88,806.86,344.55,3223.94,6356.00,868.20
90,807.17,349.32,1732.05,4187.30,864.80
92,807.48,354.10,1122.67,3151.60,865.80
94,807.80,358.87,869.46,2715.40,866.40
96,808.11,363.63,774.92,2572.50,868.80
98,808.42,368.40,833.66,2711.90,865.70
100,808.73,373.16,1177.36,3296.50,866.60
102,809.04,377.93,2192.49,4535.70,863.50
104,809.35,382.68,3356.77,5633.00,865.70
106,809.66,387.44,2914.58,5211.30,867.40
108,809.98,392.19,1441.63,3626.20,863.90
110,810.29,396.95,643.41,2471.20,867.40
112,810.60,401.70,327.98,1897.70,864.80
114,810.91,406.44,197.12,1647.10,865.70
116,811.22,411.19,125.10,1516.40,865.80
118,811.54,415.93,79.68,1437.80,866.00
120,811.85,420.67,43.67,1376.50,867.50
122,812.16,425.41,28.28,1335.80,863.80
124,812.47,430.14,20.66,1312.50,865.10
126,812.79,434.87,1.94,1274.60,865.20
128,813.10,439.60,0.00,1249.10,862.50
130,813.41,444.33,0.00,1231.20,866.40
132,813.72,449.06,0.00,1209.80,862.60
134,814.04,453.78,0.00,1192.80,865.00
136,814.35,458.50,0.00,1185.70,862.40
138,814.66,463.22,0.00,1172.10,859.40
140,814.98,467.93,0.00,1170.60,863.20
142,815.29,472.65,0.00,1158.30,863.50
144,815.60,477.36,0.00,1148.70,865.60
146,815.92,482.06,0.00,1143.30,861.20
148,816.23,486.77,1.72,1143.60,865.90
150,816.54,491.47,3.30,1138.50,865.20
152,816.86,496.17,0.00,1121.30,862.80
154,817.17,500.87,0.00,1116.70,864.50
156,817.48,505.57,0.00,1110.50,863.40
158,817.80,510.26,0.00,1100.60,860.70
160,818.11,514.95,0.00,1098.50,865.60
162,818.42,519.64,0.00,1095.90,865.70
164,818.74,524.32,0.00,1086.80,863.10
166,819.05,529.00,0.00,1093.70,867.40
168,819.37,533.68,0.00,1093.20,865.80
170,819.68,538.36,0.00,1095.80,864.80
172,819.99,543.04,0.00,1099.60,866.70
174,820.31,547.71,0.00,1101.20,863.70
176,820.62,552.38,0.00,1105.40,860.80
178,820.94,557.05,0.00,1113.70,862.80
180,821.25,561.71,0.00,1120.60,861.10
182,821.57,566.37,0.00,1141.00,860.60
184,821.88,571.03,0.00,1156.20,862.70
186,822.20,575.69,0.00,1178.60,863.30
188,822.51,580.34,0.00,1205.90,862.30
190,822.83,584.99,0.00,1258.20,861.10
192,823.14,589.64,5.00,1322.30,863.70
194,823.46,594.29,30.96,1375.80,863.60
196,823.77,598.93,41.48,1419.60,864.50
198,824.09,603.57,66.13,1473.80,863.50
200,824.40,608.21,107.43,1540.90,864.30
202,824.72,612.85,158.77,1622.50,865.20
204,825.03,617.48,213.38,1717.30,866.60
206,825.35,622.11,289.12,1846.20,869.20
208,825.66,626.74,388.78,2015.60,864.50
210,825.98,631.36,527.89,2274.20,865.80
212,826.29,635.99,791.65,2716.10,862.50
214,826.61,640.61,1203.72,3382.20,863.50
216,826.92,645.22,1729.16,4328.80,863.60
218,827.24,649.84,2524.83,5985.30,860.80
220,827.56,654.45,4313.07,9710.20,865.10
222,827.87,659.06,8652.47,17770.30,867.60
224,828.19,663.67,18197.43,31685.30,865.60
226,828.50,668.27,29685.18,44456.60,870.10
228,828.82,672.87,27019.04,41513.40,867.60
230,829.13,677.47,13307.91,25571.60,867.20
232,829.45,682.06,5765.68,13582.80,867.90
234,829.77,686.66,4335.12,10122.70,873.30
236,830.08,691.25,5917.94,11863.10,865.20
238,830.40,695.83,9129.81,15676.80,864.50
240,830.72,700.42,10543.15,17081.50,862.20
242,831.03,705.00,7616.29,13678.20,859.40
244,831.35,709.58,3961.49,8676.40,863.40
246,831.66,714.15,2128.45,5418.50,862.30
248,831.98,718.73,1371.97,3836.40,866.40
250,832.30,723.30,936.78,2992.20,863.30
252,832.61,727.87,661.72,2503.20,865.80
254,832.93,732.43,477.15,2171.30,858.50
256,833.25,736.99,354.04,1958.30,865.00
258,833.56,741.55,269.60,1805.70,861.80
260,833.88,746.11,195.07,1682.30,865.40
262,834.20,750.66,132.86,1571.80,861.90
264,834.51,755.22,92.07,1505.30,866.00
266,834.83,759.76,48.26,1431.80,865.00
268,835.15,764.31,27.32,1379.80,865.10
270,835.47,768.85,13.50,1328.10,861.60
272,835.78,773.39,1.10,1283.30,862.00
274,836.10,777.93,0.00,1239.50,864.80
276,836.42,782.46,0.00,1208.10,862.30
278,836.73,787.00,0.00,1169.70,860.20
280,837.05,791.52,0.00,1139.40,860.60
282,837.37,796.05,0.00,1121.20,866.50
284,837.69,800.57,0.00,1099.70,861.60
286,838.00,805.09,0.00,1081.60,862.70
288,838.32,809.61,0.00,1072.00,864.20
290,838.64,814.13,0.00,1059.00,866.10
292,838.95,818.64,0.00,1045.50,862.00
294,839.27,823.15,0.00,1036.40,862.90
296,839.59,827.65,0.00,1031.30,863.60
298,839.91,832.15,0.00,1026.50,862.70
300,840.22,836.65,0.00,1028.80,867.50
302,840.54,841.15,0.00,1015.40,861.60
304,840.86,845.65,0.00,1021.40,867.00
306,841.18,850.14,0.00,1021.40,862.00
308,841.50,854.63,0.00,1031.40,871.40
310,841.81,859.11,0.00,1024.10,862.10
312,842.13,863.60,0.00,1030.70,863.50
314,842.45,868.07,0.02,1039.80,860.90
316,842.77,872.55,2.05,1053.80,864.20
318,843.08,877.03,12.72,1077.90,867.60
320,843.40,881.50,30.17,1102.60,858.40
322,843.72,885.97,55.36,1153.40,862.50
324,844.04,890.43,95.50,1218.40,862.10
326,844.36,894.89,143.58,1290.60,861.90
328,844.67,899.35,165.30,1324.80,863.20
330,844.99,903.81,160.50,1322.20,860.90
332,845.31,908.26,124.36,1286.30,862.80
334,845.63,912.71,120.22,1286.70,861.80
336,845.95,917.16,147.92,1336.20,862.90
338,846.27,921.61,207.41,1467.30,892.40
340,846.58,926.05,304.22,1587.30,863.90
342,846.90,930.49,388.63,1717.00,861.90
344,847.22,934.92,433.81,1821.70,865.40
346,847.54,939.36,466.72,1930.80,860.30
348,847.86,943.79,621.81,2235.20,861.20
350,848.18,948.21,960.24,2733.50,860.10
352,848.49,952.64,1372.60,3235.20,862.00
354,848.81,957.06,1340.37,3183.30,858.90
356,849.13,961.48,917.94,2663.60,866.20
358,849.45,965.89,508.55,2051.80,863.50
360,849.77,970.31,303.59,1675.90,863.60
362,850.09,974.71,225.71,1506.90,863.90
364,850.40,979.12,203.50,1452.90,865.80
366,850.72,983.52,185.15,1426.30,869.00
368,851.04,987.92,194.84,1433.90,860.10
370,851.36,992.32,207.65,1463.40,863.20
372,851.68,996.72,248.12,1538.80,863.30
374,852.00,1001.11,308.91,1655.10,861.60
376,852.32,1005.50,420.19,1863.60,857.70
378,852.63,1009.88,619.39,2236.40,867.90
380,852.95,1014.26,947.97,2800.10,862.40
382,853.27,1018.64,1426.54,3587.10,865.60
384,853.59,1023.02,1957.74,4449.50,863.10
386,853.91,1027.39,2479.41,5345.00,859.20
388,854.23,1031.76,2974.04,6261.10,863.10
390,854.55,1036.13,3592.57,7275.60,861.90
392,854.87,1040.49,4364.52,8316.60,861.60
394,855.18,1044.86,4592.35,8643.60,866.00
396,855.50,1049.21,4149.66,8108.70,862.60
398,855.82,1053.57,3598.00,7261.90,867.80
400,856.14,1057.92,3071.09,6324.90,864.70
402,856.46,1062.27,2472.76,5285.50,860.20
404,856.78,1066.62,1761.43,4145.10,857.50
406,857.10,1070.96,1082.47,3081.50,861.10
408,857.42,1075.30,623.05,2306.40,867.20
410,857.74,1079.64,387.34,1855.90,862.00
412,858.06,1083.97,261.98,1610.50,860.90
414,858.37,1088.30,195.55,1474.20,858.30
416,858.69,1092.63,141.67,1382.30,859.50
418,859.01,1096.95,101.09,1319.50,861.60
420,859.33,1101.27,81.25,1280.80,861.40
422,859.65,1105.59,61.08,1245.70,861.70
424,859.97,1109.91,43.08,1220.60,864.70
426,860.29,1114.22,33.19,1203.10,862.00
428,860.61,1118.53,23.02,1185.50,860.10
430,860.93,1122.84,10.12,1168.20,862.20
432,861.25,1127.14,2.03,1151.90,864.90
434,861.56,1131.44,0.80,1143.30,862.70
436,861.88,1135.74,0.20,1134.00,861.30
438,862.20,1140.03,0.10,1128.10,861.00
440,862.52,1144.32,0.00,1122.00,861.80
442,862.84,1148.61,0.00,1117.60,862.20
444,863.16,1152.89,0.00,1107.60,862.10
446,863.48,1157.17,0.00,1108.40,864.10
448,863.80,1161.45,0.00,1098.80,861.70
450,864.12,1165.73,0.00,1098.60,862.80
452,864.44,1170.00,0.00,1098.00,863.40
454,864.76,1174.27,0.00,1100.00,862.90
456,865.07,1178.53,0.00,1098.60,860.70
458,865.39,1182.80,0.00,1104.60,862.50
460,865.71,1187.06,0.00,1109.30,863.80
462,866.03,1191.31,0.00,1110.90,862.80
464,866.35,1195.57,0.00,1113.20,861.50
466,866.67,1199.82,0.20,1121.50,862.10
468,866.99,1204.06,2.07,1127.70,861.40
470,867.31,1208.31,0.00,1125.90,864.20
472,867.63,1212.55,0.00,1130.20,861.10
474,867.95,1216.79,0.00,1134.30,857.10
476,868.27,1221.02,0.00,1148.00,859.10
478,868.58,1225.25,0.00,1158.70,860.20
480,868.90,1229.48,0.00,1171.70,861.70
482,869.22,1233.71,0.02,1182.80,861.80
484,869.54,1237.93,5.60,1200.60,864.00
486,869.86,1242.15,1.64,1207.40,862.40
488,870.18,1246.36,0.00,1209.90,859.80
490,870.50,1250.58,0.11,1226.50,863.50
492,870.82,1254.79,1.79,1245.00,868.60
494,871.14,1258.99,12.77,1264.30,862.60
496,871.46,1263.20,28.35,1290.50,863.20
498,871.78,1267.40,37.54,1313.10,863.20
500,872.10,1271.59,46.76,1336.50,862.70
502,872.41,1275.79,61.42,1365.30,862.30
504,872.73,1279.98,94.15,1420.10,861.60
506,873.05,1284.17,119.18,1469.40,864.00
508,873.37,1288.35,158.51,1527.60,858.80
510,873.69,1292.53,199.23,1599.40,860.20
512,874.01,1296.71,219.83,1657.30,860.30
514,874.33,1300.88,288.24,1777.60,856.50
516,874.65,1305.06,408.85,1949.00,862.00
518,874.97,1309.22,534.13,2092.50,861.40
520,875.29,1313.39,512.77,2077.10,862.00
522,875.60,1317.55,378.77,1927.70,863.70
524,875.92,1321.71,280.57,1793.70,863.10
526,876.24,1325.87,237.66,1719.60,863.50
528,876.56,1330.02,235.97,1698.30,858.90
530,876.88,1334.17,222.52,1683.20,865.40
532,877.20,1338.32,210.85,1666.50,859.90
534,877.52,1342.46,211.77,1673.40,860.40
536,877.84,1346.60,207.28,1671.90,861.40
538,878.16,1350.73,209.97,1676.70,858.50
540,878.47,1354.87,221.17,1699.20,860.00
542,878.79,1359.00,233.31,1723.30,861.80
544,879.11,1363.13,247.88,1749.40,863.30
546,879.43,1367.25,258.99,1769.00,858.30
548,879.75,1371.37,268.26,1795.40,861.30
550,880.07,1375.49,306.48,1856.50,859.70
552,880.39,1379.60,335.52,1915.60,861.20
554,880.71,1383.71,394.07,2012.00,860.40
556,881.03,1387.82,480.91,2154.40,861.80
558,881.34,1391.93,596.30,2350.90,857.50
560,881.66,1396.03,756.10,2633.80,859.90
562,881.98,1400.13,1015.53,3098.30,863.20
564,882.30,1404.22,1444.09,3853.00,862.90
566,882.62,1408.31,2238.01,5091.90,858.60
568,882.94,1412.40,3431.23,6722.30,865.20
570,883.26,1416.49,4536.72,8114.70,861.80
572,883.57,1420.57,4896.04,8598.80,867.20
574,883.89,1424.65,4388.42,7999.90,857.70
576,884.21,1428.73,3439.26,6777.70,862.60
578,884.53,1432.80,2536.35,5511.50,865.70
580,884.85,1436.87,1884.07,4496.10,860.90
582,885.17,1440.93,1544.06,3858.80,860.30
584,885.49,1445.00,1281.52,3384.10,861.70
586,885.80,1449.06,878.37,2831.00,860.00
588,886.12,1453.11,561.86,2381.90,862.80
590,886.44,1457.17,399.64,2105.60,858.80
592,886.76,1461.22,301.71,1933.90,861.30
594,887.08,1465.26,239.25,1836.40,865.00
596,887.40,1469.31,185.50,1753.90,859.70
598,887.71,1473.35,152.20,1700.40,859.40
600,888.03,1477.38,131.38,1667.30,860.00
602,888.35,1481.42,103.20,1632.60,861.90
604,888.67,1485.45,81.38,1600.60,861.70
606,888.99,1489.48,64.45,1575.40,857.60
608,889.31,1493.50,43.67,1554.80,861.70
610,889.62,1497.52,40.00,1542.10,860.80
612,889.94,1501.54,25.93,1516.50,855.70
614,890.26,1505.56,7.73,1498.60,863.00
616,890.58,1509.57,0.60,1478.10,865.10
618,890.90,1513.57,5.79,1471.70,859.50
620,891.21,1517.58,0.00,1450.30,862.30
622,891.53,1521.58,0.08,1447.10,861.60
624,891.85,1525.58,0.00,1437.20,865.50
626,892.17,1529.57,0.11,1432.00,863.90
628,892.49,1533.57,0.98,1421.70,861.60
630,892.80,1537.56,6.09,1414.40,857.40
632,893.12,1541.54,0.00,1399.50,860.40
634,893.44,1545.52,0.00,1386.40,861.10
636,893.76,1549.50,0.00,1381.10,857.70
638,894.07,1553.48,0.00,1381.40,864.30
640,894.39,1557.45,0.00,1375.20,860.30
642,894.71,1561.42,0.33,1376.50,863.40
644,895.03,1565.39,0.01,1365.30,858.40
646,895.34,1569.35,5.97,1375.50,864.50
648,895.66,1573.31,0.00,1359.30,860.50
650,895.98,1577.26,8.25,1368.50,860.80
652,896.30,1581.22,10.40,1365.10,860.10
654,896.61,1585.17,14.28,1370.50,861.70
656,896.93,1589.11,13.44,1370.30,863.70
658,897.25,1593.06,25.74,1376.40,859.40
660,897.57,1597.00,35.79,1382.50,858.60
662,897.88,1600.93,35.02,1383.00,860.40
664,898.20,1604.87,35.61,1384.00,861.00
666,898.52,1608.80,46.32,1392.90,860.30
668,898.84,1612.72,57.18,1397.30,857.00
670,899.15,1616.65,58.18,1404.80,865.80
672,899.47,1620.57,65.73,1408.00,861.00
674,899.79,1624.49,69.83,1407.70,860.00
676,900.10,1628.40,73.29,1407.00,859.30
678,900.42,1632.31,69.72,1404.50,862.20
680,900.74,1636.22,69.81,1396.50,857.80
682,901.05,1640.12,75.32,1403.60,864.90
684,901.37,1644.02,73.57,1394.30,860.30
686,901.69,1647.92,72.88,1393.60,862.10
688,902.00,1651.82,74.86,1390.30,861.90
690,902.32,1655.71,73.02,1383.20,862.30
692,902.64,1659.60,76.80,1382.50,859.20
694,902.95,1663.48,80.13,1387.10,863.30
696,903.27,1667.36,76.69,1371.30,857.90
698,903.59,1671.24,71.47,1370.20,865.00
700,903.90,1675.11,67.41,1359.60,861.90
702,904.22,1678.99,73.76,1357.20,859.60
704,904.54,1682.85,72.83,1357.90,865.60
706,904.85,1686.72,60.38,1335.80,860.30
708,905.17,1690.58,61.64,1335.10,863.10
710,905.49,1694.44,60.48,1324.80,858.80
712,905.80,1698.29,59.66,1320.50,860.10
714,906.12,1702.15,52.87,1311.30,862.80
716,906.43,1706.00,49.23,1302.40,863.20
718,906.75,1709.84,44.07,1293.40,864.60
720,907.07,1713.68,39.37,1279.40,858.80
722,907.38,1717.52,38.94,1273.60,860.70
724,907.70,1721.36,38.02,1269.10,862.50
726,908.01,1725.19,19.52,1248.50,863.90
728,908.33,1729.02,15.58,1236.80,861.90
730,908.65,1732.85,21.57,1235.50,859.40
732,908.96,1736.67,15.48,1226.90,861.60
734,909.28,1740.49,22.36,1231.30,861.40
736,909.59,1744.30,14.08,1219.10,862.20
738,909.91,1748.12,13.23,1212.60,860.20
740,910.22,1751.93,10.88,1209.20,864.40
742,910.54,1755.73,14.53,1210.00,866.40
744,910.85,1759.54,8.17,1199.80,861.50
746,911.17,1763.34,1.02,1183.20,860.80
748,911.49,1767.13,3.28,1181.50,860.10
750,911.80,1770.93,0.00,1168.90,856.80
752,912.12,1774.72,1.93,1174.50,860.90
754,912.43,1778.50,0.83,1166.70,858.00
756,912.75,1782.29,5.05,1170.70,858.80
758,913.06,1786.07,8.90,1170.00,859.70
760,913.38,1789.84,7.76,1170.00,862.90
762,913.69,1793.62,7.61,1168.30,863.00
764,914.01,1797.39,9.83,1165.70,862.40
766,914.32,1801.15,9.05,1158.70,860.00
768,914.64,1804.92,7.18,1154.70,860.00
770,914.95,1808.68,1.14,1147.80,864.30
772,915.26,1812.44,10.69,1152.40,860.90
774,915.58,1816.19,3.50,1140.50,859.90
776,915.89,1819.94,5.88,1142.20,861.10
778,916.21,1823.69,13.74,1147.10,862.10
780,916.52,1827.43,14.49,1147.20,863.70
782,916.84,1831.17,8.49,1134.50,860.60
784,917.15,1834.91,16.17,1139.10,858.80
786,917.47,1838.64,11.09,1134.60,863.00
788,917.78,1842.38,14.56,1134.90,863.90
790,918.09,1846.10,15.41,1129.60,860.60
792,918.41,1849.83,9.05,1122.90,861.90
794,918.72,1853.55,13.31,1124.20,860.50
796,919.04,1857.27,24.86,1129.50,859.10
798,919.35,1860.98,20.81,1122.50,859.50
800,919.66,1864.69,19.82,1121.70,859.90
802,919.98,1868.40,19.89,1119.50,860.90
804,920.29,1872.11,29.67,1124.80,859.00
806,920.60,1875.81,32.96,1122.00,856.00
808,920.92,1879.51,32.61,1120.80,857.30
810,921.23,1883.20,25.59,1113.50,860.50
812,921.55,1886.90,35.40,1117.60,857.90
814,921.86,1890.58,32.78,1115.90,861.30
816,922.17,1894.27,31.00,1115.50,866.20
818,922.49,1897.95,27.32,1103.90,860.50
820,922.80,1901.63,25.93,1099.70,860.40
822,923.11,1905.31,30.90,1098.90,859.80
824,923.42,1908.98,23.89,1092.90,863.70
826,923.74,1912.65,24.85,1091.00,862.00
828,924.05,1916.31,24.13,1085.10,860.90
830,924.36,1919.98,32.35,1088.20,858.50
832,924.68,1923.64,23.96,1076.50,858.30
834,924.99,1927.29,24.28,1078.10,861.90
836,925.30,1930.94,24.05,1070.90,858.20
838,925.61,1934.59,24.74,1072.50,862.40
840,925.93,1938.24,28.77,1073.00,859.90
842,926.24,1941.88,23.08,1064.70,860.70
844,926.55,1945.52,33.59,1068.40,857.20
846,926.86,1949.16,33.81,1069.50,859.60
848,927.18,1952.79,31.64,1065.10,859.90
850,927.49,1956.42,40.78,1068.10,858.30
852,927.80,1960.05,37.23,1073.40,868.60
854,928.11,1963.67,31.92,1060.20,862.30
856,928.42,1967.29,32.32,1055.60,861.50
858,928.74,1970.91,37.44,1056.30,860.50
860,929.05,1974.52,28.77,1048.50,862.70
862,929.36,1978.13,34.82,1047.00,857.70
864,929.67,1981.74,31.42,1041.10,860.40
866,929.98,1985.35,28.43,1038.10,862.30
868,930.29,1988.95,26.11,1032.50,860.50
870,930.61,1992.54,24.26,1026.60,859.60
872,930.92,1996.14,21.34,1021.10,861.00
874,931.23,1999.73,20.16,1019.00,862.60
876,931.54,2003.32,20.04,1015.70,861.60
878,931.85,2006.90,19.72,1011.10,860.70
880,932.16,2010.48,23.72,1009.50,858.00
882,932.47,2014.06,14.53,1000.90,859.70
884,932.78,2017.63,17.37,1001.80,859.70
886,933.09,2021.21,16.43,995.20,858.80
888,933.41,2024.77,16.70,994.20,861.30
890,933.72,2028.34,14.26,993.60,863.50
892,934.03,2031.90,7.01,984.70,863.60
894,934.34,2035.46,6.45,978.70,862.30
896,934.65,2039.01,5.10,971.90,859.10
898,934.96,2042.57,6.82,973.90,861.60
900,935.27,2046.11,3.27,969.40,863.60
902,935.58,2049.66,1.60,960.40,858.30
904,935.89,2053.20,2.30,959.50,859.10
906,936.20,2056.74,0.00,956.20,862.70
908,936.51,2060.28,0.00,956.20,863.30
910,936.82,2063.81,0.00,952.80,862.10
912,937.13,2067.34,1.80,954.40,863.00
914,937.44,2070.86,7.91,951.30,857.90
916,937.75,2074.39,0.81,943.40,857.40
918,938.06,2077.91,3.06,946.40,859.70
920,938.37,2081.42,2.92,944.10,859.00
922,938.68,2084.94,1.23,939.90,859.10
924,938.99,2088.45,2.96,941.50,860.70
926,939.30,2091.95,3.71,939.70,859.30
928,939.60,2095.46,0.85,937.30,862.20
930,939.91,2098.96,8.64,941.80,861.30
932,940.22,2102.45,3.25,935.80,861.00
934,940.53,2105.95,6.50,933.40,857.00
936,940.84,2109.44,3.53,930.30,859.50
938,941.15,2112.92,9.49,934.30,860.00
940,941.46,2116.41,0.00,923.00,859.60
942,941.77,2119.89,3.54,929.20,862.80
944,942.07,2123.37,2.82,923.00,859.30
946,942.38,2126.84,4.56,924.60,861.40
948,942.69,2130.31,1.11,921.80,861.70
950,943.00,2133.78,0.00,917.00,861.80
952,943.31,2137.24,0.68,916.80,859.90
954,943.62,2140.70,0.00,912.70,862.80
956,943.92,2144.16,5.82,915.30,858.40
958,944.23,2147.62,1.26,915.90,862.00
960,944.54,2151.07,0.00,914.00,864.20
962,944.85,2154.52,1.63,915.70,864.00
964,945.16,2157.96,0.00,909.90,864.60
966,945.46,2161.40,0.00,909.40,862.60
968,945.77,2164.84,1.52,907.00,856.40
970,946.08,2168.28,2.72,911.40,860.30
972,946.39,2171.71,3.71,910.40,858.90
974,946.69,2175.14,4.82,914.20,861.10
976,947.00,2178.57,2.75,912.40,861.30
978,947.31,2181.99,9.90,915.40,857.90
980,947.61,2185.41,16.29,922.00,860.40
982,947.92,2188.82,13.57,922.20,862.70
984,948.23,2192.24,18.83,921.50,858.70
986,948.53,2195.65,17.97,921.10,859.60
988,948.84,2199.05,12.74,915.50,856.00
990,949.15,2202.46,8.48,917.20,861.50
992,949.45,2205.86,11.67,917.00,859.90
994,949.76,2209.25,14.66,917.20,858.10
996,950.07,2212.65,17.16,920.30,859.50
998,950.37,2216.04,20.60,921.30,857.60
1000,950.68,2219.43,16.56,921.00,860.20
1002,950.98,2222.81,20.38,924.40,862.20
1004,951.29,2226.19,28.15,925.80,857.90
1006,951.60,2229.57,15.77,917.70,858.60
1008,951.90,2232.94,23.26,922.90,858.40
1010,952.21,2236.32,20.11,919.50,858.50
1012,952.51,2239.68,16.55,918.10,859.20
1014,952.82,2243.05,8.88,910.30,858.20
1016,953.12,2246.41,12.78,917.10,861.90
1018,953.43,2249.77,8.76,918.70,867.60
1020,953.73,2253.12,15.50,920.20,863.70
1022,954.04,2256.48,13.64,912.90,858.40
1024,954.34,2259.83,16.51,918.50,861.80
1026,954.65,2263.17,20.26,919.70,860.20
1028,954.95,2266.51,21.46,918.30,858.80
1030,955.26,2269.85,27.02,924.60,861.90
1032,955.56,2273.19,15.73,918.70,863.10
1034,955.87,2276.52,15.60,919.60,862.80
1036,956.17,2279.85,15.84,919.00,864.30
1038,956.48,2283.18,19.53,915.70,859.40
1040,956.78,2286.50,13.28,913.60,861.30
1042,957.08,2289.82,20.78,915.90,856.90
1044,957.39,2293.14,26.95,924.60,861.10
1046,957.69,2296.45,30.29,924.00,858.50
1048,957.99,2299.76,39.49,936.60,865.60
1050,958.30,2303.07,44.95,937.50,862.00
1052,958.60,2306.38,45.42,939.60,862.70
1054,958.91,2309.68,52.64,943.40,862.60
1056,959.21,2312.98,59.66,944.20,859.20
1058,959.51,2316.27,49.55,940.10,861.20
1060,959.82,2319.56,51.03,942.80,862.30
1062,960.12,2322.85,51.08,937.80,859.00
1064,960.42,2326.14,58.67,941.60,858.30
1066,960.72,2329.42,51.70,937.80,859.30
1068,961.03,2332.70,51.03,938.10,859.70
1070,961.33,2335.97,51.04,938.00,860.10
1072,961.63,2339.25,50.23,936.80,860.00
1074,961.93,2342.52,57.13,939.00,858.90
1076,962.24,2345.78,54.05,935.80,859.10
1078,962.54,2349.05,39.46,930.70,863.20
1080,962.84,2352.31,39.09,927.80,860.40
1082,963.14,2355.56,37.99,923.40,859.10
1084,963.45,2358.82,35.62,920.30,858.00
1086,963.75,2362.07,28.94,921.70,862.50
1088,964.05,2365.32,23.07,920.10,865.50
1090,964.35,2368.56,22.29,913.60,860.90
1092,964.65,2371.80,25.46,915.20,861.40
1094,964.95,2375.04,24.20,911.60,858.90
1096,965.25,2378.27,18.27,908.60,859.60
1098,965.56,2381.51,17.82,911.40,862.40
1100,965.86,2384.73,20.67,912.30,862.30
1102,966.16,2387.96,25.65,913.00,861.10
1104,966.46,2391.18,17.85,910.60,864.10
1106,966.76,2394.40,18.08,908.50,861.50
1108,967.06,2397.62,13.87,906.20,862.00
1110,967.36,2400.83,22.52,908.60,859.20
1112,967.66,2404.04,14.65,908.30,864.50
1114,967.96,2407.25,11.30,900.90,859.00
1116,968.26,2410.45,12.28,902.40,860.10
1118,968.56,2413.65,16.86,905.00,859.80
1120,968.86,2416.85,12.96,906.40,864.70
1122,969.16,2420.04,16.02,903.90,860.60
1124,969.46,2423.23,12.52,901.50,860.20
1126,969.76,2426.42,20.43,905.50,859.40
1128,970.06,2429.60,23.95,904.00,856.30
1130,970.36,2432.79,17.76,903.90,859.70
1132,970.66,2435.96,19.48,904.10,859.20
1134,970.96,2439.14,21.36,905.00,859.80
1136,971.26,2442.31,18.86,906.30,862.60
1138,971.56,2445.48,17.46,904.40,861.30
1140,971.86,2448.65,25.01,907.20,859.60
1142,972.16,2451.81,20.29,905.50,862.10
1144,972.45,2454.97,22.76,905.00,860.00
1146,972.75,2458.13,14.66,903.80,863.20
1148,973.05,2461.28,16.19,900.30,859.00
1150,973.35,2464.43,21.29,904.30,861.60
1152,973.65,2467.58,22.13,901.10,857.80
1154,973.95,2470.72,12.15,899.60,861.80
1156,974.24,2473.86,16.33,901.10,861.40
1158,974.54,2477.00,13.67,898.00,860.30
1160,974.84,2480.13,12.67,899.40,861.60
1162,975.14,2483.27,9.80,895.60,860.50
1164,975.43,2486.40,17.14,894.30,855.80
1166,975.73,2489.52,4.54,893.00,861.60
1168,976.03,2492.64,7.09,893.70,861.00
1170,976.33,2495.76,9.06,893.10,859.60
1172,976.62,2498.88,4.14,889.70,858.90
1174,976.92,2501.99,3.05,891.80,861.90
1176,977.22,2505.10,1.36,890.00,861.70
1178,977.51,2508.21,9.23,890.40,858.30
1180,977.81,2511.31,0.00,887.40,860.30
1182,978.11,2514.41,0.00,888.00,861.40
1184,978.40,2517.51,4.36,889.30,859.30
1186,978.70,2520.61,0.95,889.80,862.10
1188,979.00,2523.70,0.00,888.10,861.80
1190,979.29,2526.79,0.00,887.70,861.60
1192,979.59,2529.87,2.96,890.50,861.00
1194,979.88,2532.95,5.79,890.50,859.10
1196,980.18,2536.03,9.67,894.40,860.30
1198,980.48,2539.11,9.15,897.70,862.70
1200,980.77,2542.18,3.15,892.40,860.90
1202,981.07,2545.25,11.55,899.30,862.80
1204,981.36,2548.32,12.80,899.60,861.50
1206,981.66,2551.38,19.50,906.40,863.40
1208,981.95,2554.44,25.89,908.40,861.80
1210,982.25,2557.50,35.13,917.00,864.10
1212,982.54,2560.56,46.33,924.20,864.20
1214,982.84,2563.61,79.59,942.80,865.40
1216,983.13,2566.66,96.62,950.00,864.30
1218,983.43,2569.70,130.09,966.10,863.40
1220,983.72,2572.74,154.39,977.90,864.40
1222,984.01,2575.78,164.64,982.80,864.10
1224,984.31,2578.82,175.73,984.70,859.20
1226,984.60,2581.85,161.02,980.50,862.00
1228,984.90,2584.88,159.61,976.30,858.50
1230,985.19,2587.91,150.73,971.60,857.70
1232,985.48,2590.93,123.67,964.30,863.10
1234,985.78,2593.96,115.63,959.60,862.30
1236,986.07,2596.97,107.33,956.20,863.50
1238,986.36,2599.99,100.15,954.90,865.40
1240,986.66,2603.00,101.70,954.70,864.40
1242,986.95,2606.01,103.19,953.70,863.30
1244,987.24,2609.01,103.76,952.50,861.80
1246,987.54,2612.02,106.29,949.70,858.10
1248,987.83,2615.02,121.98,960.10,861.60
1250,988.12,2618.01,117.39,962.50,866.00
1252,988.41,2621.01,126.15,965.20,864.40
1254,988.71,2624.00,143.58,967.20,859.60
1256,989.00,2626.99,132.04,964.40,863.00
1258,989.29,2629.97,116.58,958.40,863.60
1260,989.58,2632.95,107.56,951.50,860.70
1262,989.87,2635.93,97.95,951.00,863.80
1264,990.16,2638.91,70.18,937.50,862.20
1266,990.46,2641.88,64.85,935.70,863.30
1268,990.75,2644.85,54.56,934.10,867.80
1270,991.04,2647.81,50.78,926.00,861.70
1272,991.33,2650.78,40.34,923.40,862.40
1274,991.62,2653.74,21.08,917.50,865.00
1276,991.91,2656.70,28.21,917.40,862.10
1278,992.20,2659.65,21.28,913.70,862.20
1280,992.49,2662.60,10.46,910.60,863.60
1282,992.78,2665.55,18.99,917.30,865.70
1284,993.07,2668.50,9.32,912.60,865.20
1286,993.36,2671.44,11.01,912.70,865.00
1288,993.65,2674.38,20.09,915.10,864.50
1290,993.94,2677.31,16.67,913.40,862.60
1292,994.23,2680.25,0.00,907.30,864.50
1294,994.52,2683.18,1.40,908.80,863.20
1296,994.81,2686.10,0.00,908.60,864.70
1298,995.10,2689.03,4.65,909.90,861.40
1300,995.39,2691.95,9.66,911.50,862.90
1302,995.68,2694.87,2.89,914.30,867.20
1304,995.97,2697.78,3.07,913.80,865.20
1306,996.26,2700.70,1.69,909.00,860.40
1308,996.55,2703.61,0.00,911.10,866.20
1310,996.84,2706.51,0.00,914.90,866.30
1312,997.13,2709.42,2.79,913.00,862.40
1314,997.41,2712.32,5.34,918.80,865.00
1316,997.70,2715.21,0.00,914.50,863.40
1318,997.99,2718.11,0.00,915.30,863.80
1320,998.28,2721.00,4.43,916.20,859.30
1322,998.57,2723.89,18.47,923.80,862.90
1324,998.86,2726.77,0.00,917.10,863.20
1326,999.14,2729.66,0.00,919.70,863.00
1328,999.43,2732.54,2.88,926.50,865.60
1330,999.72,2735.41,0.00,925.60,864.40
1332,1000.01,2738.29,0.00,928.10,865.70
1334,1000.29,2741.16,6.68,930.00,862.60
1336,1000.58,2744.03,9.51,929.10,859.40
1338,1000.87,2746.89,3.23,934.50,863.40
1340,1001.15,2749.75,0.00,934.10,862.80
1342,1001.44,2752.61,0.00,935.20,865.00
1344,1001.73,2755.47,0.00,935.50,865.40
1346,1002.01,2758.32,0.00,943.10,863.60
1348,1002.30,2761.17,0.00,947.00,865.70
1350,1002.59,2764.02,0.00,951.40,864.70
1352,1002.87,2766.86,0.00,949.30,862.70
1354,1003.16,2769.70,0.00,953.70,860.90
1356,1003.44,2772.54,0.00,959.00,860.40
1358,1003.73,2775.38,0.00,967.70,862.30
1360,1004.01,2778.21,0.00,976.30,859.90
1362,1004.30,2781.04,0.00,988.80,864.30
1364,1004.58,2783.87,0.00,1002.50,862.20
1366,1004.87,2786.69,0.00,1024.80,862.60
1368,1005.15,2789.51,0.91,1056.80,863.20
1370,1005.44,2792.33,27.36,1097.90,867.00
1372,1005.72,2795.14,161.13,1150.10,862.30
1374,1006.01,2797.95,330.62,1210.30,865.20
1376,1006.29,2800.76,443.73,1258.80,865.40
1378,1006.58,2803.57,559.86,1312.90,868.20
1380,1006.86,2806.37,642.45,1348.30,863.00
1382,1007.14,2809.17,623.51,1361.50,863.80
1384,1007.43,2811.97,592.79,1368.20,860.50
1386,1007.71,2814.77,545.37,1371.00,859.70
1388,1008.00,2817.56,478.31,1367.10,862.60
1390,1008.28,2820.35,493.08,1385.80,865.80
1392,1008.56,2823.13,420.93,1374.30,864.20
1394,1008.85,2825.91,365.15,1375.00,866.60
1396,1009.13,2828.69,291.45,1365.50,864.40
1398,1009.41,2831.47,240.99,1363.60,864.00
1400,1009.69,2834.24,185.59,1353.50,859.00
1402,1009.98,2837.02,104.34,1347.30,863.60
1404,1010.26,2839.78,49.27,1352.80,863.70
1406,1010.54,2842.55,2.70,1343.90,858.80
1408,1010.82,2845.31,0.00,1355.70,866.00
1410,1011.11,2848.07,0.00,1367.60,865.40
1412,1011.39,2850.83,0.00,1381.80,865.40
1414,1011.67,2853.58,4.22,1401.30,863.20
1416,1011.95,2856.33,50.01,1432.70,862.80
1418,1012.23,2859.08,171.56,1466.40,861.80
1420,1012.51,2861.83,360.22,1514.00,862.00
1422,1012.80,2864.57,599.99,1583.60,868.60
1424,1013.08,2867.31,858.53,1646.90,864.20
1426,1013.36,2870.04,1145.84,1720.90,865.60
1428,1013.64,2872.78,1413.10,1787.90,865.80
1430,1013.92,2875.51,1613.32,1844.20,869.50
1432,1014.20,2878.24,1830.60,1901.20,865.60
1434,1014.48,2880.96,2012.23,1953.70,865.60
1436,1014.76,2883.68,2233.02,2014.90,864.10
1438,1015.04,2886.40,2501.99,2090.20,863.90
1440,1015.32,2889.12,2900.92,2200.20,865.20
1442,1015.60,2891.83,3530.49,2369.50,863.00
1444,1015.88,2894.54,4305.73,2602.70,866.00
1446,1016.16,2897.25,5400.32,2966.80,860.70
1448,1016.44,2899.96,6993.71,3549.50,867.00
1450,1016.72,2902.66,10005.28,4529.50,866.20
1452,1017.00,2905.36,15992.00,6074.60,868.00
1454,1017.28,2908.06,27350.24,8305.20,862.50
1456,1017.55,2910.75,41169.52,10404.20,865.60
1458,1017.83,2913.44,47678.00,11243.00,861.70
1460,1018.11,2916.13,39967.79,10128.00,867.20
1462,1018.39,2918.81,26675.54,7982.70,865.50
1464,1018.67,2921.49,16405.59,5906.50,862.60
1466,1018.95,2924.17,10571.51,4418.20,865.70
1468,1019.22,2926.85,7306.59,3427.90,866.60
1470,1019.50,2929.52,5335.61,2798.70,862.60
1472,1019.78,2932.20,3924.38,2384.60,861.10
1474,1020.06,2934.86,2815.55,2097.10,864.90
1476,1020.33,2937.53,1951.59,1880.90,867.20
1478,1020.61,2940.19,1340.23,1723.20,866.50
1480,1020.89,2942.85,977.09,1627.30,865.10
1482,1021.17,2945.51,625.33,1541.20,864.00
1484,1021.44,2948.16,308.20,1473.80,865.00
1486,1021.72,2950.81,108.20,1428.10,864.20
1488,1022.00,2953.46,26.58,1401.60,867.00
1490,1022.27,2956.11,10.40,1384.20,864.30
1492,1022.55,2958.75,15.34,1378.40,864.80
1494,1022.82,2961.39,56.79,1383.40,865.50
1496,1023.10,2964.03,185.70,1405.50,867.10
1498,1023.38,2966.66,378.27,1429.90,865.80
1500,1023.65,2969.29,608.65,1466.90,867.40
1502,1023.93,2971.92,949.28,1530.60,865.80
1504,1024.20,2974.55,1399.76,1622.80,866.40
1506,1024.48,2977.17,1934.68,1733.50,865.70
1508,1024.75,2979.79,2754.14,1902.80,861.00
1510,1025.03,2982.41,3936.10,2140.80,862.30
1512,1025.30,2985.02,5715.84,2462.50,862.20
1514,1025.58,2987.63,8013.76,2837.30,862.90
1516,1025.85,2990.24,10477.28,3215.50,863.50
1518,1026.13,2992.85,12340.86,3489.30,866.10
1520,1026.40,2995.45,13443.13,3640.50,867.00
1522,1026.68,2998.05,13614.78,3642.60,864.20
1524,1026.95,3000.65,12629.53,3472.30,866.30
1526,1027.22,3003.25,10862.36,3175.40,863.70
1528,1027.50,3005.84,8949.58,2851.80,862.80
1530,1027.77,3008.43,6972.09,2503.70,865.80
1532,1028.04,3011.02,5451.40,2218.40,867.40
1534,1028.32,3013.60,4236.08,1970.80,863.30
1536,1028.59,3016.18,3353.70,1793.40,869.00
1538,1028.86,3018.76,2657.79,1637.00,858.30
1540,1029.14,3021.34,2105.45,1526.20,864.20
1542,1029.41,3023.91,1673.72,1432.90,863.00
1544,1029.68,3026.48,1334.23,1358.50,861.20
1546,1029.95,3029.05,1033.57,1297.90,864.40
1548,1030.22,3031.61,829.49,1253.00,865.10
1550,1030.50,3034.17,635.81,1207.80,863.10
1552,1030.77,3036.73,517.04,1177.30,862.40
1554,1031.04,3039.29,375.98,1146.90,865.10
1556,1031.31,3041.84,318.27,1124.50,859.80
1558,1031.58,3044.39,178.21,1101.60,868.00
1560,1031.85,3046.94,118.07,1081.90,865.80
1562,1032.13,3049.49,97.52,1068.40,862.40
1564,1032.40,3052.03,43.46,1053.20,864.20
1566,1032.67,3054.57,17.03,1039.20,863.40
1568,1032.94,3057.11,9.71,1032.80,865.60
1570,1033.21,3059.64,0.00,1012.70,861.20
1572,1033.48,3062.18,0.00,1010.00,867.90
1574,1033.75,3064.70,8.91,1000.60,863.50
1576,1034.02,3067.23,0.00,993.20,866.40
1578,1034.29,3069.75,0.00,978.20,859.30
1580,1034.56,3072.28,0.00,977.10,864.30
1582,1034.83,3074.79,0.00,967.10,860.80
1584,1035.10,3077.31,0.00,961.80,867.10
1586,1035.37,3079.82,0.00,954.60,862.40
1588,1035.64,3082.33,0.00,958.10,867.70
1590,1035.91,3084.84,0.00,951.00,865.20
1592,1036.17,3087.34,0.00,940.40,864.30
1594,1036.44,3089.85,0.80,942.40,865.00
1596,1036.71,3092.35,0.00,934.30,862.70
1598,1036.98,3094.84,2.61,930.80,860.10
1600,1037.25,3097.34,12.48,927.60,859.10
1602,1037.52,3099.83,0.00,925.50,865.00
1604,1037.78,3102.32,24.53,924.40,860.60
1606,1038.05,3104.80,0.00,927.10,868.80
1608,1038.32,3107.29,4.94,920.10,862.70
1610,1038.59,3109.77,1.81,917.10,862.70
1612,1038.85,3112.24,6.59,916.30,863.40
1614,1039.12,3114.72,2.29,916.40,865.80
1616,1039.39,3117.19,0.00,909.80,861.80
1618,1039.66,3119.66,26.35,915.10,864.70
1620,1039.92,3122.13,0.00,912.10,866.30
1622,1040.19,3124.59,2.96,909.50,864.40
1624,1040.45,3127.05,0.00,906.20,864.50
1626,1040.72,3129.51,10.70,907.20,863.70
1628,1040.99,3131.97,0.00,906.60,867.20
1630,1041.25,3134.42,15.55,910.80,868.10
1632,1041.52,3136.87,8.90,901.70,859.50
1634,1041.78,3139.32,0.00,905.10,865.80
1636,1042.05,3141.77,12.39,912.30,870.90
1638,1042.32,3144.21,41.07,904.00,861.40
1640,1042.58,3146.65,15.23,906.70,867.00
1642,1042.85,3149.09,0.71,904.50,866.60
1644,1043.11,3151.52,11.68,904.70,865.80
1646,1043.38,3153.96,40.70,905.00,863.00
1648,1043.64,3156.39,38.38,903.30,862.00
1650,1043.90,3158.81,28.16,902.60,863.00
1652,1044.17,3161.24,50.56,908.50,867.20
1654,1044.43,3163.66,97.04,905.70,861.10
1656,1044.70,3166.08,46.12,908.90,869.80
1658,1044.96,3168.49,63.97,903.70,863.10
1660,1045.22,3170.91,137.82,908.70,860.70
1662,1045.49,3173.32,60.33,904.70,864.50
1664,1045.75,3175.73,64.07,906.80,866.20
1666,1046.01,3178.13,86.91,904.80,862.50
1668,1046.28,3180.54,168.69,914.20,865.30
1670,1046.54,3182.94,120.03,910.90,868.00
1672,1046.80,3185.34,203.15,914.60,864.40
1674,1047.07,3187.73,158.86,909.00,862.20
1676,1047.33,3190.12,154.98,912.20,865.40
1678,1047.59,3192.51,181.94,913.70,865.20
1680,1047.85,3194.90,210.45,918.80,869.60
1682,1048.11,3197.29,227.59,914.30,864.70
1684,1048.38,3199.67,190.70,915.70,868.90
1686,1048.64,3202.05,191.57,914.90,867.60
1688,1048.90,3204.43,233.28,916.90,866.60
1690,1049.16,3206.80,272.77,916.80,864.30
1692,1049.42,3209.17,280.97,920.70,868.00
1694,1049.68,3211.54,290.82,917.20,864.10
1696,1049.94,3213.91,361.35,919.80,861.90
1698,1050.20,3216.27,332.03,918.80,864.20
1700,1050.46,3218.63,281.16,920.70,870.20
1702,1050.72,3220.99,312.53,918.40,865.30
1704,1050.98,3223.35,356.62,923.00,867.00
1706,1051.24,3225.70,322.00,918.20,866.00
1708,1051.50,3228.05,351.19,918.40,864.40
1710,1051.76,3230.40,358.10,921.00,866.80
1712,1052.02,3232.75,369.46,919.70,865.10
1714,1052.28,3235.09,383.98,920.30,865.40
1716,1052.54,3237.43,387.12,917.70,863.40
1718,1052.80,3239.77,430.33,918.60,861.60
1720,1053.06,3242.11,403.49,919.00,864.60
1722,1053.32,3244.44,414.30,917.40,862.60
1724,1053.58,3246.77,390.98,923.30,870.60
1726,1053.84,3249.10,435.14,918.30,862.80
1728,1054.10,3251.42,375.65,916.00,865.90
1730,1054.35,3253.75,435.06,917.70,864.10
1732,1054.61,3256.07,361.44,917.70,869.40
1734,1054.87,3258.39,363.03,915.50,867.00
1736,1055.13,3260.70,408.99,914.60,863.80
1738,1055.38,3263.01,427.20,914.40,863.90
1740,1055.64,3265.32,436.20,914.70,864.20
1742,1055.90,3267.63,439.83,912.20,861.30
1744,1056.16,3269.94,387.38,917.10,870.00
1746,1056.41,3272.24,413.61,917.20,868.80
1748,1056.67,3274.54,392.48,911.80,865.40
1750,1056.93,3276.84,347.11,911.60,869.00
1752,1057.18,3279.13,412.09,909.10,863.00
1754,1057.44,3281.42,393.83,907.70,863.30
1756,1057.69,3283.71,390.91,907.30,863.60
1758,1057.95,3286.00,360.85,910.30,869.00
1760,1058.21,3288.28,378.48,907.40,865.10
1762,1058.46,3290.57,336.37,906.40,866.60
1764,1058.72,3292.85,348.46,907.20,866.80
1766,1058.97,3295.12,361.81,902.90,862.60
1768,1059.23,3297.40,385.91,902.00,861.50
1770,1059.48,3299.67,352.79,906.80,869.00
1772,1059.74,3301.94,370.05,900.80,862.00
1774,1059.99,3304.21,331.36,902.70,866.00
1776,1060.25,3306.47,302.44,904.20,869.50
1778,1060.50,3308.73,360.29,900.20,862.90
1780,1060.76,3310.99,431.62,902.40,862.00
1782,1061.01,3313.25,382.26,901.30,864.30
1784,1061.26,3315.50,374.50,899.20,863.00
1786,1061.52,3317.76,348.79,900.50,865.80
1788,1061.77,3320.01,388.40,901.10,864.00
1790,1062.02,3322.25,259.90,893.70,863.80
1792,1062.28,3324.50,276.23,896.80,866.40
1794,1062.53,3326.74,347.39,894.60,861.20
1796,1062.78,3328.98,304.21,894.80,864.60
1798,1063.04,3331.22,360.95,896.50,863.90
1800,1063.29,3333.45,375.57,894.50,861.20
1802,1063.54,3335.68,322.70,894.00,863.50
1804,1063.79,3337.91,294.13,895.90,867.20
1806,1064.05,3340.14,312.28,898.80,869.50
1808,1064.30,3342.36,293.04,892.00,863.80
1810,1064.55,3344.59,324.26,897.50,867.80
1812,1064.80,3346.81,258.70,889.40,863.30
1814,1065.05,3349.02,300.10,891.10,863.60
1816,1065.30,3351.24,302.20,892.80,865.80
1818,1065.55,3353.45,337.49,891.50,862.80
1820,1065.81,3355.66,217.97,895.30,872.20
1822,1066.06,3357.87,314.05,890.30,863.20
1824,1066.31,3360.07,326.76,890.80,864.30
1826,1066.56,3362.27,297.75,891.70,866.80
1828,1066.81,3364.47,261.72,887.60,863.90
1830,1067.06,3366.67,280.60,890.90,866.20
1832,1067.31,3368.87,336.51,890.00,863.30
1834,1067.56,3371.06,344.14,887.50,861.30
1836,1067.81,3373.25,371.82,888.00,861.20
1838,1068.06,3375.44,290.24,887.00,863.80
1840,1068.31,3377.62,310.74,886.00,862.00
1842,1068.56,3379.81,333.60,887.40,862.60
1844,1068.80,3381.99,350.27,894.80,869.40
1846,1069.05,3384.16,258.24,888.10,866.60
1848,1069.30,3386.34,210.56,884.60,865.50
1850,1069.55,3388.51,453.99,888.70,860.90
1852,1069.80,3390.68,302.82,886.00,864.70
1854,1070.05,3392.85,303.37,893.20,871.70
1856,1070.30,3395.02,355.83,889.50,865.00
1858,1070.54,3397.18,196.21,883.70,865.40
1860,1070.79,3399.34,329.37,887.40,863.90
1862,1071.04,3401.50,344.00,886.00,863.70
1864,1071.29,3403.66,368.87,882.70,860.90
1866,1071.53,3405.81,423.64,887.60,863.90
1868,1071.78,3407.96,285.25,883.60,863.90
1870,1072.03,3410.11,347.00,886.60,864.10
1872,1072.27,3412.26,278.46,884.00,864.70
1874,1072.52,3414.40,370.53,884.80,863.10
1876,1072.77,3416.54,293.49,882.20,863.70
1878,1073.01,3418.68,389.39,886.80,865.00
1880,1073.26,3420.82,227.17,879.40,862.90
1882,1073.51,3422.96,216.37,882.60,866.40
1884,1073.75,3425.09,281.71,883.10,865.00
1886,1074.00,3427.22,361.28,879.50,859.60
1888,1074.24,3429.35,464.01,887.90,865.30
1890,1074.49,3431.47,305.06,880.70,863.10
1892,1074.73,3433.59,326.51,879.40,861.10
1894,1074.98,3435.71,354.20,885.10,866.20
1896,1075.22,3437.83,370.11,883.10,863.90
1898,1075.47,3439.95,380.69,885.10,865.50
1900,1075.71,3442.06,320.64,882.90,865.30
1902,1075.96,3444.17,277.79,879.70,863.80
1904,1076.20,3446.28,335.22,876.50,859.20
1906,1076.44,3448.38,301.45,884.60,868.60
1908,1076.69,3450.49,271.79,882.60,867.80
1910,1076.93,3452.59,280.81,881.00,866.20
1912,1077.17,3454.69,378.22,879.70,861.90
1914,1077.42,3456.79,98.41,878.30,868.60
1916,1077.66,3458.88,278.55,877.90,862.70
1918,1077.90,3460.97,296.78,876.80,861.60
1920,1078.15,3463.06,259.30,881.50,867.80
1922,1078.39,3465.15,220.23,879.80,867.40
1924,1078.63,3467.23,324.31,875.90,860.90
1926,1078.87,3469.32,407.13,881.70,864.70
1928,1079.12,3471.40,158.14,874.20,863.90
1930,1079.36,3473.47,256.59,883.00,870.10
1932,1079.60,3475.55,223.74,873.40,861.50
1934,1079.84,3477.62,401.03,880.90,864.40
1936,1080.08,3479.69,289.99,877.10,863.70
1938,1080.33,3481.76,321.14,875.90,861.90
1940,1080.57,3483.83,251.81,877.10,865.20
1942,1080.81,3485.89,428.00,879.80,864.00
1944,1081.05,3487.95,294.52,878.00,865.60
1946,1081.29,3490.01,222.88,876.40,865.60
1948,1081.53,3492.07,262.10,872.70,860.70
1950,1081.77,3494.12,96.46,871.60,863.90
1952,1082.01,3496.18,238.50,877.90,866.80
1954,1082.25,3498.23,208.47,872.10,861.80
1956,1082.49,3500.27,126.04,875.10,866.80
1958,1082.73,3502.32,159.10,871.00,862.00
1960,1082.97,3504.36,295.63,875.40,863.90
1962,1083.21,3506.40,379.68,874.10,861.70
1964,1083.45,3508.44,332.38,870.30,858.70
1966,1083.69,3510.48,201.52,878.20,868.70
1968,1083.93,3512.51,82.12,873.40,866.60
1970,1084.16,3514.54,365.97,876.60,862.80
1972,1084.40,3516.57,167.20,872.80,864.70
1974,1084.64,3518.60,334.34,873.00,862.10
1976,1084.88,3520.62,223.81,872.80,864.00
1978,1085.12,3522.65,280.46,877.40,867.00
1980,1085.36,3524.67,214.07,874.00,864.90
1982,1085.59,3526.68,256.25,873.10,863.40
1984,1085.83,3528.70,38.66,871.40,866.50
1986,1086.07,3530.71,346.27,872.20,861.40
1988,1086.31,3532.72,297.66,875.60,865.30
1990,1086.54,3534.73,10.10,868.90,864.70
1992,1086.78,3536.74,376.46,876.70,864.80
1994,1087.02,3538.74,200.47,873.80,866.20
1996,1087.25,3540.74,432.01,871.90,860.30
1998,1087.49,3542.74,251.00,873.80,865.20
2000,1087.73,3544.74,60.87,870.30,865.40
2002,1087.96,3546.74,225.12,872.00,863.70
2004,1088.20,3548.73,238.21,874.70,866.60
2006,1088.43,3550.72,272.43,872.90,864.70
2008,1088.67,3552.71,342.90,870.60,861.70
2010,1088.90,3554.69,257.92,867.50,860.20
2012,1089.14,3556.68,362.92,872.60,863.40
2014,1089.38,3558.66,92.10,867.90,863.00
2016,1089.61,3560.64,292.79,870.80,861.00
2018,1089.84,3562.62,144.24,871.60,865.00
2020,1090.08,3564.59,271.59,871.00,862.00
2022,1090.31,3566.56,156.72,868.80,863.20
2024,1090.55,3568.53,526.55,872.70,862.40
2026,1090.78,3570.50,415.35,868.00,859.50
2028,1091.02,3572.47,354.23,869.20,861.00
2030,1091.25,3574.43,353.90,869.60,860.60
2032,1091.48,3576.39,252.87,864.80,857.30
2034,1091.72,3578.35,287.97,868.10,860.00
2036,1091.95,3580.31,79.63,867.20,863.20
2038,1092.18,3582.26,342.03,865.40,857.50
2040,1092.42,3584.22,33.50,862.10,859.00
2042,1092.65,3586.17,290.66,865.80,859.50
2044,1092.88,3588.12,59.69,861.90,858.00
2046,1093.11,3590.06,41.16,862.00,857.20
2047,1093.23,3591.03,25.94,861.70,856.20