File: plugins/Raman/MatchingLibrary/785X/ethanol.csv
ENLIGHTEN Version,4.1.22
Measurement ID,20250220-200131-687668-WP-01977
Serial Number,WP-01977
Model,WP-785X-F13-R-ILC
Detector,S16011-1106
Label,ethanol
Declared Match,
Declared Score,0
Scan Averaging,3
Boxcar,0
Technique,Raman
Baseline Correction Algo,AirPLS
ROI Pixel Start,47
ROI Pixel End,2047
ROI Start Line,0
ROI Stop Line,63
CCD C4,1.38617e-12
Slit Width,25
Cropped,True
Interpolated,False
Wavenumber Correction,-0.100481
Raman Intensity Corrected,True
Deconvolved,True
Region,
High Gain Mode,False
Laser Power mW,
Electrical Dark Correction,False
Battery %,
Device ID,<DeviceID USB:0x24aa:0x1000:0:1>
FW Version,10.0.0.10
FPGA Version,035-001
BLE Version,
Prefix,enlighten
Suffix,
Preset,
Auto-Raman,True
Session Count,0
Plugin Name,
Integration Time,386
Timestamp,2025-02-20 20:01:31.6877
Note,
Temperature,0
CCD C0,793.274
CCD C1,0.153259
CCD C2,1.40788e-05
CCD C3,-1.132e-08
CCD Offset,0
CCD Gain,1.9
CCD Offset Odd,0
CCD Gain Odd,1.9
Laser Wavelength,785.032
Laser Enable,False
Laser Power %,0
Laser Temperature,0
Pixel Count,2048

Pixel,Wavelength,Wavenumber,Processed,Raw,Dark
0,793.27,132.25,NA,943.00,926.00
2,793.58,137.12,NA,957.33,943.67
4,793.89,141.99,NA,949.00,938.67
6,794.19,146.86,NA,958.33,943.00
8,794.50,151.72,NA,961.67,940.33
10,794.81,156.58,NA,957.00,944.33
12,795.12,161.44,NA,947.00,932.33
14,795.42,166.30,NA,951.00,937.00
16,795.73,171.16,NA,955.67,943.67
18,796.04,176.01,NA,965.33,953.67
20,796.35,180.86,NA,966.00,949.67
22,796.65,185.71,NA,988.67,970.00
24,796.96,190.56,NA,968.00,948.33
26,797.27,195.41,NA,978.67,963.33
28,797.58,200.25,NA,983.00,956.33
30,797.88,205.09,NA,963.33,940.33
32,798.19,209.93,NA,971.67,943.00
34,798.50,214.77,NA,969.67,945.67
36,798.81,219.60,NA,969.33,943.00
38,799.12,224.43,NA,993.00,949.67
40,799.43,229.27,NA,1091.67,959.33
42,799.74,234.09,NA,1396.67,954.67
44,800.04,238.92,NA,1917.33,975.00
46,800.35,243.75,NA,2109.33,957.33
48,800.66,248.57,145.42,2164.67,967.67
50,800.97,253.39,163.00,2187.33,971.33
52,801.28,258.21,156.78,2195.00,971.67
54,801.59,263.02,185.01,2211.00,970.00
56,801.90,267.83,203.66,2209.33,960.00
58,802.21,272.65,195.55,2192.00,961.00
60,802.52,277.46,172.95,2160.67,964.00
62,802.83,282.26,151.14,2130.00,976.33
64,803.14,287.07,122.87,2082.67,976.00
66,803.45,291.87,80.88,2019.33,974.33
68,803.76,296.67,62.03,1978.33,978.33
70,804.07,301.47,30.42,1920.33,961.33
72,804.38,306.26,14.93,1878.33,960.00
74,804.69,311.06,19.41,1875.67,954.67
76,805.00,315.85,0.00,1818.00,951.33
78,805.31,320.64,0.00,1817.67,966.33
80,805.62,325.42,0.00,1802.67,970.33
82,805.93,330.21,0.47,1809.33,967.33
84,806.24,334.99,0.00,1767.00,946.33
86,806.55,339.77,0.00,1768.33,959.67
88,806.86,344.55,0.00,1782.00,967.00
90,807.17,349.32,0.00,1774.33,947.67
92,807.48,354.10,3.35,1803.00,961.00
94,807.80,358.87,9.90,1813.00,973.33
96,808.11,363.63,37.37,1839.00,961.33
98,808.42,368.40,74.47,1869.00,948.67
100,808.73,373.16,74.04,1882.33,957.67
102,809.04,377.93,97.84,1909.33,951.00
104,809.35,382.68,144.34,1963.67,951.67
106,809.66,387.44,166.64,2016.33,965.33
108,809.98,392.19,223.08,2072.67,946.33
110,810.29,396.95,278.21,2167.67,962.67
112,810.60,401.70,350.09,2276.33,958.33
114,810.91,406.44,460.15,2442.00,957.67
116,811.22,411.19,640.21,2728.33,966.33
118,811.54,415.93,914.78,3162.67,967.00
120,811.85,420.67,1400.87,3872.67,952.67
122,812.16,425.41,2145.16,4852.67,956.67
124,812.47,430.14,2786.69,5643.00,959.67
126,812.79,434.87,2874.84,5820.00,954.00
128,813.10,439.60,2595.38,5491.33,943.00
130,813.41,444.33,2108.64,4864.67,961.67
132,813.72,449.06,1672.85,4224.67,949.00
134,814.04,453.78,1279.68,3665.33,967.67
136,814.35,458.50,988.79,3194.00,935.67
138,814.66,463.22,752.66,2839.33,938.67
140,814.98,467.93,579.98,2573.33,946.33
142,815.29,472.65,454.88,2377.67,949.67
144,815.60,477.36,347.85,2219.33,947.67
146,815.92,482.06,288.46,2106.67,939.00
148,816.23,486.77,248.03,2053.00,962.00
150,816.54,491.47,181.79,1976.33,977.33
152,816.86,496.17,170.08,1900.33,937.33
154,817.17,500.87,127.46,1843.67,948.33
156,817.48,505.57,87.89,1780.33,943.67
158,817.80,510.26,53.75,1719.00,942.33
160,818.11,514.95,40.12,1705.00,956.00
162,818.42,519.64,36.62,1690.33,956.67
164,818.74,524.32,14.03,1653.00,950.67
166,819.05,529.00,0.19,1625.00,958.33
168,819.37,533.68,3.32,1609.00,946.33
170,819.68,538.36,0.00,1589.00,959.33
172,819.99,543.04,0.00,1593.67,964.67
174,820.31,547.71,0.00,1579.67,949.00
176,820.62,552.38,0.00,1564.33,941.33
178,820.94,557.05,0.00,1559.00,945.00
180,821.25,561.71,0.00,1544.00,933.67
182,821.57,566.37,0.00,1548.67,938.00
184,821.88,571.03,3.08,1558.67,944.33
186,822.20,575.69,0.00,1558.00,952.67
188,822.51,580.34,0.00,1539.33,945.67
190,822.83,584.99,4.50,1563.33,949.33
192,823.14,589.64,0.75,1563.00,955.00
194,823.46,594.29,0.29,1554.33,946.67
196,823.77,598.93,7.29,1563.33,946.33
198,824.09,603.57,0.45,1545.67,937.33
200,824.40,608.21,10.62,1566.33,942.33
202,824.72,612.85,3.49,1577.00,962.00
204,825.03,617.48,5.37,1574.33,958.00
206,825.35,622.11,8.97,1582.00,959.33
208,825.66,626.74,1.56,1566.33,954.67
210,825.98,631.36,0.00,1552.00,943.67
212,826.29,635.99,18.48,1586.33,951.33
214,826.61,640.61,0.00,1565.33,956.33
216,826.92,645.22,21.06,1580.33,940.33
218,827.24,649.84,3.05,1552.00,934.67
220,827.56,654.45,6.99,1581.67,957.67
222,827.87,659.06,7.90,1579.67,956.67
224,828.19,663.67,10.12,1575.00,950.00
226,828.50,668.27,2.60,1606.33,988.00
228,828.82,672.87,5.38,1587.33,962.00
230,829.13,677.47,25.92,1588.00,943.00
232,829.45,682.06,5.12,1578.00,955.33
234,829.77,686.66,13.15,1620.67,985.67
236,830.08,691.25,0.52,1565.00,951.33
238,830.40,695.83,12.82,1578.33,947.00
240,830.72,700.42,0.00,1554.33,950.67
242,831.03,705.00,0.00,1533.33,925.33
244,831.35,709.58,14.00,1574.33,941.67
246,831.66,714.15,11.74,1560.00,926.67
248,831.98,718.73,0.00,1567.67,955.33
250,832.30,723.30,0.00,1563.00,943.67
252,832.61,727.87,1.31,1584.67,957.33
254,832.93,732.43,0.00,1534.67,919.00
256,833.25,736.99,0.00,1579.67,952.67
258,833.56,741.55,3.25,1586.00,939.00
260,833.88,746.11,0.00,1569.00,946.33
262,834.20,750.66,5.55,1609.33,944.33
264,834.51,755.22,0.00,1597.33,948.00
266,834.83,759.76,0.00,1623.00,955.00
268,835.15,764.31,0.00,1618.33,951.33
270,835.47,768.85,0.00,1635.33,938.00
272,835.78,773.39,1.34,1673.33,939.00
274,836.10,777.93,0.00,1678.00,945.00
276,836.42,782.46,2.48,1729.00,943.67
278,836.73,787.00,11.46,1762.67,942.33
280,837.05,791.52,34.90,1814.00,933.67
282,837.37,796.05,58.37,1885.00,950.00
284,837.69,800.57,105.89,1958.33,940.33
286,838.00,805.09,164.50,2049.00,946.33
288,838.32,809.61,191.10,2108.67,945.67
290,838.64,814.13,193.74,2133.67,953.67
292,838.95,818.64,185.45,2126.67,945.00
294,839.27,823.15,177.82,2128.33,944.33
296,839.59,827.65,215.41,2202.33,952.00
298,839.91,832.15,235.59,2240.67,936.33
300,840.22,836.65,309.62,2396.00,967.33
302,840.54,841.15,388.99,2514.33,937.33
304,840.86,845.65,502.99,2757.33,963.33
306,841.18,850.14,671.87,3068.00,957.00
308,841.50,854.63,935.05,3582.67,984.00
310,841.81,859.11,1353.84,4332.67,950.00
312,842.13,863.60,2048.16,5765.00,950.33
314,842.45,868.07,3416.72,8787.00,940.00
316,842.77,872.55,6611.98,15274.33,959.33
318,843.08,877.03,14365.27,27375.67,972.00
320,843.40,881.50,24884.36,39858.67,941.00
322,843.72,885.97,24998.10,39996.33,957.33
324,844.04,890.43,14659.69,27751.00,946.67
326,844.36,894.89,6651.84,15437.33,945.67
328,844.67,899.35,3363.45,8828.67,960.00
330,844.99,903.81,2023.08,5796.33,941.33
332,845.31,908.26,1337.03,4400.00,955.67
334,845.63,912.71,891.56,3574.67,954.67
336,845.95,917.16,635.63,3100.33,952.00
338,846.27,921.61,419.25,2882.67,1100.67
340,846.58,926.05,302.80,2525.00,944.00
342,846.90,930.49,228.27,2390.33,953.00
344,847.22,934.92,159.77,2265.00,941.00
346,847.54,939.36,89.82,2150.67,930.00
348,847.86,943.79,46.99,2085.67,931.67
350,848.18,948.21,7.85,2019.33,936.00
352,848.49,952.64,8.12,2028.00,939.67
354,848.81,957.06,0.00,1978.00,924.67
356,849.13,961.48,0.00,1979.33,959.00
358,849.45,965.89,0.00,1974.00,964.00
360,849.77,970.31,0.00,1977.67,940.00
362,850.09,974.71,0.42,2023.33,942.33
364,850.40,979.12,0.52,2055.67,959.33
366,850.72,983.52,9.42,2107.33,969.33
368,851.04,987.92,65.92,2159.00,935.00
370,851.36,992.32,89.46,2213.33,931.67
372,851.68,996.72,138.97,2335.33,950.67
374,852.00,1001.11,205.06,2446.00,935.33
376,852.32,1005.50,309.08,2607.67,927.00
378,852.63,1009.88,393.82,2820.33,964.67
380,852.95,1014.26,527.46,3046.33,943.67
382,853.27,1018.64,690.01,3360.33,958.00
384,853.59,1023.02,956.21,3821.33,937.67
386,853.91,1027.39,1333.39,4495.67,932.33
388,854.23,1031.76,1823.20,5450.67,943.67
390,854.55,1036.13,2681.22,7017.33,938.67
392,854.87,1040.49,4056.85,9336.33,940.00
394,855.18,1044.86,5911.41,12190.00,958.67
396,855.50,1049.21,7701.03,14606.67,948.33
398,855.82,1053.57,8094.09,15104.67,952.67
400,856.14,1057.92,6550.73,13174.33,947.00
402,856.46,1062.27,4680.88,10561.33,943.67
404,856.78,1066.62,3644.96,8812.00,934.67
406,857.10,1070.96,3343.42,8164.33,936.00
408,857.42,1075.30,3457.77,8333.67,957.33
410,857.74,1079.64,3928.38,9124.00,943.67
412,858.06,1083.97,4741.26,10531.33,938.67
414,858.37,1088.30,5970.41,12502.67,937.67
416,858.69,1092.63,7480.04,14533.67,935.67
418,859.01,1096.95,8253.65,15357.67,934.67
420,859.33,1101.27,7055.58,13798.67,945.00
422,859.65,1105.59,4927.88,10933.00,941.00
424,859.97,1109.91,3496.61,8649.33,936.67
426,860.29,1114.22,2900.75,7432.33,939.33
428,860.61,1118.53,2679.94,6824.67,927.00
430,860.93,1122.84,2357.81,6261.00,943.00
432,861.25,1127.14,1899.32,5564.33,952.67
434,861.56,1131.44,1471.71,4865.33,932.67
436,861.88,1135.74,1073.07,4233.00,938.67
438,862.20,1140.03,816.98,3800.67,945.00
440,862.52,1144.32,631.83,3472.33,940.00
442,862.84,1148.61,492.62,3241.67,948.33
444,863.16,1152.89,404.93,3077.33,936.67
446,863.48,1157.17,284.37,2890.67,937.33
448,863.80,1161.45,196.21,2746.00,943.67
450,864.12,1165.73,118.78,2636.33,947.33
452,864.44,1170.00,33.24,2506.67,938.00
454,864.76,1174.27,4.21,2451.67,939.67
456,865.07,1178.53,0.00,2406.67,929.67
458,865.39,1182.80,0.00,2390.33,947.00
460,865.71,1187.06,0.00,2396.33,945.00
462,866.03,1191.31,0.00,2399.67,942.00
464,866.35,1195.57,0.00,2392.00,936.00
466,866.67,1199.82,0.00,2425.67,945.67
468,866.99,1204.06,0.00,2465.67,947.00
470,867.31,1208.31,0.00,2499.33,948.00
472,867.63,1212.55,0.00,2565.00,948.33
474,867.95,1216.79,0.00,2600.33,924.67
476,868.27,1221.02,0.46,2742.00,945.00
478,868.58,1225.25,29.89,2863.33,930.67
480,868.90,1229.48,89.47,3009.33,951.33
482,869.22,1233.71,153.92,3191.33,951.33
484,869.54,1237.93,225.34,3374.33,956.67
486,869.86,1242.15,271.14,3527.33,947.67
488,870.18,1246.36,385.22,3753.67,924.67
490,870.50,1250.58,520.41,4065.33,944.33
492,870.82,1254.79,660.05,4438.67,966.00
494,871.14,1258.99,977.89,5053.00,952.00
496,871.46,1263.20,1476.54,5983.00,950.67
498,871.78,1267.40,2283.24,7297.00,937.33
500,872.10,1271.59,3395.71,8824.67,940.33
502,872.41,1275.79,4054.82,9629.67,938.00
504,872.73,1279.98,3507.59,9084.67,949.67
506,873.05,1284.17,2423.24,7758.33,951.33
508,873.37,1288.35,1594.67,6526.67,923.33
510,873.69,1292.53,1115.19,5759.33,933.33
512,874.01,1296.71,800.68,5264.33,935.67
514,874.33,1300.88,617.53,4987.33,928.00
516,874.65,1305.06,503.73,4857.00,933.00
518,874.97,1309.22,386.75,4742.33,940.00
520,875.29,1313.39,367.01,4756.33,943.67
522,875.60,1317.55,299.91,4710.67,949.67
524,875.92,1321.71,249.58,4681.33,939.00
526,876.24,1325.87,208.50,4698.00,956.33
528,876.56,1330.02,162.21,4667.33,931.00
530,876.88,1334.17,155.42,4722.67,947.67
532,877.20,1338.32,129.09,4730.00,932.33
534,877.52,1342.46,83.61,4738.00,934.00
536,877.84,1346.60,118.35,4832.00,940.00
538,878.16,1350.73,163.98,4915.33,936.00
540,878.47,1354.87,205.04,4979.67,933.33
542,878.79,1359.00,276.07,5074.00,940.00
544,879.11,1363.13,365.47,5203.33,939.67
546,879.43,1367.25,483.85,5373.00,935.00
548,879.75,1371.37,607.55,5565.00,941.00
550,880.07,1375.49,794.05,5815.00,934.33
552,880.39,1379.60,995.11,6086.67,943.67
554,880.71,1383.71,1107.76,6253.00,943.67
556,881.03,1387.82,1158.55,6336.00,939.67
558,881.34,1391.93,1218.15,6417.00,923.33
560,881.66,1396.03,1312.13,6567.33,930.33
562,881.98,1400.13,1458.96,6789.67,952.67
564,882.30,1404.22,1640.74,7052.33,948.33
566,882.62,1408.31,1865.21,7359.00,931.00
568,882.94,1412.40,2139.95,7764.00,950.00
570,883.26,1416.49,2350.25,8085.00,939.67
572,883.57,1420.57,2640.28,8560.00,956.33
574,883.89,1424.65,3009.28,9102.00,930.00
576,884.21,1428.73,3461.13,9829.00,949.33
578,884.53,1432.80,4083.36,10865.33,964.00
580,884.85,1436.87,4983.48,12301.33,940.33
582,885.17,1440.93,6371.01,14436.67,935.00
584,885.49,1445.00,8265.35,17178.33,936.00
586,885.80,1449.06,10533.99,20090.00,938.00
588,886.12,1453.11,12016.05,21724.67,954.00
590,886.44,1457.17,11576.65,21098.33,950.00
592,886.76,1461.22,9147.14,18186.00,944.67
594,887.08,1465.26,6688.97,14960.33,960.33
596,887.40,1469.31,5288.24,12769.67,938.33
598,887.71,1473.35,4752.15,11718.00,934.33
600,888.03,1477.38,4740.55,11433.67,943.67
602,888.35,1481.42,4789.09,11265.00,954.33
604,888.67,1485.45,4526.02,10780.67,950.00
606,888.99,1489.48,3809.25,9815.67,940.67
608,889.31,1493.50,2951.25,8654.00,943.00
610,889.62,1497.52,2280.01,7643.33,942.33
612,889.94,1501.54,1877.16,6935.00,922.00
614,890.26,1505.56,1591.18,6477.33,940.33
616,890.58,1509.57,1297.07,6015.33,936.67
618,890.90,1513.57,1167.75,5763.67,930.00
620,891.21,1517.58,992.74,5486.00,940.33
622,891.53,1521.58,869.01,5288.00,947.00
624,891.85,1525.58,739.01,5074.00,938.67
626,892.17,1529.57,629.49,4897.00,950.00
628,892.49,1533.57,530.58,4722.67,944.33
630,892.80,1537.56,424.39,4535.00,929.33
632,893.12,1541.54,358.97,4427.33,933.67
634,893.44,1545.52,289.19,4304.33,939.67
636,893.76,1549.50,189.89,4137.33,927.67
638,894.07,1553.48,130.41,4053.33,943.00
640,894.39,1557.45,89.26,3959.67,933.00
642,894.71,1561.42,41.09,3866.00,944.33
644,895.03,1565.39,48.13,3785.67,917.00
646,895.34,1569.35,11.30,3730.00,953.00
648,895.66,1573.31,0.00,3621.33,929.67
650,895.98,1577.26,0.00,3563.33,931.67
652,896.30,1581.22,0.00,3496.33,929.00
654,896.61,1585.17,0.00,3446.00,933.67
656,896.93,1589.11,0.00,3395.00,947.33
658,897.25,1593.06,0.00,3351.67,926.00
660,897.57,1597.00,0.00,3349.33,938.67
662,897.88,1600.93,0.00,3344.67,945.00
664,898.20,1604.87,6.84,3353.33,934.67
666,898.52,1608.80,67.18,3377.33,928.67
668,898.84,1612.72,127.85,3413.00,925.33
670,899.15,1616.65,132.02,3426.67,948.00
672,899.47,1620.57,110.17,3355.00,925.33
674,899.79,1624.49,103.12,3327.33,937.00
676,900.10,1628.40,67.83,3255.00,930.00
678,900.42,1632.31,29.73,3198.67,945.67
680,900.74,1636.22,14.45,3121.00,918.00
682,901.05,1640.12,0.04,3111.00,957.67
684,901.37,1644.02,1.24,3068.67,936.33
686,901.69,1647.92,7.59,3054.33,940.00
688,902.00,1651.82,0.00,3011.00,933.67
690,902.32,1655.71,18.57,3011.00,928.00
692,902.64,1659.60,13.62,2982.67,927.33
694,902.95,1663.48,32.01,2985.67,938.67
696,903.27,1667.36,41.89,2971.00,936.33
698,903.59,1671.24,25.44,2956.00,951.33
700,903.90,1675.11,38.93,2941.67,943.00
702,904.22,1678.99,58.42,2911.00,924.00
704,904.54,1682.85,84.40,2957.33,963.33
706,904.85,1686.72,78.36,2900.33,926.67
708,905.17,1690.58,54.08,2858.67,935.00
710,905.49,1694.44,104.34,2882.67,922.00
712,905.80,1698.29,110.68,2872.33,934.00
714,906.12,1702.15,122.74,2874.33,948.33
716,906.43,1706.00,85.85,2810.33,943.00
718,906.75,1709.84,82.80,2789.33,951.33
720,907.07,1713.68,81.69,2733.33,926.67
722,907.38,1717.52,71.13,2712.33,941.33
724,907.70,1721.36,55.97,2669.33,935.33
726,908.01,1725.19,42.88,2630.33,934.00
728,908.33,1729.02,44.22,2610.67,943.67
730,908.65,1732.85,40.67,2570.00,933.67
732,908.96,1736.67,20.80,2532.00,940.33
734,909.28,1740.49,17.47,2499.33,930.00
736,909.59,1744.30,24.01,2498.00,941.00
738,909.91,1748.12,22.18,2456.00,933.33
740,910.22,1751.93,27.50,2447.67,942.33
742,910.54,1755.73,9.58,2437.33,969.67
744,910.85,1759.54,11.43,2394.67,947.33
746,911.17,1763.34,0.00,2334.33,930.00
748,911.49,1767.13,7.53,2332.67,936.33
750,911.80,1770.93,0.00,2289.00,926.00
752,912.12,1774.72,0.00,2281.00,950.00
754,912.43,1778.50,0.00,2244.00,924.67
756,912.75,1782.29,0.49,2231.00,920.67
758,913.06,1786.07,0.00,2210.00,924.00
760,913.38,1789.84,7.89,2220.00,934.00
762,913.69,1793.62,5.65,2213.00,943.00
764,914.01,1797.39,15.10,2201.33,937.33
766,914.32,1801.15,0.00,2159.00,933.67
768,914.64,1804.92,1.82,2145.00,925.33
770,914.95,1808.68,5.45,2144.67,937.67
772,915.26,1812.44,7.62,2144.67,944.33
774,915.58,1816.19,0.00,2090.33,921.33
776,915.89,1819.94,0.69,2109.33,942.33
778,916.21,1823.69,1.97,2087.00,935.67
780,916.52,1827.43,21.33,2116.00,959.00
782,916.84,1831.17,34.97,2084.00,923.33
784,917.15,1834.91,51.62,2091.00,921.00
786,917.47,1838.64,40.53,2086.00,943.00
788,917.78,1842.38,37.92,2062.33,936.00
790,918.09,1846.10,46.45,2044.00,924.67
792,918.41,1849.83,52.80,2058.67,935.67
794,918.72,1853.55,40.67,2022.33,921.33
796,919.04,1857.27,56.37,2029.67,933.67
798,919.35,1860.98,94.34,2049.67,931.67
800,919.66,1864.69,67.01,2027.67,939.67
802,919.98,1868.40,59.01,2011.00,942.33
804,920.29,1872.11,97.76,2026.33,932.33
806,920.60,1875.81,103.15,2011.67,928.67
808,920.92,1879.51,93.24,1993.33,931.00
810,921.23,1883.20,107.83,2011.67,940.00
812,921.55,1886.90,105.54,1972.00,920.33
814,921.86,1890.58,128.81,2001.67,937.67
816,922.17,1894.27,105.92,1980.67,950.00
818,922.49,1897.95,112.99,1965.33,943.00
820,922.80,1901.63,115.83,1941.00,933.67
822,923.11,1905.31,96.48,1907.00,930.00
824,923.42,1908.98,81.49,1899.00,942.33
826,923.74,1912.65,92.11,1899.00,943.67
828,924.05,1916.31,111.46,1878.33,926.67
830,924.36,1919.98,98.48,1859.33,932.00
832,924.68,1923.64,107.33,1856.00,925.33
834,924.99,1927.29,116.75,1856.67,931.33
836,925.30,1930.94,113.53,1828.33,917.67
838,925.61,1934.59,100.42,1815.00,934.00
840,925.93,1938.24,101.16,1805.00,936.00
842,926.24,1941.88,77.96,1772.00,932.33
844,926.55,1945.52,85.92,1764.00,930.00
846,926.86,1949.16,105.75,1774.00,938.00
848,927.18,1952.79,89.15,1744.33,929.67
850,927.49,1956.42,84.98,1724.67,927.33
852,927.80,1960.05,105.24,1774.67,977.00
854,928.11,1963.67,84.38,1700.33,933.00
856,928.42,1967.29,93.99,1716.33,943.67
858,928.74,1970.91,86.51,1684.00,935.33
860,929.05,1974.52,117.82,1686.00,923.33
862,929.36,1978.13,76.69,1642.67,928.00
864,929.67,1981.74,72.80,1635.33,935.00
866,929.98,1985.35,64.09,1613.67,937.33
868,930.29,1988.95,57.31,1593.00,934.67
870,930.61,1992.54,47.81,1560.00,924.67
872,930.92,1996.14,44.55,1553.67,932.33
874,931.23,1999.73,24.70,1528.33,937.33
876,931.54,2003.32,26.53,1518.67,937.67
878,931.85,2006.90,33.21,1507.67,934.00
880,932.16,2010.48,17.81,1478.33,931.00
882,932.47,2014.06,19.93,1468.00,928.00
884,932.78,2017.63,12.45,1459.33,937.00
886,933.09,2021.21,14.67,1446.33,933.00
888,933.41,2024.77,11.09,1439.33,941.67
890,933.72,2028.34,20.46,1445.67,952.67
892,934.03,2031.90,29.35,1430.00,934.33
894,934.34,2035.46,0.00,1392.67,943.67
896,934.65,2039.01,0.00,1376.67,933.67
898,934.96,2042.57,10.03,1387.33,943.00
900,935.27,2046.11,0.00,1370.67,952.00
902,935.58,2049.66,3.33,1338.00,915.33
904,935.89,2053.20,0.00,1347.67,942.00
906,936.20,2056.74,6.11,1343.00,934.33
908,936.51,2060.28,0.00,1324.00,935.00
910,936.82,2063.81,0.00,1329.67,947.33
912,937.13,2067.34,13.04,1337.33,935.00
914,937.44,2070.86,14.95,1325.00,932.33
916,937.75,2074.39,31.97,1325.67,925.33
918,938.06,2077.91,29.34,1331.00,933.67
920,938.37,2081.42,14.78,1321.00,943.00
922,938.68,2084.94,58.94,1338.00,925.33
924,938.99,2088.45,77.67,1344.67,926.00
926,939.30,2091.95,65.21,1345.67,937.33
928,939.60,2095.46,47.43,1317.33,930.00
930,939.91,2098.96,41.88,1326.67,953.00
932,940.22,2102.45,50.28,1307.67,933.00
934,940.53,2105.95,19.39,1269.00,928.67
936,940.84,2109.44,17.90,1270.33,927.33
938,941.15,2112.92,1.41,1253.67,938.00
940,941.46,2116.41,1.29,1235.33,927.33
942,941.77,2119.89,0.00,1243.33,941.67
944,942.07,2123.37,2.03,1238.00,937.33
946,942.38,2126.84,5.21,1238.33,940.00
948,942.69,2130.31,8.54,1233.33,937.67
950,943.00,2133.78,0.00,1210.67,931.00
952,943.31,2137.24,3.96,1226.33,939.67
954,943.62,2140.70,0.00,1212.67,936.67
956,943.92,2144.16,0.00,1205.67,932.33
958,944.23,2147.62,0.00,1200.00,938.00
960,944.54,2151.07,2.36,1219.00,947.33
962,944.85,2154.52,8.57,1225.67,953.00
964,945.16,2157.96,15.77,1219.00,943.33
966,945.46,2161.40,10.36,1215.67,944.33
968,945.77,2164.84,8.10,1184.33,915.33
970,946.08,2168.28,0.00,1200.00,947.00
972,946.39,2171.71,20.70,1201.33,929.00
974,946.69,2175.14,16.86,1201.00,934.33
976,947.00,2178.57,21.27,1201.33,931.67
978,947.31,2181.99,3.62,1177.00,925.33
980,947.61,2185.41,22.09,1197.00,931.33
982,947.92,2188.82,11.54,1198.00,944.33
984,948.23,2192.24,11.89,1175.67,921.33
986,948.53,2195.65,10.27,1183.33,931.00
988,948.84,2199.05,4.57,1154.33,912.00
990,949.15,2202.46,5.16,1173.33,932.33
992,949.45,2205.86,0.00,1167.33,939.67
994,949.76,2209.25,3.65,1161.33,922.00
996,950.07,2212.65,8.37,1169.67,928.67
998,950.37,2216.04,8.50,1158.00,917.00
1000,950.68,2219.43,8.79,1176.00,935.33
1002,950.98,2222.81,22.24,1188.00,935.67
1004,951.29,2226.19,31.50,1185.33,926.67
1006,951.60,2229.57,50.19,1193.67,920.33
1008,951.90,2232.94,60.77,1207.67,926.67
1010,952.21,2236.32,89.08,1226.67,925.33
1012,952.51,2239.68,94.47,1241.33,935.33
1014,952.82,2243.05,107.49,1235.67,917.67
1016,953.12,2246.41,109.71,1267.67,948.67
1018,953.43,2249.77,118.60,1289.33,964.67
1020,953.73,2253.12,131.99,1277.00,945.67
1022,954.04,2256.48,124.94,1246.33,920.67
1024,954.34,2259.83,132.14,1273.33,941.67
1026,954.65,2263.17,123.09,1251.00,926.67
1028,954.95,2266.51,103.61,1246.00,936.00
1030,955.26,2269.85,131.91,1277.33,945.00
1032,955.56,2273.19,139.71,1275.33,942.33
1034,955.87,2276.52,165.68,1292.67,945.00
1036,956.17,2279.85,185.91,1307.67,947.00
1038,956.48,2283.18,152.85,1256.33,919.00
1040,956.78,2286.50,140.97,1253.67,923.67
1042,957.08,2289.82,131.52,1238.67,917.33
1044,957.39,2293.14,129.26,1249.33,936.00
1046,957.69,2296.45,128.63,1230.33,921.00
1048,957.99,2299.76,88.17,1229.67,949.33
1050,958.30,2303.07,72.81,1206.33,936.67
1052,958.60,2306.38,56.43,1190.00,936.00
1054,958.91,2309.68,66.78,1190.67,933.00
1056,959.21,2312.98,66.59,1173.33,917.67
1058,959.51,2316.27,54.16,1177.33,928.67
1060,959.82,2319.56,49.23,1189.00,943.67
1062,960.12,2322.85,55.05,1179.00,933.67
1064,960.42,2326.14,64.54,1171.67,924.67
1066,960.72,2329.42,69.51,1188.00,938.67
1068,961.03,2332.70,53.85,1180.33,942.33
1070,961.33,2335.97,48.81,1173.67,936.33
1072,961.63,2339.25,20.66,1151.00,936.33
1074,961.93,2342.52,40.64,1157.00,931.00
1076,962.24,2345.78,38.78,1154.67,934.33
1078,962.54,2349.05,24.17,1142.67,930.33
1080,962.84,2352.31,25.62,1147.33,931.00
1082,963.14,2355.56,12.70,1130.67,928.67
1084,963.45,2358.82,39.48,1141.00,924.67
1086,963.75,2362.07,15.91,1142.33,942.33
1088,964.05,2365.32,15.53,1158.67,958.67
1090,964.35,2368.56,4.87,1135.33,942.33
1092,964.65,2371.80,0.00,1130.33,947.33
1094,964.95,2375.04,5.12,1124.00,934.00
1096,965.25,2378.27,4.40,1114.33,926.00
1098,965.56,2381.51,0.00,1120.33,937.33
1100,965.86,2384.73,0.00,1117.67,936.67
1102,966.16,2387.96,2.29,1119.67,930.33
1104,966.46,2391.18,3.48,1137.67,946.33
1106,966.76,2394.40,10.31,1129.00,932.33
1108,967.06,2397.62,0.00,1137.67,947.67
1110,967.36,2400.83,9.13,1124.00,924.00
1112,967.66,2404.04,26.61,1155.33,946.33
1114,967.96,2407.25,21.32,1130.33,922.67
1116,968.26,2410.45,2.64,1133.67,932.00
1118,968.56,2413.65,0.43,1133.33,931.33
1120,968.86,2416.85,0.00,1153.67,954.67
1122,969.16,2420.04,11.98,1151.33,937.67
1124,969.46,2423.23,13.73,1147.33,932.33
1126,969.76,2426.42,17.14,1158.33,935.33
1128,970.06,2429.60,15.88,1144.00,917.67
1130,970.36,2432.79,33.45,1166.33,928.67
1132,970.66,2435.96,14.44,1162.33,934.33
1134,970.96,2439.14,23.50,1167.00,929.67
1136,971.26,2442.31,7.16,1171.67,940.67
1138,971.56,2445.48,0.00,1167.67,941.33
1140,971.86,2448.65,22.55,1173.67,926.67
1142,972.16,2451.81,34.26,1193.67,940.33
1144,972.45,2454.97,41.10,1195.00,932.00
1146,972.75,2458.13,32.51,1195.33,933.00
1148,973.05,2461.28,39.42,1196.00,928.00
1150,973.35,2464.43,50.14,1215.33,940.00
1152,973.65,2467.58,74.93,1225.33,931.67
1154,973.95,2470.72,47.78,1211.67,929.00
1156,974.24,2473.86,44.48,1207.00,926.67
1158,974.54,2477.00,73.09,1220.00,924.00
1160,974.84,2480.13,30.58,1215.33,935.00
1162,975.14,2483.27,4.95,1195.33,931.00
1164,975.43,2486.40,32.52,1207.33,924.00
1166,975.73,2489.52,5.34,1200.67,932.00
1168,976.03,2492.64,8.67,1205.67,933.00
1170,976.33,2495.76,26.69,1219.00,932.33
1172,976.62,2498.88,3.78,1198.67,921.33
1174,976.92,2501.99,0.00,1217.00,947.33
1176,977.22,2505.10,0.00,1221.00,945.00
1178,977.51,2508.21,0.00,1215.33,935.00
1180,977.81,2511.31,6.90,1223.33,934.00
1182,978.11,2514.41,10.44,1231.00,933.67
1184,978.40,2517.51,15.93,1246.33,940.67
1186,978.70,2520.61,26.59,1251.33,936.00
1188,979.00,2523.70,76.79,1291.33,943.00
1190,979.29,2526.79,98.29,1295.67,932.33
1192,979.59,2529.87,123.92,1318.67,937.33
1194,979.88,2532.95,173.94,1329.67,918.67
1196,980.18,2536.03,205.18,1370.00,939.33
1198,980.48,2539.11,267.98,1415.67,948.67
1200,980.77,2542.18,323.89,1428.33,931.33
1202,981.07,2545.25,340.67,1450.00,944.33
1204,981.36,2548.32,316.77,1428.33,932.33
1206,981.66,2551.38,273.09,1429.67,952.67
1208,981.95,2554.44,236.50,1400.33,938.00
1210,982.25,2557.50,203.52,1405.00,954.67
1212,982.54,2560.56,159.19,1378.67,950.67
1214,982.84,2563.61,137.94,1368.00,950.00
1216,983.13,2566.66,111.57,1362.67,955.67
1218,983.43,2569.70,105.39,1352.67,946.67
1220,983.72,2572.74,108.17,1360.00,952.67
1222,984.01,2575.78,83.72,1340.33,945.33
1224,984.31,2578.82,77.06,1325.33,931.00
1226,984.60,2581.85,82.69,1340.00,938.33
1228,984.90,2584.88,63.19,1321.00,927.33
1230,985.19,2587.91,92.76,1346.33,937.33
1232,985.48,2590.93,124.77,1366.33,941.00
1234,985.78,2593.96,102.67,1367.67,949.67
1236,986.07,2596.97,84.72,1355.33,945.00
1238,986.36,2599.99,80.70,1366.00,958.00
1240,986.66,2603.00,72.11,1360.67,954.33
1242,986.95,2606.01,42.87,1349.67,949.67
1244,987.24,2609.01,17.42,1342.33,953.67
1246,987.54,2612.02,10.40,1308.67,924.67
1248,987.83,2615.02,10.31,1341.00,953.67
1250,988.12,2618.01,0.00,1333.00,951.33
1252,988.41,2621.01,0.00,1329.00,945.67
1254,988.71,2624.00,0.00,1317.00,932.67
1256,989.00,2626.99,0.00,1327.67,945.00
1258,989.29,2629.97,16.00,1345.67,941.67
1260,989.58,2632.95,0.18,1345.67,945.00
1262,989.87,2635.93,0.00,1343.33,951.33
1264,990.16,2638.91,0.00,1343.33,936.00
1266,990.46,2641.88,3.75,1371.67,948.33
1268,990.75,2644.85,35.36,1400.00,963.33
1270,991.04,2647.81,20.83,1379.67,937.33
1272,991.33,2650.78,0.00,1381.00,941.67
1274,991.62,2653.74,0.00,1383.67,944.33
1276,991.91,2656.70,0.00,1389.67,936.67
1278,992.20,2659.65,0.00,1410.67,947.67
1280,992.49,2662.60,0.00,1413.33,939.67
1282,992.78,2665.55,0.00,1453.67,955.00
1284,993.07,2668.50,0.00,1464.67,952.00
1286,993.36,2671.44,0.00,1488.33,951.67
1288,993.65,2674.38,0.18,1519.67,954.33
1290,993.94,2677.31,17.88,1554.33,950.00
1292,994.23,2680.25,86.57,1601.00,945.67
1294,994.52,2683.18,136.21,1646.00,952.00
1296,994.81,2686.10,290.43,1733.00,947.00
1298,995.10,2689.03,465.28,1829.00,948.00
1300,995.39,2691.95,613.80,1910.67,944.33
1302,995.68,2694.87,890.64,2059.67,955.00
1304,995.97,2697.78,1254.68,2222.67,953.33
1306,996.26,2700.70,1589.52,2352.33,934.67
1308,996.55,2703.61,2111.47,2584.00,948.00
1310,996.84,2706.51,2437.45,2734.67,965.33
1312,997.13,2709.42,2751.11,2853.00,950.33
1314,997.41,2712.32,2986.00,2959.33,955.00
1316,997.70,2715.21,3095.73,3001.67,946.33
1318,997.99,2718.11,3161.62,3030.33,941.00
1320,998.28,2721.00,2964.65,2961.67,940.33
1322,998.57,2723.89,2728.59,2914.67,964.67
1324,998.86,2726.77,2312.35,2754.67,934.33
1326,999.14,2729.66,2004.75,2673.67,949.67
1328,999.43,2732.54,1791.32,2603.33,945.00
1330,999.72,2735.41,1598.51,2542.00,941.67
1332,1000.01,2738.29,1602.62,2560.67,954.00
1334,1000.29,2741.16,1690.54,2577.33,945.67
1336,1000.58,2744.03,1773.80,2593.67,934.67
1338,1000.87,2746.89,1739.88,2613.00,964.67
1340,1001.15,2749.75,1760.43,2603.00,946.33
1342,1001.44,2752.61,1647.90,2576.00,952.00
1344,1001.73,2755.47,1391.27,2495.33,944.33
1346,1002.01,2758.32,1091.02,2405.33,941.67
1348,1002.30,2761.17,832.18,2342.33,952.67
1350,1002.59,2764.02,574.15,2270.00,959.33
1352,1002.87,2766.86,330.58,2175.00,949.00
1354,1003.16,2769.70,196.25,2143.00,947.67
1356,1003.44,2772.54,49.47,2116.67,940.33
1358,1003.73,2775.38,0.00,2078.33,952.00
1360,1004.01,2778.21,0.00,2089.67,935.33
1362,1004.30,2781.04,0.00,2095.33,937.00
1364,1004.58,2783.87,0.00,2104.33,944.00
1366,1004.87,2786.69,0.00,2110.67,925.33
1368,1005.15,2789.51,0.00,2156.67,957.67
1370,1005.44,2792.33,0.00,2196.00,960.67
1372,1005.72,2795.14,0.00,2246.00,954.33
1374,1006.01,2797.95,0.00,2311.67,965.00
1376,1006.29,2800.76,0.00,2381.00,939.33
1378,1006.58,2803.57,0.00,2472.33,973.67
1380,1006.86,2806.37,1.77,2555.33,938.00
1382,1007.14,2809.17,78.93,2695.33,944.67
1384,1007.43,2811.97,296.36,2802.67,942.67
1386,1007.71,2814.77,691.87,2934.00,933.00
1388,1008.00,2817.56,1177.95,3075.67,941.00
1390,1008.28,2820.35,1839.49,3272.33,953.00
1392,1008.56,2823.13,2597.95,3468.00,942.33
1394,1008.85,2825.91,3237.36,3653.33,951.33
1396,1009.13,2828.69,3908.42,3849.33,949.67
1398,1009.41,2831.47,4544.01,4034.67,956.33
1400,1009.69,2834.24,5288.62,4212.67,932.67
1402,1009.98,2837.02,5912.63,4398.00,948.00
1404,1010.26,2839.78,6658.91,4616.33,953.00
1406,1010.54,2842.55,7440.04,4816.33,934.67
1408,1010.82,2845.31,8359.76,5093.67,959.33
1410,1011.11,2848.07,9367.37,5370.67,957.00
1412,1011.39,2850.83,10718.26,5751.67,955.67
1414,1011.67,2853.58,12289.46,6192.67,957.00
1416,1011.95,2856.33,14539.30,6825.33,952.67
1418,1012.23,2859.08,16590.21,7411.00,951.00
1420,1012.51,2861.83,19673.09,8279.33,944.33
1422,1012.80,2864.57,23697.83,9374.00,974.67
1424,1013.08,2867.31,28947.21,10645.67,965.33
1426,1013.36,2870.04,34515.63,11922.00,963.67
1428,1013.64,2872.78,39339.69,12987.33,949.33
1430,1013.92,2875.51,42675.12,13753.67,972.67
1432,1014.20,2878.24,44019.48,14035.33,956.67
1434,1014.48,2880.96,43786.95,13977.67,949.67
1436,1014.76,2883.68,42109.25,13549.00,941.67
1438,1015.04,2886.40,40325.62,13066.00,944.67
1440,1015.32,2889.12,38335.74,12499.00,960.33
1442,1015.60,2891.83,36560.44,11939.00,941.67
1444,1015.88,2894.54,34505.50,11362.33,965.33
1446,1016.16,2897.25,33199.50,10954.00,935.33
1448,1016.44,2899.96,31378.75,10475.67,960.00
1450,1016.72,2902.66,30603.59,10226.67,955.33
1452,1017.00,2905.36,30434.18,10154.67,962.00
1454,1017.28,2908.06,30817.58,10224.33,947.00
1456,1017.55,2910.75,32354.04,10617.67,958.67
1458,1017.83,2913.44,35307.70,11344.67,949.00
1460,1018.11,2916.13,39618.44,12382.33,954.33
1462,1018.39,2918.81,46493.29,13873.33,956.33
1464,1018.67,2921.49,55948.10,15668.33,948.33
1466,1018.95,2924.17,66090.22,17402.33,956.33
1468,1019.22,2926.85,72649.17,18395.33,967.33
1470,1019.50,2929.52,72781.45,18295.00,947.00
1472,1019.78,2932.20,66364.64,17098.67,945.00
1474,1020.06,2934.86,57543.28,15396.00,947.67
1476,1020.33,2937.53,48947.85,13593.00,969.33
1478,1020.61,2940.19,41335.51,11829.33,948.67
1480,1020.89,2942.85,35018.37,10335.67,958.33
1482,1021.17,2945.51,30113.85,9132.33,945.67
1484,1021.44,2948.16,26573.75,8265.33,948.67
1486,1021.72,2950.81,23825.32,7594.00,947.00
1488,1022.00,2953.46,22086.88,7180.00,958.67
1490,1022.27,2956.11,21614.09,7024.00,949.67
1492,1022.55,2958.75,22135.40,7086.33,961.33
1494,1022.82,2961.39,23582.92,7294.33,952.67
1496,1023.10,2964.03,26040.24,7685.67,966.67
1498,1023.38,2966.66,29058.57,8110.33,953.33
1500,1023.65,2969.29,31617.57,8456.00,959.67
1502,1023.93,2971.92,32310.59,8485.67,968.67
1504,1024.20,2974.55,31572.59,8269.67,957.67
1506,1024.48,2977.17,29287.57,7809.00,955.00
1508,1024.75,2979.79,25703.05,7138.33,943.67
1510,1025.03,2982.41,21058.68,6283.33,951.00
1512,1025.30,2985.02,17438.50,5570.33,939.67
1514,1025.58,2987.63,14181.86,4917.00,954.00
1516,1025.85,2990.24,11532.82,4347.00,942.33
1518,1026.13,2992.85,9418.14,3914.00,957.67
1520,1026.40,2995.45,7620.95,3527.00,951.33
1522,1026.68,2998.05,6271.99,3233.67,951.33
1524,1026.95,3000.65,5307.89,3032.67,966.33
1526,1027.22,3003.25,4229.20,2789.67,951.67
1528,1027.50,3005.84,3473.87,2628.33,947.00
1530,1027.77,3008.43,2701.32,2477.33,953.33
1532,1028.04,3011.02,2195.85,2373.67,957.67
1534,1028.32,3013.60,1658.18,2255.67,952.67
1536,1028.59,3016.18,1092.77,2147.33,956.33
1538,1028.86,3018.76,760.84,2056.00,924.00
1540,1029.14,3021.34,343.91,1994.67,947.33
1542,1029.41,3023.91,96.64,1912.00,947.67
1544,1029.68,3026.48,82.88,1859.33,931.33
1546,1029.95,3029.05,0.00,1800.00,954.00
1548,1030.22,3031.61,0.00,1750.67,942.00
1550,1030.50,3034.17,0.00,1704.33,938.67
1552,1030.77,3036.73,0.06,1675.00,936.67
1554,1031.04,3039.29,0.00,1652.67,961.33
1556,1031.31,3041.84,0.00,1588.00,931.67
1558,1031.58,3044.39,0.00,1597.33,960.00
1560,1031.85,3046.94,18.20,1578.33,960.00
1562,1032.13,3049.49,3.75,1529.67,938.33
1564,1032.40,3052.03,0.00,1526.33,959.33
1566,1032.67,3054.57,0.00,1481.00,940.33
1568,1032.94,3057.11,38.76,1493.67,960.67
1570,1033.21,3059.64,28.77,1439.67,933.00
1572,1033.48,3062.18,85.57,1448.00,955.33
1574,1033.75,3064.70,0.00,1404.33,956.33
1576,1034.02,3067.23,0.00,1402.33,958.67
1578,1034.29,3069.75,0.00,1363.00,932.00
1580,1034.56,3072.28,14.67,1376.00,954.67
1582,1034.83,3074.79,46.06,1340.67,931.33
1584,1035.10,3077.31,0.00,1334.33,951.00
1586,1035.37,3079.82,0.00,1315.00,943.67
1588,1035.64,3082.33,0.00,1329.67,968.33
1590,1035.91,3084.84,0.00,1303.00,951.33
1592,1036.17,3087.34,0.00,1286.00,943.67
1594,1036.44,3089.85,6.47,1304.00,967.33
1596,1036.71,3092.35,0.00,1260.67,943.33
1598,1036.98,3094.84,21.38,1253.67,933.67
1600,1037.25,3097.34,0.08,1245.67,936.00
1602,1037.52,3099.83,0.00,1245.67,945.67
1604,1037.78,3102.32,0.00,1246.33,953.00
1606,1038.05,3104.80,2.94,1250.00,957.00
1608,1038.32,3107.29,0.00,1225.00,948.00
1610,1038.59,3109.77,21.17,1225.33,941.00
1612,1038.85,3112.24,0.00,1217.33,943.00
1614,1039.12,3114.72,58.72,1234.00,953.00
1616,1039.39,3117.19,17.15,1201.67,927.33
1618,1039.66,3119.66,0.00,1230.33,963.33
1620,1039.92,3122.13,0.00,1222.67,960.00
1622,1040.19,3124.59,0.00,1205.00,948.00
1624,1040.45,3127.05,13.53,1209.67,945.00
1626,1040.72,3129.51,39.63,1220.00,953.33
1628,1040.99,3131.97,38.94,1226.00,960.67
1630,1041.25,3134.42,51.47,1234.67,968.67
1632,1041.52,3136.87,108.40,1209.00,936.00
1634,1041.78,3139.32,140.46,1225.00,952.00
1636,1042.05,3141.77,290.51,1275.00,991.33
1638,1042.32,3144.21,213.15,1217.33,945.00
1640,1042.58,3146.65,289.03,1246.33,966.00
1642,1042.85,3149.09,181.64,1226.00,959.00
1644,1043.11,3151.52,258.25,1232.33,959.33
1646,1043.38,3153.96,441.70,1245.33,956.33
1648,1043.64,3156.39,484.06,1237.33,947.33
1650,1043.90,3158.81,554.37,1251.00,956.00
1652,1044.17,3161.24,532.85,1245.67,956.00
1654,1044.43,3163.66,606.18,1236.00,941.00
1656,1044.70,3166.08,561.08,1269.67,981.00
1658,1044.96,3168.49,679.99,1251.67,952.67
1660,1045.22,3170.91,692.04,1245.67,950.00
1662,1045.49,3173.32,857.85,1264.67,957.67
1664,1045.75,3175.73,1033.97,1273.00,952.00
1666,1046.01,3178.13,974.14,1263.67,948.33
1668,1046.28,3180.54,928.77,1274.67,964.33
1670,1046.54,3182.94,1112.77,1288.00,964.00
1672,1046.80,3185.34,1273.91,1288.00,955.33
1674,1047.07,3187.73,1338.97,1281.67,947.00
1676,1047.33,3190.12,1377.43,1289.33,952.67
1678,1047.59,3192.51,1422.98,1292.67,952.67
1680,1047.85,3194.90,1487.30,1317.00,972.67
1682,1048.11,3197.29,1624.61,1317.00,964.00
1684,1048.38,3199.67,1850.02,1324.33,956.67
1686,1048.64,3202.05,1921.04,1335.33,966.67
1688,1048.90,3204.43,2077.49,1331.00,952.00
1690,1049.16,3206.80,2130.42,1331.00,950.00
1692,1049.42,3209.17,2076.10,1332.67,959.33
1694,1049.68,3211.54,2340.68,1342.00,948.67
1696,1049.94,3213.91,2318.54,1335.33,947.67
1698,1050.20,3216.27,2446.71,1349.33,955.67
1700,1050.46,3218.63,2650.51,1372.00,966.00
1702,1050.72,3220.99,2529.65,1348.00,954.67
1704,1050.98,3223.35,2528.08,1353.67,963.33
1706,1051.24,3225.70,2793.76,1357.67,951.33
1708,1051.50,3228.05,2929.35,1349.00,937.33
1710,1051.76,3230.40,2837.25,1369.67,967.67
1712,1052.02,3232.75,2933.96,1361.33,953.67
1714,1052.28,3235.09,3088.01,1383.00,967.67
1716,1052.54,3237.43,3086.29,1365.00,955.00
1718,1052.80,3239.77,3272.07,1371.00,950.67
1720,1053.06,3242.11,3256.67,1366.33,951.33
1722,1053.32,3244.44,3328.52,1356.67,940.67
1724,1053.58,3246.77,3379.47,1393.00,977.00
1726,1053.84,3249.10,3454.58,1368.00,950.00
1728,1054.10,3251.42,3466.23,1374.00,960.33
1730,1054.35,3253.75,3757.70,1374.67,946.00
1732,1054.61,3256.07,3541.10,1375.00,966.33
1734,1054.87,3258.39,3669.18,1369.00,952.33
1736,1055.13,3260.70,3515.52,1353.00,948.33
1738,1055.38,3263.01,3603.76,1359.67,953.00
1740,1055.64,3265.32,3621.49,1357.67,957.67
1742,1055.90,3267.63,3983.29,1349.67,932.67
1744,1056.16,3269.94,3885.59,1379.67,973.00
1746,1056.41,3272.24,3785.97,1368.00,968.00
1748,1056.67,3274.54,3702.49,1352.67,959.33
1750,1056.93,3276.84,3766.28,1356.33,964.00
1752,1057.18,3279.13,3965.53,1347.33,949.00
1754,1057.44,3281.42,4051.15,1342.67,943.67
1756,1057.69,3283.71,3857.94,1335.00,951.33
1758,1057.95,3286.00,3951.44,1355.33,969.00
1760,1058.21,3288.28,3844.64,1328.00,952.00
1762,1058.46,3290.57,3755.75,1334.33,966.67
1764,1058.72,3292.85,3724.06,1327.33,964.33
1766,1058.97,3295.12,3714.85,1308.67,950.33
1768,1059.23,3297.40,4016.13,1311.33,940.33
1770,1059.48,3299.67,3823.29,1323.33,969.67
1772,1059.74,3301.94,4103.36,1307.00,940.00
1774,1059.99,3304.21,3971.69,1320.67,962.00
1776,1060.25,3306.47,3625.72,1316.33,979.67
1778,1060.50,3308.73,4084.34,1304.33,946.33
1780,1060.76,3310.99,3940.52,1292.33,950.67
1782,1061.01,3313.25,4377.08,1313.67,953.00
1784,1061.26,3315.50,4081.81,1293.33,949.00
1786,1061.52,3317.76,3837.81,1292.33,960.67
1788,1061.77,3320.01,3823.01,1293.67,966.00
1790,1062.02,3322.25,3977.78,1281.67,951.33
1792,1062.28,3324.50,3969.38,1282.00,956.33
1794,1062.53,3326.74,3997.99,1269.00,944.33
1796,1062.78,3328.98,4085.12,1282.33,957.00
1798,1063.04,3331.22,4162.51,1273.33,949.33
1800,1063.29,3333.45,3995.28,1262.67,951.00
1802,1063.54,3335.68,4050.99,1265.67,952.67
1804,1063.79,3337.91,3885.04,1265.00,962.00
1806,1064.05,3340.14,4203.12,1285.33,969.00
1808,1064.30,3342.36,3981.07,1243.00,941.67
1810,1064.55,3344.59,4004.11,1265.67,967.67
1812,1064.80,3346.81,4306.15,1257.67,949.33
1814,1065.05,3349.02,4089.58,1245.67,950.67
1816,1065.30,3351.24,4017.61,1260.33,970.33
1818,1065.55,3353.45,4039.55,1243.67,954.00
1820,1065.81,3355.66,3993.51,1261.33,976.67
1822,1066.06,3357.87,4135.33,1243.67,957.33
1824,1066.31,3360.07,3913.77,1212.33,941.00
1826,1066.56,3362.27,4188.69,1238.67,957.33
1828,1066.81,3364.47,3962.08,1214.33,944.00
1830,1067.06,3366.67,3887.39,1221.00,955.67
1832,1067.31,3368.87,3740.86,1202.00,946.00
1834,1067.56,3371.06,3665.34,1183.00,933.67
1836,1067.81,3373.25,3959.74,1193.00,934.67
1838,1068.06,3375.44,3900.68,1196.33,943.67
1840,1068.31,3377.62,3987.70,1195.67,941.00
1842,1068.56,3379.81,3619.60,1176.00,938.33
1844,1068.80,3381.99,3738.53,1214.33,974.67
1846,1069.05,3384.16,3896.81,1198.67,956.33
1848,1069.30,3386.34,4177.15,1201.00,950.00
1850,1069.55,3388.51,3625.33,1177.67,950.67
1852,1069.80,3390.68,3846.06,1188.00,954.67
1854,1070.05,3392.85,3722.53,1207.00,981.00
1856,1070.30,3395.02,3654.98,1176.67,955.00
1858,1070.54,3397.18,3512.54,1157.33,943.00
1860,1070.79,3399.34,3723.38,1170.33,950.00
1862,1071.04,3401.50,3508.96,1157.67,947.67
1864,1071.29,3403.66,3457.02,1139.67,934.33
1866,1071.53,3405.81,3827.78,1164.67,949.33
1868,1071.78,3407.96,3622.92,1150.67,946.00
1870,1072.03,3410.11,3457.19,1156.67,958.67
1872,1072.27,3412.26,3592.00,1156.33,952.33
1874,1072.52,3414.40,3197.43,1138.00,949.00
1876,1072.77,3416.54,3584.89,1143.67,945.00
1878,1073.01,3418.68,3605.13,1149.67,956.33
1880,1073.26,3420.82,3565.22,1119.33,930.67
1882,1073.51,3422.96,3585.87,1146.67,957.00
1884,1073.75,3425.09,3150.39,1127.67,951.67
1886,1074.00,3427.22,2920.95,1106.00,938.67
1888,1074.24,3429.35,3597.38,1142.33,955.00
1890,1074.49,3431.47,3239.20,1112.00,940.33
1892,1074.73,3433.59,3253.65,1108.00,939.00
1894,1074.98,3435.71,3161.37,1129.33,965.00
1896,1075.22,3437.83,3245.96,1112.00,945.00
1898,1075.47,3439.95,2978.41,1117.00,958.33
1900,1075.71,3442.06,2783.26,1114.67,964.00
1902,1075.96,3444.17,3426.35,1117.33,950.67
1904,1076.20,3446.28,3128.40,1072.00,918.33
1906,1076.44,3448.38,3261.93,1117.00,960.67
1908,1076.69,3450.49,2878.17,1110.00,963.67
1910,1076.93,3452.59,2338.75,1093.67,962.67
1912,1077.17,3454.69,2733.87,1089.33,947.67
1914,1077.42,3456.79,2710.71,1091.67,954.33
1916,1077.66,3458.88,2678.77,1074.00,941.00
1918,1077.90,3460.97,2725.85,1072.33,940.00
1920,1078.15,3463.06,2552.31,1091.00,964.00
1922,1078.39,3465.15,2485.31,1081.67,956.33
1924,1078.63,3467.23,2554.83,1060.67,934.00
1926,1078.87,3469.32,2648.30,1084.33,957.67
1928,1079.12,3471.40,2904.07,1067.67,937.33
1930,1079.36,3473.47,2552.88,1095.00,975.00
1932,1079.60,3475.55,2594.60,1058.00,936.00
1934,1079.84,3477.62,2099.72,1062.00,953.33
1936,1080.08,3479.69,2394.83,1059.67,945.67
1938,1080.33,3481.76,2677.27,1055.00,937.67
1940,1080.57,3483.83,2192.15,1055.00,951.33
1942,1080.81,3485.89,2346.49,1057.00,948.33
1944,1081.05,3487.95,1700.88,1052.33,958.33
1946,1081.29,3490.01,1692.12,1050.00,956.00
1948,1081.53,3492.07,1673.20,1040.67,949.33
1950,1081.77,3494.12,2035.21,1039.67,943.00
1952,1082.01,3496.18,2262.17,1054.33,955.33
1954,1082.25,3498.23,1947.04,1029.00,937.67
1956,1082.49,3500.27,1570.39,1032.33,949.00
1958,1082.73,3502.32,1928.02,1029.67,937.67
1960,1082.97,3504.36,1653.74,1044.00,960.00
1962,1083.21,3506.40,1728.33,1021.67,938.00
1964,1083.45,3508.44,1638.32,1013.33,933.00
1966,1083.69,3510.48,1814.67,1053.67,969.67
1968,1083.93,3512.51,1252.81,1032.00,960.67
1970,1084.16,3514.54,1828.92,1026.33,943.00
1972,1084.40,3516.57,1459.41,1019.67,945.67
1974,1084.64,3518.60,1054.02,1007.00,942.33
1976,1084.88,3520.62,1698.38,1038.67,959.67
1978,1085.12,3522.65,1160.13,1031.33,964.00
1980,1085.36,3524.67,1121.82,1019.67,954.00
1982,1085.59,3526.68,1471.04,1011.33,940.33
1984,1085.83,3528.70,1691.81,1027.67,955.00
1986,1086.07,3530.71,2080.77,1018.33,940.33
1988,1086.31,3532.72,1739.77,1023.67,952.67
1990,1086.54,3534.73,1655.37,1005.67,935.33
1992,1086.78,3536.74,1140.14,1030.33,968.00
1994,1087.02,3538.74,744.01,1008.67,953.67
1996,1087.25,3540.74,882.13,992.67,935.67
1998,1087.49,3542.74,1515.86,1007.00,941.00
2000,1087.73,3544.74,1526.12,1010.00,946.67
2002,1087.96,3546.74,1180.01,1007.67,949.33
2004,1088.20,3548.73,323.09,1011.67,969.00
2006,1088.43,3550.72,904.03,1001.67,947.00
2008,1088.67,3552.71,793.90,994.33,944.33
2010,1088.90,3554.69,1050.76,984.33,932.00
2012,1089.14,3556.68,897.88,1001.67,952.33
2014,1089.38,3558.66,548.38,981.00,937.33
2016,1089.61,3560.64,774.47,984.00,936.67
2018,1089.84,3562.62,879.41,997.67,949.67
2020,1090.08,3564.59,779.02,984.33,938.67
2022,1090.31,3566.56,851.09,981.00,933.67
2024,1090.55,3568.53,227.51,974.33,937.67
2026,1090.78,3570.50,441.75,974.00,933.33
2028,1091.02,3572.47,142.57,967.33,933.00
2030,1091.25,3574.43,669.33,978.67,935.67
2032,1091.48,3576.39,169.92,952.33,918.00
2034,1091.72,3578.35,320.04,956.67,919.00
2036,1091.95,3580.31,0.00,966.67,936.00
2038,1092.18,3582.26,102.85,951.33,919.33
2040,1092.42,3584.22,735.39,956.33,917.33
2042,1092.65,3586.17,882.36,965.33,924.67
2044,1092.88,3588.12,107.96,954.33,922.67
2046,1093.11,3590.06,179.75,953.33,916.67
2047,1093.23,3591.03,42.91,946.33,913.33