File: plugins/Raman/MatchingLibrary/785X/glycine.csv
ENLIGHTEN Version,4.1.22
Measurement ID,20250220-202910-748359-WP-01977
Serial Number,WP-01977
Model,WP-785X-F13-R-ILC
Detector,S16011-1106
Label,glycine
Declared Match,
Declared Score,0
Scan Averaging,3
Boxcar,0
Technique,Raman
Baseline Correction Algo,AirPLS
ROI Pixel Start,47
ROI Pixel End,2047
ROI Start Line,0
ROI Stop Line,63
CCD C4,1.38617e-12
Slit Width,25
Cropped,True
Interpolated,False
Wavenumber Correction,-0.100481
Raman Intensity Corrected,True
Deconvolved,True
Region,
High Gain Mode,False
Laser Power mW,
Electrical Dark Correction,False
Battery %,
Device ID,<DeviceID USB:0x24aa:0x1000:0:1>
FW Version,10.0.0.10
FPGA Version,035-001
BLE Version,
Prefix,enlighten
Suffix,
Preset,
Auto-Raman,True
Session Count,0
Plugin Name,
Integration Time,428
Timestamp,2025-02-20 20:29:10.7484
Note,
Temperature,0
CCD C0,793.274
CCD C1,0.153259
CCD C2,1.40788e-05
CCD C3,-1.132e-08
CCD Offset,0
CCD Gain,1.9
CCD Offset Odd,0
CCD Gain Odd,1.9
Laser Wavelength,785.032
Laser Enable,False
Laser Power %,0
Laser Temperature,0
Pixel Count,2048

Pixel,Wavelength,Wavenumber,Processed,Raw,Dark
0,793.27,132.25,NA,973.33,940.33
2,793.58,137.12,NA,989.33,962.00
4,793.89,141.99,NA,986.67,947.00
6,794.19,146.86,NA,982.67,950.00
8,794.50,151.72,NA,1004.33,962.67
10,794.81,156.58,NA,996.67,962.00
12,795.12,161.44,NA,977.67,943.67
14,795.42,166.30,NA,990.33,946.33
16,795.73,171.16,NA,981.67,946.33
18,796.04,176.01,NA,1010.67,967.33
20,796.35,180.86,NA,1006.33,964.33
22,796.65,185.71,NA,1032.67,982.00
24,796.96,190.56,NA,1010.00,962.00
26,797.27,195.41,NA,1029.67,976.67
28,797.58,200.25,NA,1026.33,970.00
30,797.88,205.09,NA,1015.00,952.00
32,798.19,209.93,NA,1013.33,955.33
34,798.50,214.77,NA,1022.67,953.67
36,798.81,219.60,NA,1030.33,951.67
38,799.12,224.43,NA,1077.33,958.00
40,799.43,229.27,NA,1296.33,981.00
42,799.74,234.09,NA,2040.33,964.67
44,800.04,238.92,NA,3085.00,990.33
46,800.35,243.75,NA,3473.00,967.33
48,800.66,248.57,67.66,3492.67,978.00
50,800.97,253.39,27.60,3476.00,981.00
52,801.28,258.21,1.38,3450.33,984.67
54,801.59,263.02,7.65,3462.00,983.67
56,801.90,267.83,20.84,3459.67,971.33
58,802.21,272.65,5.95,3463.67,983.00
60,802.52,277.46,11.16,3468.67,983.00
62,802.83,282.26,0.00,3456.33,995.00
64,803.14,287.07,0.00,3463.67,996.67
66,803.45,291.87,0.00,3463.00,991.00
68,803.76,296.67,1.56,3485.67,992.33
70,804.07,301.47,0.00,3466.00,977.00
72,804.38,306.26,0.87,3486.33,971.00
74,804.69,311.06,7.71,3509.00,970.33
76,805.00,315.85,56.50,3575.00,971.33
78,805.31,320.64,77.92,3620.33,978.33
80,805.62,325.42,126.77,3703.00,981.67
82,805.93,330.21,182.27,3793.00,979.00
84,806.24,334.99,332.51,3992.33,958.33
86,806.55,339.77,531.56,4330.00,977.67
88,806.86,344.55,938.85,4963.00,981.67
90,807.17,349.32,1640.94,5941.00,970.00
92,807.48,354.10,2767.21,7275.33,985.33
94,807.80,358.87,3516.95,8009.00,976.67
96,808.11,363.63,2846.43,7348.33,983.33
98,808.42,368.40,1606.10,5951.00,969.33
100,808.73,373.16,746.46,4773.00,967.00
102,809.04,377.93,393.73,4190.67,958.00
104,809.35,382.68,191.65,3861.67,965.00
106,809.66,387.44,102.36,3723.33,974.67
108,809.98,392.19,31.02,3621.67,958.00
110,810.29,396.95,10.17,3591.67,974.00
112,810.60,401.70,0.00,3556.00,970.33
114,810.91,406.44,0.00,3551.67,964.67
116,811.22,411.19,0.00,3561.00,974.67
118,811.54,415.93,0.00,3572.00,975.33
120,811.85,420.67,2.38,3578.00,968.33
122,812.16,425.41,3.32,3578.67,963.33
124,812.47,430.14,7.05,3602.67,977.33
126,812.79,434.87,0.88,3588.33,963.33
128,813.10,439.60,0.46,3583.33,955.33
130,813.41,444.33,25.29,3631.33,962.67
132,813.72,449.06,41.64,3656.67,958.67
134,814.04,453.78,76.46,3699.67,965.33
136,814.35,458.50,159.33,3790.67,954.67
138,814.66,463.22,207.45,3870.33,952.00
140,814.98,467.93,325.79,4084.67,956.00
142,815.29,472.65,590.37,4564.00,964.33
144,815.60,477.36,1213.34,5617.33,971.67
146,815.92,482.06,2527.93,7480.67,959.67
148,816.23,486.77,4254.19,9716.33,979.67
150,816.54,491.47,5189.03,11077.67,998.00
152,816.86,496.17,5206.97,11314.33,958.67
154,817.17,500.87,4974.20,10974.33,965.67
156,817.48,505.57,4547.66,10127.67,953.00
158,817.80,510.26,3323.43,8433.00,957.00
160,818.11,514.95,1794.82,6388.00,970.33
162,818.42,519.64,834.08,4903.33,977.00
164,818.74,524.32,433.51,4121.00,962.00
166,819.05,529.00,229.52,3741.00,973.00
168,819.37,533.68,68.67,3478.00,970.00
170,819.68,538.36,20.77,3359.67,969.33
172,819.99,543.04,9.83,3320.33,986.33
174,820.31,547.71,0.00,3226.00,966.00
176,820.62,552.38,0.00,3181.33,950.00
178,820.94,557.05,0.00,3182.33,963.33
180,821.25,561.71,0.00,3144.00,943.33
182,821.57,566.37,0.04,3197.00,951.33
184,821.88,571.03,18.10,3249.67,967.00
186,822.20,575.69,30.17,3260.33,963.33
188,822.51,580.34,101.83,3387.67,959.67
190,822.83,584.99,241.75,3654.00,966.00
192,823.14,589.64,495.71,4192.00,965.00
194,823.46,594.29,1252.05,5481.67,959.33
196,823.77,598.93,2802.96,7296.00,969.00
198,824.09,603.57,3407.36,7824.00,949.67
200,824.40,608.21,1785.03,6168.00,970.67
202,824.72,612.85,580.88,4461.00,978.00
204,825.03,617.48,207.82,3635.00,972.67
206,825.35,622.11,96.32,3364.33,982.33
208,825.66,626.74,40.45,3241.67,966.00
210,825.98,631.36,0.91,3153.33,954.67
212,826.29,635.99,0.07,3149.00,959.33
214,826.61,640.61,0.00,3137.67,964.33
216,826.92,645.22,0.00,3115.67,947.67
218,827.24,649.84,3.99,3136.67,948.67
220,827.56,654.45,1.08,3153.00,969.67
222,827.87,659.06,22.84,3197.67,963.33
224,828.19,663.67,66.42,3248.00,959.33
226,828.50,668.27,140.88,3405.00,998.00
228,828.82,672.87,201.39,3506.00,973.67
230,829.13,677.47,356.51,3774.67,958.00
232,829.45,682.06,607.56,4271.67,968.00
234,829.77,686.66,1147.82,5296.67,1001.33
236,830.08,691.25,2192.13,6793.33,973.33
238,830.40,695.83,3467.62,8214.67,959.67
240,830.72,700.42,3133.07,7815.33,965.33
242,831.03,705.00,1580.11,5919.33,935.33
244,831.35,709.58,589.43,4355.33,961.00
246,831.66,714.15,235.70,3604.00,945.00
248,831.98,718.73,101.80,3309.00,963.33
250,832.30,723.30,50.88,3182.33,953.00
252,832.61,727.87,8.76,3129.33,970.33
254,832.93,732.43,4.50,3061.00,928.00
256,833.25,736.99,0.00,3054.00,971.00
258,833.56,741.55,12.07,3077.00,952.00
260,833.88,746.11,0.00,3043.33,954.33
262,834.20,750.66,0.00,3041.33,954.67
264,834.51,755.22,0.00,3034.00,969.67
266,834.83,759.76,4.81,3061.33,962.67
268,835.15,764.31,1.94,3069.33,968.67
270,835.47,768.85,0.00,3031.33,942.67
272,835.78,773.39,0.00,3047.00,948.67
274,836.10,777.93,3.86,3068.00,954.67
276,836.42,782.46,0.00,3055.33,954.67
278,836.73,787.00,19.17,3106.33,952.67
280,837.05,791.52,0.00,3064.67,946.33
282,837.37,796.05,3.89,3117.33,967.00
284,837.69,800.57,21.87,3115.00,942.00
286,838.00,805.09,10.06,3138.67,956.33
288,838.32,809.61,0.00,3115.33,951.67
290,838.64,814.13,22.18,3176.00,971.67
292,838.95,818.64,1.35,3136.00,943.00
294,839.27,823.15,0.00,3148.00,953.67
296,839.59,827.65,10.08,3178.67,957.00
298,839.91,832.15,0.00,3159.33,952.67
300,840.22,836.65,0.00,3208.33,983.00
302,840.54,841.15,0.00,3187.67,948.00
304,840.86,845.65,0.00,3218.67,976.67
306,841.18,850.14,0.00,3254.33,966.67
308,841.50,854.63,7.65,3342.67,1000.33
310,841.81,859.11,44.63,3387.67,950.00
312,842.13,863.60,114.68,3516.33,959.33
314,842.45,868.07,218.71,3696.33,947.67
316,842.77,872.55,451.70,4164.67,966.00
318,843.08,877.03,824.69,5165.00,981.67
320,843.40,881.50,1746.96,7961.33,950.33
322,843.72,885.97,5993.27,16383.67,971.67
324,844.04,890.43,18620.33,30331.67,956.67
326,844.36,894.89,19692.67,31226.33,965.33
328,844.67,899.35,6316.88,17009.67,975.67
330,844.99,903.81,1617.46,7876.33,948.67
332,845.31,908.26,766.83,5086.67,974.33
334,845.63,912.71,480.56,4199.00,964.33
336,845.95,917.16,415.85,3985.00,966.00
338,846.27,921.61,443.18,4125.00,1147.67
340,846.58,926.05,336.77,3752.67,960.00
342,846.90,930.49,135.42,3515.00,961.33
344,847.22,934.92,4.91,3268.67,957.33
346,847.54,939.36,0.00,3153.00,937.33
348,847.86,943.79,0.00,3112.33,943.67
350,848.18,948.21,0.00,3094.00,946.33
352,848.49,952.64,0.00,3092.00,951.33
354,848.81,957.06,0.00,3073.00,941.00
356,849.13,961.48,0.00,3109.00,976.67
358,849.45,965.89,0.00,3114.33,969.33
360,849.77,970.31,0.00,3110.33,960.00
362,850.09,974.71,0.00,3113.67,954.00
364,850.40,979.12,0.00,3147.33,975.33
366,850.72,983.52,0.00,3166.00,981.67
368,851.04,987.92,0.00,3140.33,950.67
370,851.36,992.32,0.00,3168.67,948.33
372,851.68,996.72,0.00,3208.33,961.33
374,852.00,1001.11,3.53,3251.33,941.00
376,852.32,1005.50,9.86,3289.33,933.67
378,852.63,1009.88,61.30,3457.67,986.67
380,852.95,1014.26,172.50,3657.00,962.67
382,853.27,1018.64,318.72,4018.33,967.67
384,853.59,1023.02,611.40,4791.00,950.00
386,853.91,1027.39,1656.09,6848.67,946.00
388,854.23,1031.76,4356.20,10174.33,945.00
390,854.55,1036.13,5722.48,11477.67,955.67
392,854.87,1040.49,2984.34,8729.67,949.00
394,855.18,1044.86,1037.87,5849.00,962.67
396,855.50,1049.21,458.69,4528.33,965.33
398,855.82,1053.57,235.79,3993.33,963.00
400,856.14,1057.92,94.08,3734.33,952.00
402,856.46,1062.27,45.02,3659.33,954.33
404,856.78,1066.62,16.71,3611.67,942.00
406,857.10,1070.96,0.00,3554.67,945.00
408,857.42,1075.30,0.00,3623.67,976.67
410,857.74,1079.64,16.64,3657.33,957.00
412,858.06,1083.97,77.11,3763.33,945.67
414,858.37,1088.30,206.05,3958.33,939.33
416,858.69,1092.63,325.90,4211.67,941.67
418,859.01,1096.95,586.32,4705.67,938.00
420,859.33,1101.27,1051.78,5486.67,954.00
422,859.65,1105.59,1808.74,6425.33,952.67
424,859.97,1109.91,2098.20,6689.67,941.67
426,860.29,1114.22,1388.87,5928.33,949.00
428,860.61,1118.53,695.70,4993.00,942.67
430,860.93,1122.84,526.37,4720.67,952.00
432,861.25,1127.14,710.70,5112.67,971.33
434,861.56,1131.44,1465.23,6371.67,947.33
436,861.88,1135.74,3018.35,8268.33,956.00
438,862.20,1140.03,3759.25,8938.33,962.00
440,862.52,1144.32,2286.19,7388.67,958.67
442,862.84,1148.61,839.92,5409.33,964.00
444,863.16,1152.89,298.73,4289.33,949.33
446,863.48,1157.17,120.17,3847.00,945.67
448,863.80,1161.45,31.26,3661.33,954.67
450,864.12,1165.73,4.30,3615.00,952.33
452,864.44,1170.00,0.00,3550.00,940.33
454,864.76,1174.27,0.00,3532.67,954.67
456,865.07,1178.53,0.00,3509.67,938.00
458,865.39,1182.80,0.00,3549.33,954.00
460,865.71,1187.06,0.00,3577.67,947.67
462,866.03,1191.31,0.00,3618.67,955.67
464,866.35,1195.57,5.45,3665.33,949.67
466,866.67,1199.82,0.00,3690.00,959.67
468,866.99,1204.06,0.09,3722.33,954.00
470,867.31,1208.31,0.00,3741.33,967.33
472,867.63,1212.55,0.00,3764.67,957.67
474,867.95,1216.79,0.00,3756.00,936.67
476,868.27,1221.02,0.00,3865.67,956.33
478,868.58,1225.25,7.91,3919.00,939.67
480,868.90,1229.48,0.00,3971.00,961.33
482,869.22,1233.71,0.00,4014.67,964.00
484,869.54,1237.93,0.00,4109.00,977.00
486,869.86,1242.15,0.00,4155.67,957.33
488,870.18,1246.36,0.00,4167.00,938.33
490,870.50,1250.58,0.00,4242.33,957.00
492,870.82,1254.79,0.00,4359.00,984.33
494,871.14,1258.99,0.00,4420.00,961.33
496,871.46,1263.20,0.00,4500.67,955.33
498,871.78,1267.40,0.00,4682.00,951.33
500,872.10,1271.59,16.23,4878.33,943.67
502,872.41,1275.79,107.22,5110.67,953.33
504,872.73,1279.98,254.31,5404.67,952.67
506,873.05,1284.17,419.39,5742.33,964.00
508,873.37,1288.35,628.43,6101.67,933.33
510,873.69,1292.53,930.00,6670.00,939.00
512,874.01,1296.71,1334.58,7476.00,944.33
514,874.33,1300.88,2047.07,8768.00,936.00
516,874.65,1305.06,3308.46,10851.00,949.00
518,874.97,1309.22,5072.41,13846.67,939.00
520,875.29,1313.39,7222.73,18301.33,952.00
522,875.60,1317.55,11113.01,25457.67,964.00
524,875.92,1321.71,21285.58,36998.67,957.67
526,876.24,1325.87,27565.80,41586.00,974.67
528,876.56,1330.02,13243.19,28220.33,956.33
530,876.88,1334.17,3415.10,14211.00,966.33
532,877.20,1338.32,1264.53,8739.00,936.67
534,877.52,1342.46,682.71,6948.67,941.67
536,877.84,1346.60,312.83,6205.33,965.33
538,878.16,1350.73,91.66,5891.00,945.00
540,878.47,1354.87,0.97,5717.00,954.33
542,878.79,1359.00,0.00,5626.00,953.67
544,879.11,1363.13,0.00,5660.33,948.33
546,879.43,1367.25,0.08,5705.00,947.00
548,879.75,1371.37,59.36,5951.33,946.33
550,880.07,1375.49,387.39,6413.67,952.67
552,880.39,1379.60,893.63,7155.00,957.67
554,880.71,1383.71,1432.79,7983.00,945.00
556,881.03,1387.82,2023.45,8940.00,946.67
558,881.34,1391.93,2722.45,10056.00,932.33
560,881.66,1396.03,3573.04,11484.67,947.00
562,881.98,1400.13,4683.94,13362.67,961.33
564,882.30,1404.22,6360.14,15776.33,958.00
566,882.62,1408.31,8473.07,18132.00,948.33
568,882.94,1412.40,9122.71,18524.67,957.33
570,883.26,1416.49,6654.49,15666.00,946.67
572,883.57,1420.57,3523.37,11723.67,969.00
574,883.89,1424.65,1663.75,8967.33,936.00
576,884.21,1428.73,910.10,7860.33,964.67
578,884.53,1432.80,1399.70,8714.67,972.67
580,884.85,1436.87,4358.48,11668.33,946.00
582,885.17,1440.93,5723.48,12813.33,947.00
584,885.49,1445.00,2125.60,9991.00,945.00
586,885.80,1449.06,1501.98,9255.00,938.67
588,886.12,1453.11,4607.87,12225.00,971.00
590,886.44,1457.17,6175.19,12946.00,959.67
592,886.76,1461.22,1790.11,9251.33,952.67
594,887.08,1465.26,228.06,6687.67,972.67
596,887.40,1469.31,14.12,5822.67,936.00
598,887.71,1473.35,0.03,5638.33,936.33
600,888.03,1477.38,0.00,5585.33,951.67
602,888.35,1481.42,0.61,5680.33,966.67
604,888.67,1485.45,58.28,5825.33,955.33
606,888.99,1489.48,268.48,6040.67,942.33
608,889.31,1493.50,486.26,6395.33,956.33
610,889.62,1497.52,858.36,6919.33,955.67
612,889.94,1501.54,1312.72,7451.33,940.67
614,890.26,1505.56,1511.18,7763.00,943.67
616,890.58,1509.57,1560.36,7875.00,944.33
618,890.90,1513.57,1613.92,7854.00,937.67
620,891.21,1517.58,1476.04,7626.67,952.67
622,891.53,1521.58,1068.73,7111.33,950.33
624,891.85,1525.58,648.90,6533.67,943.33
626,892.17,1529.57,344.64,6079.67,952.33
628,892.49,1533.57,140.95,5758.67,960.67
630,892.80,1537.56,47.29,5594.33,944.33
632,893.12,1541.54,12.04,5502.33,939.67
634,893.44,1545.52,39.31,5566.33,962.67
636,893.76,1549.50,126.89,5661.33,938.33
638,894.07,1553.48,307.85,5995.33,954.67
640,894.39,1557.45,731.87,6740.00,942.33
642,894.71,1561.42,1615.51,8042.67,963.33
644,895.03,1565.39,3494.30,9970.67,935.67
646,895.34,1569.35,4492.17,10763.33,966.67
648,895.66,1573.31,2798.30,9266.33,946.33
650,895.98,1577.26,1159.53,7328.00,937.67
652,896.30,1581.22,527.84,6224.33,939.00
654,896.61,1585.17,314.24,5730.67,951.33
656,896.93,1589.11,193.64,5476.67,963.33
658,897.25,1593.06,71.38,5261.00,934.33
660,897.57,1597.00,8.21,5168.33,951.33
662,897.88,1600.93,0.00,5090.67,952.00
664,898.20,1604.87,1.05,5079.67,946.00
666,898.52,1608.80,42.83,5128.33,942.33
668,898.84,1612.72,149.11,5188.33,930.67
670,899.15,1616.65,246.47,5330.33,957.33
672,899.47,1620.57,398.02,5480.33,940.00
674,899.79,1624.49,539.64,5635.33,945.67
676,900.10,1628.40,708.16,5803.67,942.33
678,900.42,1632.31,769.43,5854.33,960.00
680,900.74,1636.22,730.95,5757.00,924.67
682,901.05,1640.12,598.36,5613.00,968.33
684,901.37,1644.02,555.82,5500.00,940.00
686,901.69,1647.92,531.40,5460.33,958.67
688,902.00,1651.82,575.53,5477.33,943.00
690,902.32,1655.71,709.21,5670.33,939.33
692,902.64,1659.60,940.67,6025.67,938.67
694,902.95,1663.48,1578.40,6806.33,948.33
696,903.27,1667.36,2457.31,7602.67,945.00
698,903.59,1671.24,2731.45,7754.67,965.00
700,903.90,1675.11,1898.25,6953.67,955.67
702,904.22,1678.99,858.25,5751.67,931.00
704,904.54,1682.85,346.04,5021.33,979.67
706,904.85,1686.72,147.38,4574.33,941.00
708,905.17,1690.58,82.16,4424.00,948.67
710,905.49,1694.44,22.46,4278.00,934.67
712,905.80,1698.29,32.12,4253.33,945.00
714,906.12,1702.15,10.84,4178.67,950.00
716,906.43,1706.00,39.92,4179.00,958.00
718,906.75,1709.84,50.63,4148.00,960.00
720,907.07,1713.68,38.36,4073.67,941.67
722,907.38,1717.52,14.53,4018.33,951.00
724,907.70,1721.36,0.00,3946.00,945.00
726,908.01,1725.19,0.00,3885.00,945.67
728,908.33,1729.02,0.36,3878.33,954.33
730,908.65,1732.85,0.00,3820.33,946.33
732,908.96,1736.67,0.00,3797.67,955.67
734,909.28,1740.49,0.00,3757.00,939.67
736,909.59,1744.30,0.00,3732.33,955.67
738,909.91,1748.12,27.38,3732.33,944.67
740,910.22,1751.93,0.00,3666.00,949.67
742,910.54,1755.73,2.33,3695.00,986.00
744,910.85,1759.54,0.00,3625.33,959.33
746,911.17,1763.34,0.00,3579.33,940.00
748,911.49,1767.13,0.00,3562.33,948.00
750,911.80,1770.93,0.00,3539.67,939.67
752,912.12,1774.72,0.00,3537.00,956.67
754,912.43,1778.50,16.14,3541.33,928.67
756,912.75,1782.29,67.81,3550.67,932.00
758,913.06,1786.07,81.11,3560.67,935.67
760,913.38,1789.84,60.83,3540.67,948.00
762,913.69,1793.62,62.05,3538.00,957.00
764,914.01,1797.39,70.81,3513.67,946.33
766,914.32,1801.15,102.82,3521.33,941.00
768,914.64,1804.92,74.73,3479.00,935.67
770,914.95,1808.68,51.88,3455.33,953.00
772,915.26,1812.44,64.89,3452.33,955.67
774,915.58,1816.19,61.75,3411.67,937.33
776,915.89,1819.94,81.51,3425.67,945.67
778,916.21,1823.69,102.45,3427.33,947.67
780,916.52,1827.43,87.48,3421.00,967.67
782,916.84,1831.17,89.82,3372.00,929.00
784,917.15,1834.91,98.02,3361.67,933.00
786,917.47,1838.64,119.48,3376.67,945.67
788,917.78,1842.38,75.35,3319.33,949.33
790,918.09,1846.10,64.64,3282.67,938.00
792,918.41,1849.83,56.57,3261.67,952.67
794,918.72,1853.55,38.35,3206.00,931.67
796,919.04,1857.27,33.24,3198.33,941.67
798,919.35,1860.98,36.75,3178.33,939.67
800,919.66,1864.69,35.30,3162.00,942.33
802,919.98,1868.40,48.19,3169.67,948.00
804,920.29,1872.11,56.12,3156.00,945.67
806,920.60,1875.81,60.93,3147.67,945.00
808,920.92,1879.51,53.36,3119.67,941.00
810,921.23,1883.20,64.64,3118.67,952.67
812,921.55,1886.90,45.94,3073.00,936.00
814,921.86,1890.58,45.88,3079.00,958.33
816,922.17,1894.27,51.77,3063.00,957.00
818,922.49,1897.95,42.50,3038.33,953.00
820,922.80,1901.63,41.54,3009.00,942.00
822,923.11,1905.31,36.37,2981.00,937.33
824,923.42,1908.98,47.41,2991.33,948.00
826,923.74,1912.65,41.61,2965.33,947.00
828,924.05,1916.31,85.56,2982.67,936.00
830,924.36,1919.98,56.70,2942.00,937.67
832,924.68,1923.64,67.03,2942.67,940.33
834,924.99,1927.29,78.62,2929.00,931.33
836,925.30,1930.94,90.63,2922.33,933.00
838,925.61,1934.59,81.68,2907.33,943.67
840,925.93,1938.24,59.48,2870.67,939.33
842,926.24,1941.88,35.51,2842.00,950.67
844,926.55,1945.52,41.66,2816.67,941.67
846,926.86,1949.16,43.96,2809.33,948.33
848,927.18,1952.79,20.94,2758.67,932.33
850,927.49,1956.42,36.57,2759.33,933.00
852,927.80,1960.05,1.74,2770.67,1000.00
854,928.11,1963.67,23.93,2729.00,945.67
856,928.42,1967.29,51.82,2739.33,954.33
858,928.74,1970.91,19.05,2690.67,942.33
860,929.05,1974.52,7.58,2655.67,937.00
862,929.36,1978.13,36.99,2667.00,941.67
864,929.67,1981.74,0.00,2610.33,943.67
866,929.98,1985.35,3.28,2616.33,945.67
868,930.29,1988.95,9.00,2604.33,943.00
870,930.61,1992.54,0.00,2559.00,941.67
872,930.92,1996.14,17.82,2593.00,939.00
874,931.23,1999.73,28.87,2595.67,950.67
876,931.54,2003.32,26.66,2584.33,953.00
878,931.85,2006.90,25.59,2572.33,941.33
880,932.16,2010.48,25.96,2561.33,935.67
882,932.47,2014.06,60.28,2577.67,937.33
884,932.78,2017.63,62.52,2577.00,950.00
886,933.09,2021.21,40.27,2551.67,946.33
888,933.41,2024.77,37.36,2550.67,954.67
890,933.72,2028.34,34.47,2552.67,974.67
892,934.03,2031.90,66.62,2547.00,948.33
894,934.34,2035.46,55.80,2534.00,948.67
896,934.65,2039.01,15.37,2468.67,936.00
898,934.96,2042.57,43.29,2510.67,957.00
900,935.27,2046.11,30.72,2505.67,975.00
902,935.58,2049.66,79.86,2483.33,920.67
904,935.89,2053.20,80.81,2495.33,945.00
906,936.20,2056.74,27.60,2446.67,946.33
908,936.51,2060.28,12.42,2425.67,951.00
910,936.82,2063.81,15.37,2422.00,952.00
912,937.13,2067.34,0.00,2397.33,958.67
914,937.44,2070.86,3.74,2384.67,946.33
916,937.75,2074.39,0.00,2355.33,932.33
918,938.06,2077.91,0.00,2350.00,938.00
920,938.37,2081.42,14.57,2366.33,945.00
922,938.68,2084.94,45.27,2379.00,936.00
924,938.99,2088.45,23.10,2353.00,937.33
926,939.30,2091.95,43.54,2384.67,952.67
928,939.60,2095.46,62.54,2382.00,940.00
930,939.91,2098.96,93.58,2411.00,955.00
932,940.22,2102.45,140.03,2436.67,946.00
934,940.53,2105.95,147.17,2439.67,943.00
936,940.84,2109.44,193.29,2473.00,941.67
938,941.15,2112.92,226.69,2500.33,949.00
940,941.46,2116.41,222.58,2479.67,941.67
942,941.77,2119.89,251.36,2513.00,957.33
944,942.07,2123.37,251.42,2494.00,945.00
946,942.38,2126.84,285.67,2524.00,952.00
948,942.69,2130.31,251.00,2487.67,957.00
950,943.00,2133.78,255.29,2470.67,943.67
952,943.31,2137.24,251.36,2468.00,955.33
954,943.62,2140.70,237.68,2437.67,950.33
956,943.92,2144.16,273.86,2449.67,939.00
958,944.23,2147.62,232.49,2421.33,953.67
960,944.54,2151.07,243.13,2422.00,957.33
962,944.85,2154.52,236.89,2411.33,967.67
964,945.16,2157.96,198.98,2364.33,960.00
966,945.46,2161.40,160.33,2319.33,956.00
968,945.77,2164.84,129.64,2259.00,933.00
970,946.08,2168.28,128.94,2253.67,945.67
972,946.39,2171.71,90.37,2217.33,952.67
974,946.69,2175.14,49.41,2170.67,944.33
976,947.00,2178.57,51.23,2157.33,940.33
978,947.31,2181.99,21.95,2112.33,937.00
980,947.61,2185.41,25.73,2126.00,944.33
982,947.92,2188.82,2.48,2099.67,953.33
984,948.23,2192.24,8.07,2075.67,933.00
986,948.53,2195.65,20.81,2089.67,946.33
988,948.84,2199.05,20.40,2054.33,919.00
990,949.15,2202.46,38.03,2084.00,945.67
992,949.45,2205.86,43.92,2073.33,939.00
994,949.76,2209.25,9.91,2036.00,936.67
996,950.07,2212.65,0.00,2002.33,935.33
998,950.37,2216.04,11.33,2015.67,928.67
1000,950.68,2219.43,16.42,2028.67,946.00
1002,950.98,2222.81,14.01,2031.00,957.00
1004,951.29,2226.19,10.96,2000.33,935.33
1006,951.60,2229.57,9.06,1997.67,936.67
1008,951.90,2232.94,0.00,1977.00,935.33
1010,952.21,2236.32,24.17,1993.00,936.67
1012,952.51,2239.68,47.61,2003.67,941.67
1014,952.82,2243.05,0.00,1945.33,930.67
1016,953.12,2246.41,0.00,1983.33,966.67
1018,953.43,2249.77,15.25,2000.67,973.67
1020,953.73,2253.12,13.29,1972.67,955.00
1022,954.04,2256.48,20.38,1939.67,920.33
1024,954.34,2259.83,39.55,1975.33,953.00
1026,954.65,2263.17,14.07,1940.33,936.00
1028,954.95,2266.51,1.08,1930.33,943.00
1030,955.26,2269.85,11.11,1952.33,958.33
1032,955.56,2273.19,0.00,1920.00,955.67
1034,955.87,2276.52,25.01,1940.67,953.67
1036,956.17,2279.85,7.24,1930.33,958.67
1038,956.48,2283.18,16.83,1908.67,928.00
1040,956.78,2286.50,0.00,1882.00,934.67
1042,957.08,2289.82,14.80,1892.33,925.33
1044,957.39,2293.14,0.00,1889.67,941.33
1046,957.69,2296.45,5.66,1891.33,935.00
1048,957.99,2299.76,11.66,1919.67,964.67
1050,958.30,2303.07,24.67,1910.67,948.33
1052,958.60,2306.38,7.94,1898.67,949.33
1054,958.91,2309.68,24.44,1900.67,942.33
1056,959.21,2312.98,19.45,1887.67,938.67
1058,959.51,2316.27,8.19,1881.00,941.00
1060,959.82,2319.56,18.81,1907.33,959.33
1062,960.12,2322.85,0.00,1862.00,938.00
1064,960.42,2326.14,7.47,1868.33,936.67
1066,960.72,2329.42,14.22,1889.00,955.00
1068,961.03,2332.70,11.16,1881.33,951.00
1070,961.33,2335.97,9.45,1875.67,948.67
1072,961.63,2339.25,44.31,1882.33,935.67
1074,961.93,2342.52,34.88,1876.33,938.67
1076,962.24,2345.78,6.82,1863.00,945.00
1078,962.54,2349.05,7.10,1864.67,948.00
1080,962.84,2352.31,1.75,1849.33,940.00
1082,963.14,2355.56,10.33,1855.67,940.33
1084,963.45,2358.82,29.42,1865.33,944.33
1086,963.75,2362.07,41.88,1875.00,949.00
1088,964.05,2365.32,26.61,1890.00,966.00
1090,964.35,2368.56,0.00,1837.00,944.33
1092,964.65,2371.80,36.06,1865.00,951.33
1094,964.95,2375.04,18.00,1846.33,941.67
1096,965.25,2378.27,0.00,1821.00,936.67
1098,965.56,2381.51,0.00,1833.33,947.67
1100,965.86,2384.73,0.00,1833.67,947.67
1102,966.16,2387.96,0.00,1832.33,937.33
1104,966.46,2391.18,0.00,1860.33,962.67
1106,966.76,2394.40,9.04,1860.33,943.67
1108,967.06,2397.62,1.52,1873.67,957.00
1110,967.36,2400.83,8.91,1868.67,939.00
1112,967.66,2404.04,31.40,1915.33,962.00
1114,967.96,2407.25,46.87,1899.33,927.00
1116,968.26,2410.45,53.75,1921.00,941.00
1118,968.56,2413.65,87.26,1942.67,939.67
1120,968.86,2416.85,74.72,1973.67,968.00
1122,969.16,2420.04,88.72,1972.00,947.67
1124,969.46,2423.23,82.22,1964.33,940.33
1126,969.76,2426.42,75.58,1974.67,947.00
1128,970.06,2429.60,95.42,1975.33,929.33
1130,970.36,2432.79,85.91,1977.67,939.00
1132,970.66,2435.96,84.45,1983.33,937.67
1134,970.96,2439.14,35.36,1969.00,945.00
1136,971.26,2442.31,17.23,1973.67,957.67
1138,971.56,2445.48,54.50,1989.00,941.67
1140,971.86,2448.65,13.21,1962.33,937.33
1142,972.16,2451.81,22.47,1986.33,952.67
1144,972.45,2454.97,30.57,1991.33,946.33
1146,972.75,2458.13,0.00,1964.33,942.33
1148,973.05,2461.28,0.06,1976.33,937.33
1150,973.35,2464.43,0.00,1996.67,956.33
1152,973.65,2467.58,2.86,2007.33,945.33
1154,973.95,2470.72,34.52,2027.67,943.00
1156,974.24,2473.86,23.18,2029.67,941.00
1158,974.54,2477.00,12.17,2029.00,934.33
1160,974.84,2480.13,16.95,2062.00,952.33
1162,975.14,2483.27,13.96,2068.33,948.00
1164,975.43,2486.40,20.02,2067.33,933.33
1166,975.73,2489.52,25.56,2090.33,944.33
1168,976.03,2492.64,66.79,2119.67,938.00
1170,976.33,2495.76,64.31,2136.67,950.00
1172,976.62,2498.88,96.19,2152.33,935.67
1174,976.92,2501.99,119.57,2201.00,959.00
1176,977.22,2505.10,167.60,2230.67,951.33
1178,977.51,2508.21,197.28,2251.00,943.67
1180,977.81,2511.31,232.69,2272.00,938.67
1182,978.11,2514.41,342.56,2335.67,942.33
1184,978.40,2517.51,357.37,2354.67,941.67
1186,978.70,2520.61,333.47,2368.00,950.00
1188,979.00,2523.70,340.55,2386.33,954.67
1190,979.29,2526.79,369.54,2393.00,946.33
1192,979.59,2529.87,433.53,2425.00,946.00
1194,979.88,2532.95,369.85,2395.67,936.00
1196,980.18,2536.03,344.31,2406.33,949.33
1198,980.48,2539.11,333.09,2413.67,964.67
1200,980.77,2542.18,265.28,2366.00,949.00
1202,981.07,2545.25,199.12,2362.00,968.67
1204,981.36,2548.32,153.59,2322.00,940.00
1206,981.66,2551.38,107.64,2320.67,958.67
1208,981.95,2554.44,83.21,2294.67,945.67
1210,982.25,2557.50,133.22,2337.00,962.00
1212,982.54,2560.56,152.77,2354.33,964.00
1214,982.84,2563.61,152.29,2359.00,965.67
1216,983.13,2566.66,203.44,2373.67,959.00
1218,983.43,2569.70,222.13,2380.33,957.00
1220,983.72,2572.74,217.77,2392.00,961.67
1222,984.01,2575.78,226.46,2397.67,960.00
1224,984.31,2578.82,325.47,2429.00,940.67
1226,984.60,2581.85,340.20,2453.00,955.00
1228,984.90,2584.88,411.09,2473.67,939.67
1230,985.19,2587.91,562.89,2546.00,944.00
1232,985.48,2590.93,602.06,2579.67,958.67
1234,985.78,2593.96,603.27,2588.33,960.67
1236,986.07,2596.97,674.86,2623.00,959.33
1238,986.36,2599.99,677.54,2636.00,974.67
1240,986.66,2603.00,732.50,2649.33,963.33
1242,986.95,2606.01,735.57,2656.00,969.67
1244,987.24,2609.01,729.71,2657.33,969.67
1246,987.54,2612.02,718.57,2614.00,933.00
1248,987.83,2615.02,746.39,2643.00,961.67
1250,988.12,2618.01,765.42,2649.67,964.00
1252,988.41,2621.01,648.35,2594.00,957.67
1254,988.71,2624.00,625.76,2570.00,942.33
1256,989.00,2626.99,555.06,2550.33,958.67
1258,989.29,2629.97,486.53,2504.67,953.33
1260,989.58,2632.95,429.60,2472.00,957.33
1262,989.87,2635.93,322.15,2434.33,963.33
1264,990.16,2638.91,170.64,2352.67,945.00
1266,990.46,2641.88,137.99,2356.67,967.33
1268,990.75,2644.85,87.23,2333.33,969.67
1270,991.04,2647.81,26.35,2294.33,957.67
1272,991.33,2650.78,0.00,2272.67,958.00
1274,991.62,2653.74,0.37,2272.67,956.67
1276,991.91,2656.70,9.63,2279.00,957.67
1278,992.20,2659.65,12.30,2281.00,959.33
1280,992.49,2662.60,79.50,2291.67,948.00
1282,992.78,2665.55,3.53,2289.67,974.00
1284,993.07,2668.50,2.57,2283.33,967.67
1286,993.36,2671.44,14.76,2285.67,963.33
1288,993.65,2674.38,0.00,2284.67,973.67
1290,993.94,2677.31,104.74,2310.67,958.67
1292,994.23,2680.25,0.00,2272.67,961.33
1294,994.52,2683.18,9.86,2285.33,963.33
1296,994.81,2686.10,0.00,2263.67,960.00
1298,995.10,2689.03,28.56,2285.67,960.67
1300,995.39,2691.95,52.28,2285.33,953.67
1302,995.68,2694.87,104.94,2323.67,973.00
1304,995.97,2697.78,77.08,2316.67,967.00
1306,996.26,2700.70,46.54,2284.67,948.33
1308,996.55,2703.61,129.39,2318.00,955.00
1310,996.84,2706.51,123.37,2329.00,968.33
1312,997.13,2709.42,51.26,2296.33,960.00
1314,997.41,2712.32,89.63,2315.67,964.67
1316,997.70,2715.21,153.22,2322.67,954.00
1318,997.99,2718.11,116.32,2311.67,956.33
1320,998.28,2721.00,131.01,2310.00,942.33
1322,998.57,2723.89,94.41,2328.67,976.00
1324,998.86,2726.77,155.27,2309.67,941.67
1326,999.14,2729.66,208.80,2333.33,952.00
1328,999.43,2732.54,103.17,2314.67,966.00
1330,999.72,2735.41,124.18,2321.33,960.67
1332,1000.01,2738.29,61.76,2303.67,970.33
1334,1000.29,2741.16,55.57,2291.33,964.33
1336,1000.58,2744.03,99.13,2281.67,947.00
1338,1000.87,2746.89,103.23,2305.33,963.67
1340,1001.15,2749.75,16.23,2274.00,954.33
1342,1001.44,2752.61,0.46,2261.00,958.33
1344,1001.73,2755.47,2.72,2259.00,954.00
1346,1002.01,2758.32,1.86,2264.33,960.67
1348,1002.30,2761.17,0.23,2266.33,964.00
1350,1002.59,2764.02,0.00,2273.33,976.67
1352,1002.87,2766.86,47.09,2275.00,952.67
1354,1003.16,2769.70,0.00,2260.00,955.67
1356,1003.44,2772.54,14.28,2273.67,950.00
1358,1003.73,2775.38,44.66,2303.00,965.33
1360,1004.01,2778.21,37.11,2285.67,952.00
1362,1004.30,2781.04,130.02,2319.33,952.67
1364,1004.58,2783.87,98.32,2308.67,950.67
1366,1004.87,2786.69,175.05,2319.33,936.00
1368,1005.15,2789.51,111.41,2338.00,968.67
1370,1005.44,2792.33,139.02,2348.33,964.67
1372,1005.72,2795.14,110.57,2343.33,969.00
1374,1006.01,2797.95,57.03,2328.00,968.33
1376,1006.29,2800.76,30.77,2308.00,953.67
1378,1006.58,2803.57,54.20,2345.00,979.00
1380,1006.86,2806.37,97.91,2332.00,949.33
1382,1007.14,2809.17,125.71,2344.00,951.33
1384,1007.43,2811.97,174.42,2359.33,951.00
1386,1007.71,2814.77,240.66,2365.67,938.33
1388,1008.00,2817.56,336.52,2394.67,940.00
1390,1008.28,2820.35,300.90,2405.67,961.33
1392,1008.56,2823.13,308.28,2399.67,950.67
1394,1008.85,2825.91,278.02,2402.33,959.33
1396,1009.13,2828.69,200.90,2378.67,960.67
1398,1009.41,2831.47,340.56,2417.00,965.33
1400,1009.69,2834.24,141.86,2344.67,941.00
1402,1009.98,2837.02,51.85,2343.67,957.00
1404,1010.26,2839.78,8.68,2341.00,971.67
1406,1010.54,2842.55,0.00,2299.00,941.00
1408,1010.82,2845.31,4.20,2322.33,952.67
1410,1011.11,2848.07,0.00,2302.33,955.67
1412,1011.39,2850.83,0.00,2332.00,967.67
1414,1011.67,2853.58,12.95,2348.00,955.00
1416,1011.95,2856.33,0.00,2341.00,959.67
1418,1012.23,2859.08,3.69,2365.67,964.67
1420,1012.51,2861.83,143.34,2397.67,945.67
1422,1012.80,2864.57,117.58,2432.00,981.33
1424,1013.08,2867.31,239.08,2474.33,974.33
1426,1013.36,2870.04,254.22,2494.67,972.00
1428,1013.64,2872.78,385.06,2527.00,957.67
1430,1013.92,2875.51,618.79,2597.67,977.00
1432,1014.20,2878.24,920.57,2638.00,959.67
1434,1014.48,2880.96,1045.07,2669.33,952.67
1436,1014.76,2883.68,735.48,2617.00,949.00
1438,1015.04,2886.40,583.06,2598.67,951.33
1440,1015.32,2889.12,557.01,2620.67,969.33
1442,1015.60,2891.83,490.17,2583.67,943.00
1444,1015.88,2894.54,473.28,2604.00,963.33
1446,1016.16,2897.25,536.31,2591.67,937.67
1448,1016.44,2899.96,618.48,2628.67,961.33
1450,1016.72,2902.66,652.94,2636.33,959.33
1452,1017.00,2905.36,558.87,2639.00,974.00
1454,1017.28,2908.06,461.62,2595.00,945.00
1456,1017.55,2910.75,301.33,2585.67,972.33
1458,1017.83,2913.44,274.16,2561.00,945.33
1460,1018.11,2916.13,99.61,2557.33,961.33
1462,1018.39,2918.81,0.00,2523.67,966.33
1464,1018.67,2921.49,0.00,2514.33,962.00
1466,1018.95,2924.17,15.87,2535.00,949.67
1468,1019.22,2926.85,0.00,2532.33,971.00
1470,1019.50,2929.52,188.62,2583.67,949.33
1472,1019.78,2932.20,274.32,2584.00,945.33
1474,1020.06,2934.86,539.53,2630.33,950.33
1476,1020.33,2937.53,756.71,2686.33,983.33
1478,1020.61,2940.19,1149.57,2731.00,965.33
1480,1020.89,2942.85,1488.80,2781.33,961.33
1482,1021.17,2945.51,1956.99,2864.33,958.67
1484,1021.44,2948.16,2528.55,2966.67,959.33
1486,1021.72,2950.81,3206.64,3089.00,955.67
1488,1022.00,2953.46,4051.33,3282.67,973.33
1490,1022.27,2956.11,5152.00,3514.00,957.33
1492,1022.55,2958.75,6711.01,3887.33,975.33
1494,1022.82,2961.39,8919.96,4344.00,960.00
1496,1023.10,2964.03,12236.78,4981.00,979.67
1498,1023.38,2966.66,16941.88,5691.00,956.00
1500,1023.65,2969.29,21791.58,6315.00,969.00
1502,1023.93,2971.92,23917.04,6490.67,970.00
1504,1024.20,2974.55,21364.84,6101.00,970.00
1506,1024.48,2977.17,15315.00,5227.67,973.67
1508,1024.75,2979.79,9833.81,4294.00,953.33
1510,1025.03,2982.41,6385.44,3586.33,956.00
1512,1025.30,2985.02,4581.64,3125.33,948.33
1514,1025.58,2987.63,3463.69,2829.00,962.67
1516,1025.85,2990.24,2932.05,2661.33,951.33
1518,1026.13,2992.85,2604.92,2600.33,968.67
1520,1026.40,2995.45,2577.15,2606.00,958.00
1522,1026.68,2998.05,3116.45,2739.00,956.00
1524,1026.95,3000.65,4988.69,3083.33,979.67
1526,1027.22,3003.25,9270.44,3591.33,965.33
1528,1027.50,3005.84,13961.96,3966.67,949.00
1530,1027.77,3008.43,13344.12,3874.67,969.67
1532,1028.04,3011.02,7739.35,3299.33,968.67
1534,1028.32,3013.60,3231.55,2652.33,959.67
1536,1028.59,3016.18,1379.34,2253.67,968.33
1538,1028.86,3018.76,643.13,1997.33,940.67
1540,1029.14,3021.34,296.10,1910.67,964.00
1542,1029.41,3023.91,49.60,1801.00,951.33
1544,1029.68,3026.48,19.55,1764.33,952.00
1546,1029.95,3029.05,0.00,1715.33,956.00
1548,1030.22,3031.61,21.18,1694.00,952.67
1550,1030.50,3034.17,0.00,1631.00,951.67
1552,1030.77,3036.73,0.00,1627.00,958.00
1554,1031.04,3039.29,0.00,1613.00,970.67
1556,1031.31,3041.84,0.00,1583.33,938.33
1558,1031.58,3044.39,15.90,1611.33,976.00
1560,1031.85,3046.94,0.00,1586.33,976.67
1562,1032.13,3049.49,63.95,1562.33,952.67
1564,1032.40,3052.03,0.00,1550.33,967.67
1566,1032.67,3054.57,0.00,1517.67,945.67
1568,1032.94,3057.11,0.21,1541.00,976.00
1570,1033.21,3059.64,0.00,1492.33,940.67
1572,1033.48,3062.18,25.86,1515.00,967.33
1574,1033.75,3064.70,0.00,1493.00,964.67
1576,1034.02,3067.23,0.00,1494.67,973.33
1578,1034.29,3069.75,51.19,1468.67,939.33
1580,1034.56,3072.28,1.20,1477.00,966.67
1582,1034.83,3074.79,78.85,1453.67,941.33
1584,1035.10,3077.31,159.54,1472.00,959.67
1586,1035.37,3079.82,38.05,1442.33,949.00
1588,1035.64,3082.33,70.45,1470.00,971.00
1590,1035.91,3084.84,0.00,1439.00,967.00
1592,1036.17,3087.34,0.00,1421.67,955.00
1594,1036.44,3089.85,0.00,1446.67,990.00
1596,1036.71,3092.35,70.81,1426.67,952.00
1598,1036.98,3094.84,112.27,1419.67,949.00
1600,1037.25,3097.34,32.89,1405.67,944.00
1602,1037.52,3099.83,29.64,1418.67,957.00
1604,1037.78,3102.32,21.83,1417.00,960.00
1606,1038.05,3104.80,87.46,1434.33,970.00
1608,1038.32,3107.29,86.54,1417.33,960.67
1610,1038.59,3109.77,207.54,1421.00,952.00
1612,1038.85,3112.24,376.40,1436.33,950.67
1614,1039.12,3114.72,544.18,1463.33,963.67
1616,1039.39,3117.19,549.82,1432.67,937.67
1618,1039.66,3119.66,829.39,1498.67,970.33
1620,1039.92,3122.13,569.05,1471.33,976.67
1622,1040.19,3124.59,851.82,1487.67,962.67
1624,1040.45,3127.05,1141.75,1510.67,960.00
1626,1040.72,3129.51,1257.89,1522.67,962.67
1628,1040.99,3131.97,1338.61,1536.67,970.00
1630,1041.25,3134.42,1522.20,1558.67,979.33
1632,1041.52,3136.87,1803.74,1546.33,945.00
1634,1041.78,3139.32,1675.18,1545.33,962.67
1636,1042.05,3141.77,1722.97,1595.33,1009.67
1638,1042.32,3144.21,1684.32,1541.67,965.33
1640,1042.58,3146.65,1786.61,1561.33,979.00
1642,1042.85,3149.09,1583.62,1525.33,969.33
1644,1043.11,3151.52,1492.09,1502.33,960.67
1646,1043.38,3153.96,1452.20,1503.67,971.33
1648,1043.64,3156.39,1246.18,1466.00,960.67
1650,1043.90,3158.81,1104.28,1453.00,967.67
1652,1044.17,3161.24,952.43,1437.67,972.67
1654,1044.43,3163.66,815.60,1400.00,951.67
1656,1044.70,3166.08,658.42,1411.33,981.67
1658,1044.96,3168.49,553.08,1376.00,961.33
1660,1045.22,3170.91,379.00,1353.00,961.33
1662,1045.49,3173.32,389.09,1350.00,960.00
1664,1045.75,3175.73,301.42,1342.33,964.00
1666,1046.01,3178.13,207.49,1323.33,960.00
1668,1046.28,3180.54,296.70,1335.33,970.33
1670,1046.54,3182.94,252.85,1333.67,976.67
1672,1046.80,3185.34,103.42,1310.00,966.67
1674,1047.07,3187.73,81.99,1293.00,950.67
1676,1047.33,3190.12,34.91,1300.00,966.33
1678,1047.59,3192.51,0.00,1296.00,976.67
1680,1047.85,3194.90,166.15,1315.00,978.33
1682,1048.11,3197.29,283.58,1306.33,969.00
1684,1048.38,3199.67,38.56,1284.33,969.67
1686,1048.64,3202.05,230.82,1305.67,980.33
1688,1048.90,3204.43,39.24,1278.67,970.00
1690,1049.16,3206.80,21.00,1267.67,962.00
1692,1049.42,3209.17,0.00,1270.00,973.00
1694,1049.68,3211.54,7.05,1254.67,959.00
1696,1049.94,3213.91,98.07,1268.67,968.33
1698,1050.20,3216.27,334.61,1277.33,968.00
1700,1050.46,3218.63,104.23,1271.00,979.67
1702,1050.72,3220.99,135.78,1262.67,969.33
1704,1050.98,3223.35,99.92,1257.67,970.33
1706,1051.24,3225.70,68.19,1247.33,967.33
1708,1051.50,3228.05,206.34,1236.67,949.67
1710,1051.76,3230.40,142.71,1250.67,973.67
1712,1052.02,3232.75,243.77,1247.00,966.00
1714,1052.28,3235.09,88.24,1246.00,978.67
1716,1052.54,3237.43,258.39,1241.00,962.00
1718,1052.80,3239.77,255.33,1233.00,958.00
1720,1053.06,3242.11,140.35,1225.00,963.33
1722,1053.32,3244.44,259.38,1225.33,956.67
1724,1053.58,3246.77,104.44,1239.33,986.00
1726,1053.84,3249.10,288.56,1228.33,964.00
1728,1054.10,3251.42,446.98,1229.00,961.33
1730,1054.35,3253.75,519.73,1233.00,965.33
1732,1054.61,3256.07,400.04,1234.00,974.00
1734,1054.87,3258.39,232.33,1211.00,964.67
1736,1055.13,3260.70,262.64,1209.00,964.00
1738,1055.38,3263.01,316.37,1203.67,958.67
1740,1055.64,3265.32,298.25,1211.33,971.00
1742,1055.90,3267.63,382.20,1191.00,948.67
1744,1056.16,3269.94,397.65,1224.00,984.33
1746,1056.41,3272.24,319.53,1217.00,984.33
1748,1056.67,3274.54,215.41,1199.33,975.33
1750,1056.93,3276.84,240.47,1197.00,974.33
1752,1057.18,3279.13,483.29,1188.00,955.00
1754,1057.44,3281.42,408.62,1176.33,953.33
1756,1057.69,3283.71,233.89,1170.67,960.33
1758,1057.95,3286.00,359.60,1195.33,978.33
1760,1058.21,3288.28,203.23,1168.00,960.67
1762,1058.46,3290.57,18.31,1170.33,979.67
1764,1058.72,3292.85,308.82,1176.00,969.67
1766,1058.97,3295.12,440.94,1157.33,951.33
1768,1059.23,3297.40,182.86,1153.33,961.33
1770,1059.48,3299.67,97.43,1166.00,978.67
1772,1059.74,3301.94,32.99,1137.00,957.67
1774,1059.99,3304.21,129.19,1162.33,978.33
1776,1060.25,3306.47,212.38,1171.00,986.67
1778,1060.50,3308.73,95.69,1136.67,963.33
1780,1060.76,3310.99,348.34,1144.33,961.00
1782,1061.01,3313.25,272.39,1139.33,963.33
1784,1061.26,3315.50,225.62,1140.00,968.67
1786,1061.52,3317.76,246.24,1149.33,978.00
1788,1061.77,3320.01,232.30,1150.00,979.67
1790,1062.02,3322.25,162.06,1119.00,954.67
1792,1062.28,3324.50,177.43,1126.00,963.33
1794,1062.53,3326.74,191.65,1118.67,959.00
1796,1062.78,3328.98,457.19,1133.67,965.33
1798,1063.04,3331.22,280.99,1118.33,962.00
1800,1063.29,3333.45,215.77,1114.67,962.67
1802,1063.54,3335.68,387.23,1121.33,960.33
1804,1063.79,3337.91,212.99,1127.00,976.67
1806,1064.05,3340.14,7.34,1122.67,986.67
1808,1064.30,3342.36,455.71,1107.67,952.00
1810,1064.55,3344.59,418.64,1126.00,974.00
1812,1064.80,3346.81,133.40,1105.33,969.00
1814,1065.05,3349.02,261.02,1102.33,962.00
1816,1065.30,3351.24,374.54,1114.67,972.33
1818,1065.55,3353.45,345.18,1099.67,961.33
1820,1065.81,3355.66,330.54,1127.00,990.67
1822,1066.06,3357.87,124.31,1088.33,962.00
1824,1066.31,3360.07,98.29,1081.00,957.00
1826,1066.56,3362.27,167.21,1099.33,973.33
1828,1066.81,3364.47,247.09,1082.67,956.33
1830,1067.06,3366.67,319.84,1087.67,962.00
1832,1067.31,3368.87,429.40,1083.00,955.00
1834,1067.56,3371.06,354.47,1067.67,943.00
1836,1067.81,3373.25,392.09,1067.33,941.67
1838,1068.06,3375.44,193.11,1067.33,952.33
1840,1068.31,3377.62,313.64,1074.67,955.67
1842,1068.56,3379.81,338.65,1065.67,946.33
1844,1068.80,3381.99,154.52,1098.67,990.00
1846,1069.05,3384.16,605.28,1081.67,958.00
1848,1069.30,3386.34,335.63,1073.00,963.33
1850,1069.55,3388.51,683.19,1076.67,956.33
1852,1069.80,3390.68,573.56,1079.33,959.33
1854,1070.05,3392.85,210.06,1094.67,989.33
1856,1070.30,3395.02,279.04,1069.33,962.00
1858,1070.54,3397.18,234.28,1052.67,952.00
1860,1070.79,3399.34,493.27,1066.33,960.00
1862,1071.04,3401.50,594.89,1067.00,958.67
1864,1071.29,3403.66,352.47,1046.00,946.33
1866,1071.53,3405.81,422.68,1065.33,964.00
1868,1071.78,3407.96,397.80,1057.67,959.67
1870,1072.03,3410.11,178.78,1055.00,967.00
1872,1072.27,3412.26,519.89,1064.67,966.67
1874,1072.52,3414.40,454.06,1055.00,960.00
1876,1072.77,3416.54,307.24,1050.33,961.33
1878,1073.01,3418.68,370.51,1058.67,969.00
1880,1073.26,3420.82,359.35,1025.67,939.00
1882,1073.51,3422.96,312.59,1049.33,966.33
1884,1073.75,3425.09,620.56,1056.33,964.33
1886,1074.00,3427.22,359.56,1031.67,946.67
1888,1074.24,3429.35,0.00,1047.67,980.33
1890,1074.49,3431.47,180.33,1032.67,955.67
1892,1074.73,3433.59,275.69,1026.33,948.67
1894,1074.98,3435.71,669.90,1059.33,973.67
1896,1075.22,3437.83,708.33,1043.67,959.33
1898,1075.47,3439.95,371.30,1041.00,965.67
1900,1075.71,3442.06,453.60,1056.33,978.33
1902,1075.96,3444.17,398.61,1041.33,965.33
1904,1076.20,3446.28,448.12,1003.67,926.00
1906,1076.44,3448.38,237.71,1055.33,985.33
1908,1076.69,3450.49,377.80,1047.33,973.33
1910,1076.93,3452.59,537.05,1042.33,966.00
1912,1077.17,3454.69,476.87,1024.67,953.33
1914,1077.42,3456.79,686.63,1034.00,959.33
1916,1077.66,3458.88,412.91,1022.33,955.00
1918,1077.90,3460.97,569.31,1026.67,954.00
1920,1078.15,3463.06,398.56,1045.67,977.00
1922,1078.39,3465.15,21.33,1024.00,969.00
1924,1078.63,3467.23,682.82,1010.67,938.33
1926,1078.87,3469.32,31.97,1028.00,974.67
1928,1079.12,3471.40,490.72,1019.67,955.67
1930,1079.36,3473.47,497.48,1053.33,988.67
1932,1079.60,3475.55,592.12,1014.00,947.00
1934,1079.84,3477.62,349.00,1025.33,966.67
1936,1080.08,3479.69,576.26,1013.33,950.00
1938,1080.33,3481.76,387.98,1008.00,950.67
1940,1080.57,3483.83,423.66,1020.33,962.67
1942,1080.81,3485.89,229.28,1017.67,966.00
1944,1081.05,3487.95,570.96,1030.00,971.00
1946,1081.29,3490.01,722.57,1021.00,960.33
1948,1081.53,3492.07,295.81,1002.00,952.00
1950,1081.77,3494.12,626.15,1013.33,955.33
1952,1082.01,3496.18,248.14,1015.67,967.67
1954,1082.25,3498.23,427.70,1006.33,955.33
1956,1082.49,3500.27,746.82,1017.00,961.33
1958,1082.73,3502.32,758.87,1002.67,947.67
1960,1082.97,3504.36,451.37,1016.33,966.67
1962,1083.21,3506.40,323.49,1002.67,955.00
1964,1083.45,3508.44,48.66,983.67,945.00
1966,1083.69,3510.48,473.96,1031.33,983.00
1968,1083.93,3512.51,1083.30,1017.67,959.33
1970,1084.16,3514.54,526.91,1004.67,958.67
1972,1084.40,3516.57,24.11,1000.33,965.33
1974,1084.64,3518.60,670.68,1000.33,951.33
1976,1084.88,3520.62,732.83,1021.00,972.33
1978,1085.12,3522.65,514.21,1016.33,973.67
1980,1085.36,3524.67,655.21,1011.67,967.00
1982,1085.59,3526.68,362.23,989.67,951.33
1984,1085.83,3528.70,754.61,1014.33,968.33
1986,1086.07,3530.71,502.08,992.67,952.00
1988,1086.31,3532.72,479.12,1008.33,968.33
1990,1086.54,3534.73,418.97,986.67,949.00
1992,1086.78,3536.74,1020.72,1024.67,976.67
1994,1087.02,3538.74,883.28,1004.67,961.33
1996,1087.25,3540.74,676.90,981.67,943.00
1998,1087.49,3542.74,968.67,1000.00,956.67
2000,1087.73,3544.74,463.76,999.00,964.67
2002,1087.96,3546.74,771.72,995.00,954.33
2004,1088.20,3548.73,0.00,1007.00,985.00
2006,1088.43,3550.72,817.32,999.33,958.67
2008,1088.67,3552.71,93.80,985.33,959.33
2010,1088.90,3554.69,415.35,974.67,943.00
2012,1089.14,3556.68,396.56,995.67,964.33
2014,1089.38,3558.66,179.74,977.67,950.67
2016,1089.61,3560.64,941.10,991.00,951.00
2018,1089.84,3562.62,451.49,999.67,969.00
2020,1090.08,3564.59,488.12,979.00,948.00
2022,1090.31,3566.56,767.08,986.67,951.00
2024,1090.55,3568.53,294.96,986.00,958.33
2026,1090.78,3570.50,537.19,974.00,942.00
2028,1091.02,3572.47,389.60,971.67,942.33
2030,1091.25,3574.43,190.28,971.00,945.67
2032,1091.48,3576.39,551.72,959.33,928.67
2034,1091.72,3578.35,733.40,958.00,925.33
2036,1091.95,3580.31,429.49,973.33,945.67
2038,1092.18,3582.26,222.04,954.33,930.00
2040,1092.42,3584.22,414.33,953.67,927.00
2042,1092.65,3586.17,0.00,955.00,937.33
2044,1092.88,3588.12,168.68,955.00,931.00
2046,1093.11,3590.06,76.62,950.00,926.00
2047,1093.23,3591.03,47.23,948.00,923.33