File: plugins/Raman/MatchingLibrary/785X/heptane.csv
ENLIGHTEN Version,4.1.22
Measurement ID,20250220-195907-928276-WP-01977
Serial Number,WP-01977
Model,WP-785X-F13-R-ILC
Detector,S16011-1106
Label,heptane
Declared Match,
Declared Score,0
Scan Averaging,2
Boxcar,0
Technique,Raman
Baseline Correction Algo,AirPLS
ROI Pixel Start,47
ROI Pixel End,2047
ROI Start Line,0
ROI Stop Line,63
CCD C4,1.38617e-12
Slit Width,25
Cropped,True
Interpolated,False
Wavenumber Correction,-0.100481
Raman Intensity Corrected,True
Deconvolved,True
Region,
High Gain Mode,False
Laser Power mW,
Electrical Dark Correction,False
Battery %,
Device ID,<DeviceID USB:0x24aa:0x1000:0:1>
FW Version,10.0.0.10
FPGA Version,035-001
BLE Version,
Prefix,enlighten
Suffix,
Preset,
Auto-Raman,True
Session Count,0
Plugin Name,
Integration Time,611
Timestamp,2025-02-20 19:59:07.928276
Note,
Temperature,0
CCD C0,793.274
CCD C1,0.153259
CCD C2,1.40788e-05
CCD C3,-1.132e-08
CCD Offset,0
CCD Gain,1.9
CCD Offset Odd,0
CCD Gain Odd,1.9
Laser Wavelength,785.032
Laser Enable,False
Laser Power %,0
Laser Temperature,0
Pixel Count,2048

Pixel,Wavelength,Wavenumber,Processed,Raw,Dark
0,793.27,132.25,NA,1033.00,984.00
2,793.58,137.12,NA,1065.50,1008.00
4,793.89,141.99,NA,1039.50,992.50
6,794.19,146.86,NA,1043.50,993.00
8,794.50,151.72,NA,1074.00,1021.00
10,794.81,156.58,NA,1063.50,1014.00
12,795.12,161.44,NA,1036.00,995.00
14,795.42,166.30,NA,1045.50,985.00
16,795.73,171.16,NA,1065.50,991.50
18,796.04,176.01,NA,1079.00,1015.00
20,796.35,180.86,NA,1070.00,1018.00
22,796.65,185.71,NA,1101.50,1047.50
24,796.96,190.56,NA,1077.00,1022.00
26,797.27,195.41,NA,1097.00,1027.50
28,797.58,200.25,NA,1101.50,1017.00
30,797.88,205.09,NA,1082.50,1004.00
32,798.19,209.93,NA,1085.00,1011.50
34,798.50,214.77,NA,1081.50,1006.00
36,798.81,219.60,NA,1088.00,996.00
38,799.12,224.43,NA,1138.50,1017.00
40,799.43,229.27,NA,1344.00,1035.50
42,799.74,234.09,NA,2069.00,1027.50
44,800.04,238.92,NA,3195.50,1058.00
46,800.35,243.75,NA,3680.50,1017.00
48,800.66,248.57,107.77,3928.50,1035.00
50,800.97,253.39,263.22,4058.50,1040.00
52,801.28,258.21,343.38,4203.00,1046.50
54,801.59,263.02,478.67,4398.50,1042.50
56,801.90,267.83,844.64,4872.00,1034.00
58,802.21,272.65,1397.22,5571.50,1039.00
60,802.52,277.46,2192.54,6518.00,1041.00
62,802.83,282.26,2877.07,7372.50,1058.50
64,803.14,287.07,3390.22,8058.00,1062.00
66,803.45,291.87,3583.42,8620.50,1056.00
68,803.76,296.67,4447.36,10282.00,1065.50
70,804.07,301.47,7392.19,14202.50,1041.00
72,804.38,306.26,13097.01,19946.00,1030.50
74,804.69,311.06,14962.90,21649.50,1039.00
76,805.00,315.85,10326.76,17319.00,1032.00
78,805.31,320.64,5382.48,11534.50,1045.50
80,805.62,325.42,2738.34,7738.00,1046.50
82,805.93,330.21,1417.21,5666.00,1041.50
84,806.24,334.99,869.34,4724.00,1010.50
86,806.55,339.77,526.44,4246.00,1024.50
88,806.86,344.55,564.87,4335.50,1049.50
90,807.17,349.32,1021.59,4869.00,1019.00
92,807.48,354.10,1743.88,5557.00,1027.50
94,807.80,358.87,1816.91,5624.50,1050.50
96,808.11,363.63,1078.37,4869.00,1026.50
98,808.42,368.40,527.13,4135.00,1015.00
100,808.73,373.16,356.32,3851.50,1015.00
102,809.04,377.93,423.73,3942.00,1008.50
104,809.35,382.68,851.43,4602.50,1007.50
106,809.66,387.44,1753.92,5904.00,1028.50
108,809.98,392.19,3451.71,7770.00,1006.50
110,810.29,396.95,4057.43,8551.50,1042.00
112,810.60,401.70,3413.04,7923.50,1022.50
114,810.91,406.44,2568.32,6783.50,1026.50
116,811.22,411.19,1602.32,5513.50,1037.00
118,811.54,415.93,924.31,4525.50,1038.00
120,811.85,420.67,599.50,3906.50,1011.50
122,812.16,425.41,378.50,3529.50,1014.00
124,812.47,430.14,143.15,3211.50,1023.00
126,812.79,434.87,23.57,2974.50,1013.00
128,813.10,439.60,6.47,2893.00,1003.00
130,813.41,444.33,69.58,3008.50,1007.50
132,813.72,449.06,317.07,3258.50,1012.50
134,814.04,453.78,603.17,3498.00,1013.50
136,814.35,458.50,436.27,3297.00,994.00
138,814.66,463.22,174.53,2965.00,996.00
140,814.98,467.93,109.96,2804.00,1006.00
142,815.29,472.65,134.66,2785.50,1010.50
144,815.60,477.36,188.87,2833.50,1019.00
146,815.92,482.06,322.95,2937.50,999.00
148,816.23,486.77,417.11,3079.00,1036.00
150,816.54,491.47,520.71,3220.00,1051.00
152,816.86,496.17,634.00,3311.50,1001.00
154,817.17,500.87,800.21,3492.50,1021.00
156,817.48,505.57,943.33,3557.00,1003.00
158,817.80,510.26,752.37,3286.50,1003.00
160,818.11,514.95,418.87,2857.00,1031.00
162,818.42,519.64,267.86,2552.00,1018.00
164,818.74,524.32,203.12,2349.50,1017.00
166,819.05,529.00,155.70,2225.50,1022.00
168,819.37,533.68,30.97,2032.50,1022.00
170,819.68,538.36,4.46,1904.50,1017.00
172,819.99,543.04,8.93,1868.50,1027.50
174,820.31,547.71,0.00,1775.50,1011.50
176,820.62,552.38,0.00,1695.00,1002.00
178,820.94,557.05,0.00,1643.00,1008.50
180,821.25,561.71,0.00,1594.00,984.50
182,821.57,566.37,0.00,1577.00,1002.00
184,821.88,571.03,0.00,1568.50,1013.00
186,822.20,575.69,0.00,1562.00,1016.00
188,822.51,580.34,0.00,1552.50,1007.50
190,822.83,584.99,0.00,1541.00,1004.00
192,823.14,589.64,0.25,1556.50,1007.50
194,823.46,594.29,0.00,1541.00,1006.50
196,823.77,598.93,0.00,1541.00,1011.50
198,824.09,603.57,0.00,1512.50,983.00
200,824.40,608.21,0.00,1531.50,1011.50
202,824.72,612.85,0.00,1558.00,1031.50
204,825.03,617.48,0.00,1540.50,1016.00
206,825.35,622.11,0.00,1538.00,1028.50
208,825.66,626.74,0.00,1537.00,1017.00
210,825.98,631.36,0.00,1523.00,1003.00
212,826.29,635.99,5.54,1557.00,1016.00
214,826.61,640.61,0.00,1534.50,1011.50
216,826.92,645.22,0.00,1531.50,1004.00
218,827.24,649.84,2.44,1555.50,999.00
220,827.56,654.45,0.00,1575.50,1037.00
222,827.87,659.06,0.00,1579.00,1012.00
224,828.19,663.67,0.00,1585.00,1008.50
226,828.50,668.27,0.00,1640.00,1071.00
228,828.82,672.87,0.00,1639.50,1019.00
230,829.13,677.47,0.00,1629.50,997.00
232,829.45,682.06,0.00,1654.00,1022.00
234,829.77,686.66,0.00,1700.50,1033.00
236,830.08,691.25,0.00,1735.00,1017.00
238,830.40,695.83,0.00,1763.00,1011.50
240,830.72,700.42,0.00,1845.50,1012.50
242,831.03,705.00,0.28,1915.00,972.50
244,831.35,709.58,25.52,2074.50,999.00
246,831.66,714.15,129.68,2249.50,967.00
248,831.98,718.73,230.26,2523.50,1019.00
250,832.30,723.30,380.88,2789.50,989.00
252,832.61,727.87,477.95,3086.50,1034.00
254,832.93,732.43,600.43,3313.50,967.00
256,833.25,736.99,792.74,3683.00,1027.50
258,833.56,741.55,952.97,3893.50,1000.00
260,833.88,746.11,745.57,3720.00,1010.00
262,834.20,750.66,509.88,3478.00,999.00
264,834.51,755.22,409.77,3452.00,1023.00
266,834.83,759.76,555.67,3806.00,1022.00
268,835.15,764.31,1102.25,4747.50,1030.50
270,835.47,768.85,1880.07,5868.50,998.00
272,835.78,773.39,2429.00,6722.00,1007.50
274,836.10,777.93,2439.09,6782.50,996.00
276,836.42,782.46,1865.36,6040.50,1010.00
278,836.73,787.00,1087.77,4968.00,999.00
280,837.05,791.52,448.92,4024.50,981.00
282,837.37,796.05,139.25,3566.50,1021.00
284,837.69,800.57,84.69,3460.50,997.00
286,838.00,805.09,216.96,3717.50,1000.00
288,838.32,809.61,545.69,4301.50,1000.50
290,838.64,814.13,1077.75,5338.00,1022.00
292,838.95,818.64,1989.95,7084.50,1005.00
294,839.27,823.15,3790.73,10067.00,1004.50
296,839.59,827.65,6320.64,13801.00,1018.00
298,839.91,832.15,7859.37,16306.50,1001.00
300,840.22,836.65,8809.53,17788.00,1047.50
302,840.54,841.15,8491.25,17374.00,998.00
304,840.86,845.65,6660.77,15204.00,1037.00
306,841.18,850.14,6161.00,14015.00,1024.50
308,841.50,854.63,5955.48,13168.00,1078.00
310,841.81,859.11,4096.09,10642.50,1012.00
312,842.13,863.60,3000.06,8844.50,1014.00
314,842.45,868.07,2414.19,7720.50,1000.50
316,842.77,872.55,1904.12,7098.00,1016.00
318,843.08,877.03,2065.52,7561.00,1035.00
320,843.40,881.50,3241.57,9286.50,990.50
322,843.72,885.97,5124.80,11948.00,1035.00
324,844.04,890.43,5698.89,13622.00,1002.50
326,844.36,894.89,6716.78,16109.00,1003.00
328,844.67,899.35,10904.10,21411.00,1021.00
330,844.99,903.81,12850.39,23179.50,994.00
332,845.31,908.26,9425.72,19074.00,1034.00
334,845.63,912.71,4872.34,12833.00,1021.00
336,845.95,917.16,1969.11,8004.00,1023.00
338,846.27,921.61,1118.83,6336.50,1254.00
340,846.58,926.05,1263.63,5990.00,1015.00
342,846.90,930.49,1638.43,6349.50,1018.00
344,847.22,934.92,1606.88,6363.50,1013.00
346,847.54,939.36,1357.31,6152.50,982.00
348,847.86,943.79,1392.90,6251.00,992.50
350,848.18,948.21,1793.32,6705.50,989.50
352,848.49,952.64,1823.39,6791.00,1004.50
354,848.81,957.06,1704.07,6586.00,969.00
356,849.13,961.48,1535.26,6206.50,1025.50
358,849.45,965.89,781.49,5222.00,1031.50
360,849.77,970.31,109.57,4300.50,1009.50
362,850.09,974.71,0.26,3867.50,1004.50
364,850.40,979.12,0.00,3855.50,1028.50
366,850.72,983.52,11.93,4046.50,1045.50
368,851.04,987.92,305.69,4331.00,984.50
370,851.36,992.32,413.53,4471.50,976.50
372,851.68,996.72,345.29,4537.00,1005.50
374,852.00,1001.11,478.99,4772.00,986.50
376,852.32,1005.50,742.59,5228.50,991.50
378,852.63,1009.88,1167.90,6033.00,1032.00
380,852.95,1014.26,1866.04,7166.00,1014.00
382,853.27,1018.64,2688.40,8422.00,1022.00
384,853.59,1023.02,3374.85,9448.00,1005.50
386,853.91,1027.39,3645.33,9959.00,985.00
388,854.23,1031.76,3618.99,10282.00,984.50
390,854.55,1036.13,3826.91,11021.50,993.00
392,854.87,1040.49,5586.50,13446.00,987.00
394,855.18,1044.86,7482.66,15774.00,1025.50
396,855.50,1049.21,6967.05,15654.00,1009.50
398,855.82,1053.57,6540.10,15301.00,1021.50
400,856.14,1057.92,6861.42,15487.50,1007.00
402,856.46,1062.27,6523.33,15170.50,1001.00
404,856.78,1066.62,6638.70,15487.00,978.50
406,857.10,1070.96,7353.00,16455.00,986.00
408,857.42,1075.30,8107.66,17432.50,1029.50
410,857.74,1079.64,8534.31,17711.00,1006.50
412,858.06,1083.97,7384.85,15965.00,993.50
414,858.37,1088.30,5307.92,12984.50,991.00
416,858.69,1092.63,3417.08,9994.00,991.50
418,859.01,1096.95,2100.80,7743.50,983.00
420,859.33,1101.27,1313.56,6340.50,1001.00
422,859.65,1105.59,926.28,5603.50,1003.00
424,859.97,1109.91,717.13,5203.00,990.50
426,860.29,1114.22,672.71,5135.00,994.50
428,860.61,1118.53,785.43,5376.00,980.00
430,860.93,1122.84,1146.26,6170.50,996.00
432,861.25,1127.14,2041.09,7972.00,1020.00
434,861.56,1131.44,4027.06,11115.50,995.50
436,861.88,1135.74,7248.12,14842.50,1000.00
438,862.20,1140.03,7945.73,15439.50,1004.00
440,862.52,1144.32,4248.59,11482.50,1013.00
442,862.84,1148.61,1806.96,7876.00,1024.50
444,863.16,1152.89,1275.84,6629.00,999.00
446,863.48,1157.17,1606.86,6805.50,991.50
448,863.80,1161.45,2451.62,7565.00,1000.00
450,864.12,1165.73,2271.14,7289.00,1006.00
452,864.44,1170.00,1048.51,5824.00,998.00
454,864.76,1174.27,360.86,4744.50,1001.00
456,865.07,1178.53,35.81,4183.00,986.00
458,865.39,1182.80,0.00,3910.50,1016.00
460,865.71,1187.06,0.00,3775.50,987.50
462,866.03,1191.31,0.00,3811.50,1000.50
464,866.35,1195.57,0.00,3917.00,990.50
466,866.67,1199.82,11.38,4193.00,1019.00
468,866.99,1204.06,214.00,4502.50,1000.00
470,867.31,1208.31,385.18,4701.00,1020.00
472,867.63,1212.55,154.08,4618.50,1003.50
474,867.95,1216.79,1.51,4404.50,981.00
476,868.27,1221.02,0.00,4317.50,998.00
478,868.58,1225.25,0.00,4425.50,984.50
480,868.90,1229.48,15.92,4851.00,1008.50
482,869.22,1233.71,350.71,5356.00,1017.00
484,869.54,1237.93,650.46,5696.50,1040.50
486,869.86,1242.15,274.95,5511.00,999.00
488,870.18,1246.36,21.03,5187.00,985.50
490,870.50,1250.58,31.07,5343.50,1007.50
492,870.82,1254.79,178.14,5748.50,1046.50
494,871.14,1258.99,560.75,6341.50,1013.00
496,871.46,1263.20,1103.81,7191.00,1018.00
498,871.78,1267.40,1408.08,7833.50,997.00
500,872.10,1271.59,1815.06,8669.50,999.00
502,872.41,1275.79,2536.38,9769.50,988.00
504,872.73,1279.98,3228.58,10880.00,1016.00
506,873.05,1284.17,3604.17,11878.00,1010.50
508,873.37,1288.35,4133.92,13362.00,966.00
510,873.69,1292.53,6321.78,17056.00,994.00
512,874.01,1296.71,10375.67,22359.50,982.00
514,874.33,1300.88,13473.43,26094.50,976.50
516,874.65,1305.06,12610.35,25505.00,1015.50
518,874.97,1309.22,9846.92,22087.00,997.00
520,875.29,1313.39,7237.74,18177.00,1009.50
522,875.60,1317.55,4901.59,14578.50,1004.50
524,875.92,1321.71,2969.52,11664.50,997.00
526,876.24,1325.87,1866.43,9887.50,1021.00
528,876.56,1330.02,1342.64,8947.50,990.50
530,876.88,1334.17,1185.70,8712.50,1021.00
532,877.20,1338.32,1275.80,8739.50,978.00
534,877.52,1342.46,1379.22,8835.50,981.00
536,877.84,1346.60,1067.32,8556.00,1006.50
538,878.16,1350.73,754.56,8235.00,997.00
540,878.47,1354.87,588.40,8048.00,994.50
542,878.79,1359.00,653.69,8165.50,1002.50
544,879.11,1363.13,828.33,8366.00,1000.50
546,879.43,1367.25,809.18,8394.50,987.00
548,879.75,1371.37,479.81,8123.00,991.50
550,880.07,1375.49,352.21,7948.50,988.50
552,880.39,1379.60,415.43,7996.50,1007.50
554,880.71,1383.71,238.50,7882.00,999.00
556,881.03,1387.82,34.49,7654.00,984.50
558,881.34,1391.93,6.31,7577.50,963.00
560,881.66,1396.03,10.61,7637.00,985.50
562,881.98,1400.13,94.57,7867.50,1006.50
564,882.30,1404.22,388.64,8262.50,1007.50
566,882.62,1408.31,725.81,8732.50,990.50
568,882.94,1412.40,1217.05,9541.00,995.50
570,883.26,1416.49,1860.08,10633.50,989.50
572,883.57,1420.57,2903.50,12539.50,1013.00
574,883.89,1424.65,4760.51,15817.50,975.50
576,884.21,1428.73,8417.79,21590.50,1015.00
578,884.53,1432.80,14474.92,29651.50,1024.50
580,884.85,1436.87,20023.52,36908.00,995.00
582,885.17,1440.93,22006.14,40618.50,975.50
584,885.49,1445.00,22939.56,42692.50,991.00
586,885.80,1449.06,24048.62,44143.00,974.00
588,886.12,1453.11,24563.12,44365.00,1031.50
590,886.44,1457.17,24125.41,42964.50,1003.00
592,886.76,1461.22,20492.28,38032.00,1003.00
594,887.08,1465.26,15581.57,31463.00,1017.00
596,887.40,1469.31,11738.86,25609.50,985.00
598,887.71,1473.35,8780.40,20915.50,991.00
600,888.03,1477.38,6318.28,17161.50,1005.00
602,888.35,1481.42,4512.45,14335.50,1011.00
604,888.67,1485.45,3467.58,12551.50,999.00
606,888.99,1489.48,2622.59,11136.50,983.00
608,889.31,1493.50,2049.54,10197.00,1005.00
610,889.62,1497.52,1465.55,9284.00,1010.50
612,889.94,1501.54,1067.27,8630.50,967.00
614,890.26,1505.56,671.72,8018.50,990.00
616,890.58,1509.57,475.84,7681.50,991.50
618,890.90,1513.57,234.81,7315.00,991.00
620,891.21,1517.58,125.44,7104.50,1001.50
622,891.53,1521.58,97.91,6946.00,995.00
624,891.85,1525.58,89.58,6797.00,989.50
626,892.17,1529.57,43.56,6631.50,997.50
628,892.49,1533.57,7.84,6456.00,1001.00
630,892.80,1537.56,20.29,6323.00,985.00
632,893.12,1541.54,79.56,6210.00,973.50
634,893.44,1545.52,12.17,6045.00,1010.50
636,893.76,1549.50,1.24,5868.50,976.00
638,894.07,1553.48,0.00,5711.00,1003.00
640,894.39,1557.45,0.00,5600.50,986.50
642,894.71,1561.42,0.00,5465.00,1010.50
644,895.03,1565.39,0.00,5301.00,971.50
646,895.34,1569.35,0.00,5252.50,1010.50
648,895.66,1573.31,0.00,5146.00,981.00
650,895.98,1577.26,0.00,5044.50,986.50
652,896.30,1581.22,0.00,5020.00,981.00
654,896.61,1585.17,0.00,4955.50,988.50
656,896.93,1589.11,0.00,4885.50,1004.00
658,897.25,1593.06,0.00,4782.50,986.50
660,897.57,1597.00,0.00,4765.50,1000.00
662,897.88,1600.93,0.00,4687.00,1000.00
664,898.20,1604.87,0.00,4665.00,991.00
666,898.52,1608.80,11.12,4653.50,981.00
668,898.84,1612.72,21.80,4620.50,974.00
670,899.15,1616.65,10.10,4602.50,1004.00
672,899.47,1620.57,9.08,4527.50,969.00
674,899.79,1624.49,21.27,4525.00,992.00
676,900.10,1628.40,36.28,4494.00,981.00
678,900.42,1632.31,17.28,4460.00,1009.50
680,900.74,1636.22,46.94,4431.00,968.50
682,901.05,1640.12,47.85,4449.50,1021.50
684,901.37,1644.02,68.38,4395.50,994.00
686,901.69,1647.92,74.75,4383.00,1006.00
688,902.00,1651.82,101.12,4375.00,987.00
690,902.32,1655.71,122.21,4361.00,986.50
692,902.64,1659.60,172.27,4369.50,975.50
694,902.95,1663.48,228.57,4425.50,999.00
696,903.27,1667.36,245.69,4401.00,988.50
698,903.59,1671.24,190.95,4346.00,1018.50
700,903.90,1675.11,243.60,4354.00,997.00
702,904.22,1678.99,287.95,4317.50,967.00
704,904.54,1682.85,323.62,4410.50,1042.00
706,904.85,1686.72,259.02,4240.00,973.50
708,905.17,1690.58,304.30,4264.50,990.50
710,905.49,1694.44,315.20,4221.50,976.50
712,905.80,1698.29,271.53,4156.00,989.50
714,906.12,1702.15,292.15,4138.00,997.00
716,906.43,1706.00,287.08,4091.50,1004.00
718,906.75,1709.84,204.23,3970.00,1013.50
720,907.07,1713.68,174.24,3858.00,981.00
722,907.38,1717.52,144.41,3797.50,999.00
724,907.70,1721.36,111.73,3720.50,986.50
726,908.01,1725.19,85.78,3648.50,990.50
728,908.33,1729.02,97.72,3624.00,999.00
730,908.65,1732.85,66.18,3544.50,993.00
732,908.96,1736.67,64.34,3517.50,1005.50
734,909.28,1740.49,76.50,3476.50,984.00
736,909.59,1744.30,49.94,3423.50,997.00
738,909.91,1748.12,74.16,3392.00,981.00
740,910.22,1751.93,26.39,3319.50,999.00
742,910.54,1755.73,27.19,3332.00,1046.50
744,910.85,1759.54,25.58,3263.00,1006.50
746,911.17,1763.34,0.00,3150.00,983.50
748,911.49,1767.13,0.00,3134.00,1000.00
750,911.80,1770.93,0.00,3089.00,980.00
752,912.12,1774.72,0.00,3084.00,1005.50
754,912.43,1778.50,0.00,3033.00,970.50
756,912.75,1782.29,0.92,3011.50,967.00
758,913.06,1786.07,7.06,3002.00,975.50
760,913.38,1789.84,0.00,2988.00,994.00
762,913.69,1793.62,11.12,2988.50,1003.50
764,914.01,1797.39,17.07,2961.00,991.50
766,914.32,1801.15,27.05,2928.00,972.50
768,914.64,1804.92,0.00,2880.50,978.50
770,914.95,1808.68,3.71,2892.00,999.00
772,915.26,1812.44,1.05,2872.50,1005.50
774,915.58,1816.19,6.12,2822.50,968.50
776,915.89,1819.94,32.84,2842.50,991.00
778,916.21,1823.69,34.40,2841.00,998.00
780,916.52,1827.43,31.80,2841.50,1014.00
782,916.84,1831.17,27.96,2777.00,977.50
784,917.15,1834.91,56.54,2783.00,970.50
786,917.47,1838.64,51.53,2786.50,1003.00
788,917.78,1842.38,84.95,2794.00,986.50
790,918.09,1846.10,84.27,2762.50,972.50
792,918.41,1849.83,102.06,2779.50,993.00
794,918.72,1853.55,101.66,2725.50,957.00
796,919.04,1857.27,108.14,2738.00,985.00
798,919.35,1860.98,107.97,2719.00,978.00
800,919.66,1864.69,91.18,2705.50,991.50
802,919.98,1868.40,126.06,2712.50,985.50
804,920.29,1872.11,148.47,2703.00,990.00
806,920.60,1875.81,138.76,2670.50,975.00
808,920.92,1879.51,78.89,2603.50,986.00
810,921.23,1883.20,106.35,2621.50,996.00
812,921.55,1886.90,130.65,2599.50,974.50
814,921.86,1890.58,144.67,2632.00,1008.50
816,922.17,1894.27,84.76,2557.00,1007.50
818,922.49,1897.95,102.88,2539.50,992.50
820,922.80,1901.63,119.53,2524.50,984.50
822,923.11,1905.31,86.88,2471.00,983.00
824,923.42,1908.98,105.97,2487.50,997.00
826,923.74,1912.65,91.10,2460.00,1002.00
828,924.05,1916.31,118.56,2446.00,975.00
830,924.36,1919.98,98.54,2411.50,980.00
832,924.68,1923.64,129.69,2418.50,969.50
834,924.99,1927.29,138.46,2407.00,973.50
836,925.30,1930.94,122.77,2365.50,968.00
838,925.61,1934.59,133.95,2379.00,985.00
840,925.93,1938.24,118.72,2343.00,980.00
842,926.24,1941.88,109.35,2321.50,986.00
844,926.55,1945.52,95.28,2275.00,972.00
846,926.86,1949.16,92.77,2272.00,989.50
848,927.18,1952.79,107.93,2250.00,974.50
850,927.49,1956.42,102.18,2231.00,978.00
852,927.80,1960.05,85.61,2281.50,1060.50
854,928.11,1963.67,94.97,2187.50,980.00
856,928.42,1967.29,92.72,2186.50,997.00
858,928.74,1970.91,74.55,2145.50,989.50
860,929.05,1974.52,65.67,2104.50,976.00
862,929.36,1978.13,58.32,2073.50,971.00
864,929.67,1981.74,49.79,2059.00,984.00
866,929.98,1985.35,43.11,2040.50,990.50
868,930.29,1988.95,21.67,2012.00,999.00
870,930.61,1992.54,5.78,1953.00,975.50
872,930.92,1996.14,16.96,1953.00,978.00
874,931.23,1999.73,7.78,1942.50,996.00
876,931.54,2003.32,6.93,1925.50,992.00
878,931.85,2006.90,0.00,1890.00,984.00
880,932.16,2010.48,0.00,1862.00,976.00
882,932.47,2014.06,2.66,1865.50,986.50
884,932.78,2017.63,30.92,1882.00,991.00
886,933.09,2021.21,10.17,1852.50,993.50
888,933.41,2024.77,46.62,1866.50,986.50
890,933.72,2028.34,41.15,1876.00,1016.00
892,934.03,2031.90,36.35,1836.00,993.50
894,934.34,2035.46,39.46,1823.00,997.00
896,934.65,2039.01,34.23,1792.00,983.00
898,934.96,2042.57,23.62,1785.00,1000.00
900,935.27,2046.11,30.59,1792.50,1021.50
902,935.58,2049.66,8.38,1712.00,967.00
904,935.89,2053.20,0.00,1691.00,987.00
906,936.20,2056.74,0.00,1675.00,986.00
908,936.51,2060.28,0.00,1674.00,986.50
910,936.82,2063.81,1.92,1677.00,995.00
912,937.13,2067.34,1.66,1664.50,992.50
914,937.44,2070.86,3.99,1650.00,986.50
916,937.75,2074.39,0.00,1614.00,970.00
918,938.06,2077.91,6.74,1624.50,980.00
920,938.37,2081.42,0.00,1605.50,989.00
922,938.68,2084.94,0.00,1595.00,982.00
924,938.99,2088.45,13.49,1600.50,977.00
926,939.30,2091.95,10.74,1608.50,998.00
928,939.60,2095.46,0.00,1575.00,988.50
930,939.91,2098.96,15.34,1605.00,1004.00
932,940.22,2102.45,0.00,1573.50,998.50
934,940.53,2105.95,2.45,1557.00,970.50
936,940.84,2109.44,13.74,1570.50,982.00
938,941.15,2112.92,47.49,1585.00,985.50
940,941.46,2116.41,0.96,1543.00,979.50
942,941.77,2119.89,0.00,1548.50,990.50
944,942.07,2123.37,0.00,1534.50,986.50
946,942.38,2126.84,2.41,1564.00,1007.50
948,942.69,2130.31,0.46,1551.50,998.00
950,943.00,2133.78,12.51,1552.50,980.00
952,943.31,2137.24,14.00,1555.50,996.00
954,943.62,2140.70,22.06,1555.50,990.50
956,943.92,2144.16,39.58,1564.00,982.00
958,944.23,2147.62,31.42,1578.00,1000.00
960,944.54,2151.07,40.28,1591.50,1005.00
962,944.85,2154.52,88.48,1632.00,1013.50
964,945.16,2157.96,86.19,1616.50,1002.00
966,945.46,2161.40,83.22,1620.50,1001.00
968,945.77,2164.84,99.17,1600.00,967.00
970,946.08,2168.28,125.76,1654.00,997.00
972,946.39,2171.71,170.24,1679.00,980.00
974,946.69,2175.14,246.81,1733.50,975.50
976,947.00,2178.57,287.35,1779.00,991.50
978,947.31,2181.99,324.90,1797.50,971.00
980,947.61,2185.41,327.87,1820.00,996.00
982,947.92,2188.82,415.65,1881.50,995.00
984,948.23,2192.24,351.71,1814.50,981.00
986,948.53,2195.65,359.59,1838.00,989.50
988,948.84,2199.05,304.31,1756.50,955.50
990,949.15,2202.46,300.00,1780.50,990.50
992,949.45,2205.86,279.63,1745.00,981.00
994,949.76,2209.25,256.89,1717.50,971.50
996,950.07,2212.65,256.09,1727.00,984.00
998,950.37,2216.04,243.35,1685.50,961.00
1000,950.68,2219.43,241.13,1699.50,978.00
1002,950.98,2222.81,227.78,1703.50,995.50
1004,951.29,2226.19,241.96,1693.00,977.00
1006,951.60,2229.57,233.02,1668.00,967.00
1008,951.90,2232.94,242.61,1672.00,967.00
1010,952.21,2236.32,197.36,1648.50,983.00
1012,952.51,2239.68,187.72,1640.00,987.50
1014,952.82,2243.05,145.58,1585.00,964.00
1016,953.12,2246.41,106.87,1595.00,1007.50
1018,953.43,2249.77,96.57,1608.50,1035.00
1020,953.73,2253.12,65.96,1557.00,1007.00
1022,954.04,2256.48,55.88,1504.50,966.00
1024,954.34,2259.83,75.84,1540.00,993.00
1026,954.65,2263.17,88.53,1532.00,972.50
1028,954.95,2266.51,81.21,1544.50,992.00
1030,955.26,2269.85,111.28,1577.50,1010.00
1032,955.56,2273.19,120.85,1574.00,1001.00
1034,955.87,2276.52,142.34,1590.50,998.00
1036,956.17,2279.85,127.08,1590.50,1014.00
1038,956.48,2283.18,144.89,1557.50,969.00
1040,956.78,2286.50,124.34,1537.50,968.00
1042,957.08,2289.82,129.47,1537.00,968.00
1044,957.39,2293.14,120.45,1548.50,984.00
1046,957.69,2296.45,92.27,1520.00,974.50
1048,957.99,2299.76,106.80,1558.50,1005.50
1050,958.30,2303.07,126.35,1555.50,999.00
1052,958.60,2306.38,117.63,1533.00,987.00
1054,958.91,2309.68,114.11,1533.00,987.50
1056,959.21,2312.98,82.15,1496.50,976.00
1058,959.51,2316.27,69.04,1498.50,989.50
1060,959.82,2319.56,75.35,1517.50,1003.00
1062,960.12,2322.85,56.09,1477.50,986.00
1064,960.42,2326.14,99.88,1485.00,969.50
1066,960.72,2329.42,42.74,1474.50,994.00
1068,961.03,2332.70,32.74,1464.00,992.50
1070,961.33,2335.97,56.15,1465.50,986.50
1072,961.63,2339.25,32.97,1439.50,970.50
1074,961.93,2342.52,4.59,1430.00,985.00
1076,962.24,2345.78,2.88,1430.00,986.50
1078,962.54,2349.05,0.00,1404.00,980.00
1080,962.84,2352.31,1.97,1424.50,982.00
1082,963.14,2355.56,2.83,1415.50,975.00
1084,963.45,2358.82,17.10,1425.50,975.50
1086,963.75,2362.07,9.92,1437.00,993.50
1088,964.05,2365.32,26.06,1485.00,1030.00
1090,964.35,2368.56,26.09,1449.00,987.00
1092,964.65,2371.80,10.51,1439.50,989.50
1094,964.95,2375.04,27.44,1444.50,983.00
1096,965.25,2378.27,23.92,1434.00,974.50
1098,965.56,2381.51,36.29,1459.50,989.50
1100,965.86,2384.73,52.04,1470.50,990.50
1102,966.16,2387.96,54.56,1470.00,986.50
1104,966.46,2391.18,66.62,1493.50,1000.00
1106,966.76,2394.40,109.83,1491.50,974.50
1108,967.06,2397.62,97.46,1509.00,1000.00
1110,967.36,2400.83,82.97,1487.00,978.50
1112,967.66,2404.04,102.63,1536.00,1012.50
1114,967.96,2407.25,107.54,1489.50,970.00
1116,968.26,2410.45,122.00,1512.50,987.50
1118,968.56,2413.65,102.83,1490.50,973.50
1120,968.86,2416.85,85.14,1524.00,1016.00
1122,969.16,2420.04,103.80,1501.00,983.00
1124,969.46,2423.23,96.17,1497.00,982.00
1126,969.76,2426.42,52.05,1481.00,995.00
1128,970.06,2429.60,91.38,1470.00,960.00
1130,970.36,2432.79,91.34,1497.00,988.00
1132,970.66,2435.96,79.99,1488.50,983.50
1134,970.96,2439.14,73.65,1475.50,980.00
1136,971.26,2442.31,79.93,1491.00,996.00
1138,971.56,2445.48,42.67,1472.00,992.50
1140,971.86,2448.65,20.01,1446.00,973.50
1142,972.16,2451.81,0.00,1436.00,997.00
1144,972.45,2454.97,24.91,1459.50,986.00
1146,972.75,2458.13,0.00,1438.00,991.50
1148,973.05,2461.28,18.49,1468.00,986.50
1150,973.35,2464.43,105.83,1514.50,986.00
1152,973.65,2467.58,151.72,1523.00,984.50
1154,973.95,2470.72,164.94,1536.50,983.00
1156,974.24,2473.86,126.42,1519.00,985.00
1158,974.54,2477.00,95.04,1488.00,967.50
1160,974.84,2480.13,24.99,1485.00,991.00
1162,975.14,2483.27,0.00,1452.00,986.00
1164,975.43,2486.40,0.00,1425.50,972.50
1166,975.73,2489.52,23.79,1468.00,978.00
1168,976.03,2492.64,0.00,1442.50,980.00
1170,976.33,2495.76,0.00,1475.50,993.00
1172,976.62,2498.88,0.00,1455.00,975.50
1174,976.92,2501.99,0.00,1495.50,1005.50
1176,977.22,2505.10,6.11,1509.00,992.00
1178,977.51,2508.21,0.00,1514.50,994.00
1180,977.81,2511.31,46.35,1545.00,986.00
1182,978.11,2514.41,25.00,1540.00,984.00
1184,978.40,2517.51,26.34,1561.50,988.50
1186,978.70,2520.61,13.61,1569.50,993.00
1188,979.00,2523.70,32.66,1604.50,1007.50
1190,979.29,2526.79,95.65,1616.00,984.00
1192,979.59,2529.87,104.02,1631.00,993.00
1194,979.88,2532.95,77.70,1613.50,972.50
1196,980.18,2536.03,10.48,1629.00,998.00
1198,980.48,2539.11,0.00,1638.00,1019.00
1200,980.77,2542.18,0.01,1621.50,988.50
1202,981.07,2545.25,0.00,1639.00,1011.00
1204,981.36,2548.32,0.00,1615.00,987.50
1206,981.66,2551.38,0.00,1656.00,1000.00
1208,981.95,2554.44,0.00,1686.50,991.00
1210,982.25,2557.50,0.00,1734.50,1016.00
1212,982.54,2560.56,7.47,1785.00,1015.50
1214,982.84,2563.61,46.29,1831.50,1021.50
1216,983.13,2566.66,83.09,1862.50,1014.50
1218,983.43,2569.70,203.19,1938.00,1008.50
1220,983.72,2572.74,346.47,2016.00,1008.00
1222,984.01,2575.78,338.34,2035.50,1001.00
1224,984.31,2578.82,329.41,2049.50,976.00
1226,984.60,2581.85,312.53,2093.00,996.00
1228,984.90,2584.88,411.13,2144.00,975.50
1230,985.19,2587.91,570.32,2254.00,996.00
1232,985.48,2590.93,695.82,2328.50,999.00
1234,985.78,2593.96,756.58,2388.00,1014.00
1236,986.07,2596.97,835.18,2428.00,1002.00
1238,986.36,2599.99,809.47,2446.50,1016.00
1240,986.66,2603.00,723.56,2426.00,1010.00
1242,986.95,2606.01,556.88,2387.00,1019.00
1244,987.24,2609.01,376.73,2317.50,1010.50
1246,987.54,2612.02,293.51,2242.00,962.00
1248,987.83,2615.02,296.99,2295.50,1007.50
1250,988.12,2618.01,251.67,2294.50,1007.50
1252,988.41,2621.01,171.51,2283.00,1006.50
1254,988.71,2624.00,163.44,2263.50,980.00
1256,989.00,2626.99,220.63,2317.50,1005.50
1258,989.29,2629.97,185.53,2312.50,1001.00
1260,989.58,2632.95,151.93,2327.00,1006.50
1262,989.87,2635.93,55.56,2313.50,1010.50
1264,990.16,2638.91,14.45,2296.50,995.50
1266,990.46,2641.88,8.09,2336.50,1025.50
1268,990.75,2644.85,41.74,2385.50,1031.50
1270,991.04,2647.81,99.78,2391.50,998.00
1272,991.33,2650.78,251.92,2480.00,1008.50
1274,991.62,2653.74,476.10,2578.50,1009.00
1276,991.91,2656.70,740.57,2684.50,992.00
1278,992.20,2659.65,944.21,2802.00,1000.00
1280,992.49,2662.60,1261.70,2939.00,989.50
1282,992.78,2665.55,1689.02,3146.00,1040.00
1284,993.07,2668.50,2106.86,3269.50,1024.00
1286,993.36,2671.44,2197.52,3304.00,1026.00
1288,993.65,2674.38,1939.75,3239.50,1024.50
1290,993.94,2677.31,1435.65,3059.00,1007.50
1292,994.23,2680.25,1218.89,2983.50,1009.00
1294,994.52,2683.18,1146.47,2938.00,1002.00
1296,994.81,2686.10,1143.30,2929.50,1004.00
1298,995.10,2689.03,1219.59,2966.00,1007.50
1300,995.39,2691.95,1248.42,2987.50,1003.00
1302,995.68,2694.87,1436.03,3107.00,1021.50
1304,995.97,2697.78,1741.41,3262.00,1030.50
1306,996.26,2700.70,2222.57,3423.50,987.50
1308,996.55,2703.61,3030.35,3752.00,1012.50
1310,996.84,2706.51,3911.50,4060.00,1019.00
1312,997.13,2709.42,4718.72,4343.50,1015.00
1314,997.41,2712.32,5132.93,4525.50,1020.00
1316,997.70,2715.21,5332.64,4645.50,1009.50
1318,997.99,2718.11,5538.17,4783.50,1012.00
1320,998.28,2721.00,6077.06,5027.00,1007.50
1322,998.57,2723.89,6904.82,5347.50,1026.50
1324,998.86,2726.77,8248.66,5721.00,996.00
1326,999.14,2729.66,9711.66,6112.50,1004.00
1328,999.43,2732.54,10272.78,6223.50,1005.50
1330,999.72,2735.41,9455.41,5978.00,1016.00
1332,1000.01,2738.29,7947.36,5536.00,1029.50
1334,1000.29,2741.16,6310.60,4956.00,1009.50
1336,1000.58,2744.03,5023.38,4458.00,992.00
1338,1000.87,2746.89,3706.51,4008.00,1035.00
1340,1001.15,2749.75,2612.40,3572.50,1009.50
1342,1001.44,2752.61,1864.48,3279.00,1009.50
1344,1001.73,2755.47,1316.93,3042.00,996.00
1346,1002.01,2758.32,939.34,2899.50,1008.50
1348,1002.30,2761.17,591.09,2772.00,1021.50
1350,1002.59,2764.02,363.04,2704.00,1031.00
1352,1002.87,2766.86,118.77,2612.50,1006.50
1354,1003.16,2769.70,9.46,2555.50,996.00
1356,1003.44,2772.54,0.00,2501.00,988.00
1358,1003.73,2775.38,0.00,2529.00,1015.00
1360,1004.01,2778.21,0.00,2479.00,994.00
1362,1004.30,2781.04,0.00,2504.50,1005.50
1364,1004.58,2783.87,0.00,2522.50,1002.00
1366,1004.87,2786.69,0.00,2543.50,969.00
1368,1005.15,2789.51,0.00,2628.00,1022.00
1370,1005.44,2792.33,0.00,2669.00,1010.50
1372,1005.72,2795.14,0.00,2724.50,1024.50
1374,1006.01,2797.95,0.00,2832.00,1025.50
1376,1006.29,2800.76,0.00,2913.50,994.00
1378,1006.58,2803.57,0.00,3075.50,1046.50
1380,1006.86,2806.37,0.00,3183.50,998.00
1382,1007.14,2809.17,1.38,3371.50,1006.50
1384,1007.43,2811.97,69.36,3575.00,1002.00
1386,1007.71,2814.77,324.19,3756.50,991.50
1388,1008.00,2817.56,1081.38,4067.00,992.00
1390,1008.28,2820.35,2382.25,4470.50,1022.00
1392,1008.56,2823.13,3648.74,4805.50,995.00
1394,1008.85,2825.91,5258.35,5337.00,1009.50
1396,1009.13,2828.69,6957.54,5896.00,1011.50
1398,1009.41,2831.47,9272.28,6674.50,1031.50
1400,1009.69,2834.24,12292.76,7668.50,999.00
1402,1009.98,2837.02,16306.44,9146.50,1013.00
1404,1010.26,2839.78,22059.77,11291.50,1024.50
1406,1010.54,2842.55,32136.94,14587.00,998.00
1408,1010.82,2845.31,49906.35,19451.50,1023.00
1410,1011.11,2848.07,75888.31,25460.50,1027.50
1412,1011.39,2850.83,99143.45,30612.00,1033.00
1414,1011.67,2853.58,107206.39,33051.50,1021.00
1416,1011.95,2856.33,106659.66,33812.50,1010.00
1418,1012.23,2859.08,108802.82,34619.50,1010.00
1420,1012.51,2861.83,113514.41,35683.50,1004.00
1422,1012.80,2864.57,112786.06,35782.50,1052.00
1424,1013.08,2867.31,111216.42,35677.50,1037.00
1426,1013.36,2870.04,119262.70,37142.50,1026.50
1428,1013.64,2872.78,135440.21,39678.00,1021.00
1430,1013.92,2875.51,142811.29,40513.00,1052.50
1432,1014.20,2878.24,132636.65,38450.00,1021.50
1434,1014.48,2880.96,117285.91,35487.00,1012.00
1436,1014.76,2883.68,108139.84,33361.00,1009.50
1438,1015.04,2886.40,105337.80,32157.50,1006.50
1440,1015.32,2889.12,105417.73,31561.50,1028.00
1442,1015.60,2891.83,105480.39,31138.50,1011.50
1444,1015.88,2894.54,105281.94,30874.50,1025.00
1446,1016.16,2897.25,105593.94,30703.00,997.00
1448,1016.44,2899.96,106794.63,30722.50,1031.00
1450,1016.72,2902.66,108262.69,30732.50,1010.00
1452,1017.00,2905.36,107992.22,30516.00,1052.00
1454,1017.28,2908.06,106258.46,30017.50,1017.00
1456,1017.55,2910.75,104486.20,29494.50,1027.50
1458,1017.83,2913.44,104750.26,29195.50,1000.00
1460,1018.11,2916.13,105718.38,28994.00,1026.00
1462,1018.39,2918.81,105273.36,28592.50,1030.00
1464,1018.67,2921.49,101491.76,27669.50,1021.50
1466,1018.95,2924.17,97191.84,26805.00,1019.50
1468,1019.22,2926.85,93606.75,26103.00,1030.50
1470,1019.50,2929.52,93035.13,25811.50,1002.00
1472,1019.78,2932.20,97201.24,26173.50,995.00
1474,1020.06,2934.86,104001.51,26742.00,1010.00
1476,1020.33,2937.53,106880.20,26529.50,1043.50
1478,1020.61,2940.19,101219.71,25078.50,1020.00
1480,1020.89,2942.85,86253.92,22381.00,1030.50
1482,1021.17,2945.51,67895.66,19038.00,1022.00
1484,1021.44,2948.16,54659.09,16450.50,1015.00
1486,1021.72,2950.81,46718.90,14617.50,1014.50
1488,1022.00,2953.46,45486.55,14037.50,1041.50
1490,1022.27,2956.11,48324.79,14087.50,1014.50
1492,1022.55,2958.75,52772.01,14404.00,1042.00
1494,1022.82,2961.39,56303.01,14564.00,1019.00
1496,1023.10,2964.03,54037.38,13969.00,1043.00
1498,1023.38,2966.66,46665.82,12675.00,1009.50
1500,1023.65,2969.29,36601.39,10962.00,1021.00
1502,1023.93,2971.92,27617.97,9288.50,1041.00
1504,1024.20,2974.55,21119.62,7895.00,1028.50
1506,1024.48,2977.17,16708.69,6867.00,1020.00
1508,1024.75,2979.79,13148.41,6029.00,1006.50
1510,1025.03,2982.41,10039.95,5332.50,1008.50
1512,1025.30,2985.02,7828.43,4822.50,997.00
1514,1025.58,2987.63,5823.00,4406.50,1023.00
1516,1025.85,2990.24,4279.13,4070.00,1003.00
1518,1026.13,2992.85,2719.26,3799.00,1027.50
1520,1026.40,2995.45,1297.08,3498.50,1012.00
1522,1026.68,2998.05,567.41,3306.00,1011.00
1524,1026.95,3000.65,171.44,3159.50,1030.50
1526,1027.22,3003.25,15.26,2968.50,1010.50
1528,1027.50,3005.84,0.75,2837.50,1003.00
1530,1027.77,3008.43,0.00,2715.50,1018.00
1532,1028.04,3011.02,0.00,2606.50,1024.00
1534,1028.32,3013.60,0.00,2495.00,1006.00
1536,1028.59,3016.18,0.00,2415.50,1031.00
1538,1028.86,3018.76,0.00,2319.50,972.50
1540,1029.14,3021.34,0.00,2261.50,1000.00
1542,1029.41,3023.91,0.00,2192.00,995.50
1544,1029.68,3026.48,0.00,2111.50,1001.00
1546,1029.95,3029.05,0.00,2091.50,1011.50
1548,1030.22,3031.61,0.00,1996.50,995.00
1550,1030.50,3034.17,0.00,1950.00,1003.50
1552,1030.77,3036.73,0.00,1920.00,1001.50
1554,1031.04,3039.29,0.00,1903.00,1020.00
1556,1031.31,3041.84,0.00,1828.50,984.00
1558,1031.58,3044.39,0.00,1854.00,1038.00
1560,1031.85,3046.94,0.00,1806.00,1032.50
1562,1032.13,3049.49,54.09,1755.50,993.00
1564,1032.40,3052.03,0.00,1738.50,1030.50
1566,1032.67,3054.57,0.00,1691.00,1001.00
1568,1032.94,3057.11,60.17,1711.00,1029.50
1570,1033.21,3059.64,143.18,1645.50,986.50
1572,1033.48,3062.18,0.00,1634.00,1032.00
1574,1033.75,3064.70,0.00,1606.50,1014.00
1576,1034.02,3067.23,0.00,1588.50,1020.00
1578,1034.29,3069.75,0.00,1533.50,995.50
1580,1034.56,3072.28,0.00,1549.50,1022.00
1582,1034.83,3074.79,0.00,1496.50,995.50
1584,1035.10,3077.31,0.09,1511.50,1018.00
1586,1035.37,3079.82,0.00,1469.50,996.00
1588,1035.64,3082.33,39.11,1503.00,1036.00
1590,1035.91,3084.84,9.99,1473.50,1024.00
1592,1036.17,3087.34,0.00,1419.50,1001.00
1594,1036.44,3089.85,0.11,1449.00,1027.50
1596,1036.71,3092.35,36.02,1420.50,1003.00
1598,1036.98,3094.84,119.13,1397.50,984.00
1600,1037.25,3097.34,64.41,1387.00,991.00
1602,1037.52,3099.83,0.00,1390.00,1012.00
1604,1037.78,3102.32,39.16,1387.00,1011.00
1606,1038.05,3104.80,0.00,1393.00,1037.00
1608,1038.32,3107.29,13.81,1355.00,1000.50
1610,1038.59,3109.77,16.85,1356.00,1009.00
1612,1038.85,3112.24,0.00,1348.00,1013.00
1614,1039.12,3114.72,234.41,1369.00,1017.00
1616,1039.39,3117.19,22.65,1299.00,974.50
1618,1039.66,3119.66,85.55,1360.50,1027.50
1620,1039.92,3122.13,0.00,1330.00,1020.50
1622,1040.19,3124.59,0.00,1321.00,1020.00
1624,1040.45,3127.05,198.17,1317.00,993.00
1626,1040.72,3129.51,103.74,1324.00,1012.00
1628,1040.99,3131.97,2.60,1330.50,1034.00
1630,1041.25,3134.42,0.00,1322.00,1038.00
1632,1041.52,3136.87,112.64,1294.00,989.50
1634,1041.78,3139.32,0.00,1296.50,1010.50
1636,1042.05,3141.77,77.46,1374.00,1074.00
1638,1042.32,3144.21,0.00,1295.50,1010.00
1640,1042.58,3146.65,58.59,1335.00,1038.50
1642,1042.85,3149.09,89.64,1308.50,1013.50
1644,1043.11,3151.52,162.93,1307.50,1009.50
1646,1043.38,3153.96,208.39,1329.50,1029.50
1648,1043.64,3156.39,93.62,1297.00,1007.50
1650,1043.90,3158.81,3.99,1292.50,1013.50
1652,1044.17,3161.24,42.12,1313.50,1031.00
1654,1044.43,3163.66,27.91,1282.00,1003.00
1656,1044.70,3166.08,249.59,1345.50,1044.50
1658,1044.96,3168.49,212.01,1306.00,1012.00
1660,1045.22,3170.91,178.11,1301.50,1013.50
1662,1045.49,3173.32,150.99,1306.00,1023.50
1664,1045.75,3175.73,303.23,1320.00,1024.50
1666,1046.01,3178.13,350.73,1304.00,1006.50
1668,1046.28,3180.54,257.58,1325.50,1041.00
1670,1046.54,3182.94,684.90,1351.00,1028.50
1672,1046.80,3185.34,381.47,1317.00,1025.00
1674,1047.07,3187.73,595.89,1309.50,1001.00
1676,1047.33,3190.12,739.38,1326.50,1012.00
1678,1047.59,3192.51,595.61,1324.50,1023.00
1680,1047.85,3194.90,639.84,1355.50,1044.50
1682,1048.11,3197.29,421.39,1326.50,1039.00
1684,1048.38,3199.67,694.80,1325.50,1019.00
1686,1048.64,3202.05,957.90,1358.00,1037.00
1688,1048.90,3204.43,814.94,1322.50,1016.00
1690,1049.16,3206.80,845.75,1321.50,1012.00
1692,1049.42,3209.17,900.74,1342.50,1030.50
1694,1049.68,3211.54,964.94,1315.50,1004.00
1696,1049.94,3213.91,965.97,1320.00,1013.50
1698,1050.20,3216.27,893.81,1321.50,1021.00
1700,1050.46,3218.63,695.86,1336.00,1051.00
1702,1050.72,3220.99,852.13,1312.00,1015.00
1704,1050.98,3223.35,895.57,1317.00,1023.00
1706,1051.24,3225.70,1028.45,1312.00,1014.00
1708,1051.50,3228.05,952.10,1297.50,1008.50
1710,1051.76,3230.40,1142.90,1339.00,1034.00
1712,1052.02,3232.75,814.98,1305.00,1026.50
1714,1052.28,3235.09,840.05,1322.00,1044.50
1716,1052.54,3237.43,1192.47,1307.50,1006.00
1718,1052.80,3239.77,949.30,1289.50,1010.50
1720,1053.06,3242.11,1273.85,1313.50,1014.00
1722,1053.32,3244.44,1357.88,1288.50,989.00
1724,1053.58,3246.77,1384.76,1352.00,1053.00
1726,1053.84,3249.10,1084.91,1299.00,1021.00
1728,1054.10,3251.42,1143.17,1302.00,1019.00
1730,1054.35,3253.75,1135.18,1290.50,1010.50
1732,1054.61,3256.07,1330.06,1333.00,1044.00
1734,1054.87,3258.39,1435.91,1302.00,1011.50
1736,1055.13,3260.70,1384.41,1295.50,1012.00
1738,1055.38,3263.01,1274.12,1288.00,1014.50
1740,1055.64,3265.32,1357.41,1299.00,1023.00
1742,1055.90,3267.63,1637.12,1282.00,988.50
1744,1056.16,3269.94,1179.23,1309.50,1046.50
1746,1056.41,3272.24,1344.32,1318.00,1044.50
1748,1056.67,3274.54,1390.14,1285.50,1015.00
1750,1056.93,3276.84,1626.03,1303.50,1024.50
1752,1057.18,3279.13,1546.71,1279.00,1008.50
1754,1057.44,3281.42,1410.10,1269.50,1008.50
1756,1057.69,3283.71,1306.92,1260.00,1005.50
1758,1057.95,3286.00,1141.25,1294.50,1050.50
1760,1058.21,3288.28,1113.80,1255.50,1015.00
1762,1058.46,3290.57,1093.96,1272.50,1039.00
1764,1058.72,3292.85,1521.72,1279.00,1026.50
1766,1058.97,3295.12,1439.20,1247.50,1000.00
1768,1059.23,3297.40,1000.88,1245.00,1020.00
1770,1059.48,3299.67,867.89,1253.50,1038.00
1772,1059.74,3301.94,1188.25,1227.50,1000.00
1774,1059.99,3304.21,1564.69,1265.50,1025.00
1776,1060.25,3306.47,1362.30,1281.00,1052.00
1778,1060.50,3308.73,1164.41,1228.00,1007.50
1780,1060.76,3310.99,1074.31,1238.50,1023.00
1782,1061.01,3313.25,1177.55,1245.00,1025.00
1784,1061.26,3315.50,1078.76,1219.50,1008.50
1786,1061.52,3317.76,1106.61,1237.00,1029.50
1788,1061.77,3320.01,1545.06,1260.00,1034.00
1790,1062.02,3322.25,1185.23,1220.00,1014.00
1792,1062.28,3324.50,1049.29,1214.50,1016.00
1794,1062.53,3326.74,1465.31,1214.50,996.50
1796,1062.78,3328.98,1357.85,1222.00,1013.00
1798,1063.04,3331.22,1027.49,1209.50,1019.00
1800,1063.29,3333.45,1280.38,1215.50,1012.50
1802,1063.54,3335.68,874.23,1198.50,1017.00
1804,1063.79,3337.91,842.95,1222.00,1043.00
1806,1064.05,3340.14,947.41,1234.50,1052.50
1808,1064.30,3342.36,1182.46,1189.00,999.00
1810,1064.55,3344.59,1114.52,1221.00,1038.00
1812,1064.80,3346.81,1009.81,1195.50,1020.00
1814,1065.05,3349.02,1365.31,1197.50,1006.50
1816,1065.30,3351.24,959.24,1207.00,1035.00
1818,1065.55,3353.45,1146.67,1193.50,1013.00
1820,1065.81,3355.66,1183.30,1230.50,1050.00
1822,1066.06,3357.87,916.12,1190.00,1024.50
1824,1066.31,3360.07,1045.45,1164.00,995.50
1826,1066.56,3362.27,977.26,1191.00,1028.50
1828,1066.81,3364.47,1012.68,1170.50,1007.50
1830,1067.06,3366.67,674.93,1162.50,1014.50
1832,1067.31,3368.87,1089.21,1182.50,1016.00
1834,1067.56,3371.06,1030.90,1145.00,983.00
1836,1067.81,3373.25,874.40,1149.00,997.00
1838,1068.06,3375.44,1276.13,1153.50,988.50
1840,1068.31,3377.62,970.07,1153.00,1003.00
1842,1068.56,3379.81,1356.91,1144.00,978.00
1844,1068.80,3381.99,834.23,1196.50,1051.00
1846,1069.05,3384.16,646.18,1168.00,1032.00
1848,1069.30,3386.34,1229.46,1166.00,1009.00
1850,1069.55,3388.51,1072.84,1146.00,997.00
1852,1069.80,3390.68,886.63,1158.50,1017.00
1854,1070.05,3392.85,885.46,1193.00,1052.50
1856,1070.30,3395.02,841.14,1150.00,1014.00
1858,1070.54,3397.18,859.59,1129.00,995.50
1860,1070.79,3399.34,1306.29,1156.50,1008.50
1862,1071.04,3401.50,1104.90,1143.00,1001.00
1864,1071.29,3403.66,566.04,1109.00,987.50
1866,1071.53,3405.81,777.96,1146.00,1018.00
1868,1071.78,3407.96,875.08,1147.00,1018.00
1870,1072.03,3410.11,864.81,1153.50,1026.50
1872,1072.27,3412.26,1044.35,1139.00,1006.50
1874,1072.52,3414.40,1143.68,1137.00,1002.00
1876,1072.77,3416.54,720.88,1116.00,998.00
1878,1073.01,3418.68,1072.61,1151.00,1024.50
1880,1073.26,3420.82,970.95,1095.50,973.50
1882,1073.51,3422.96,1042.13,1144.50,1016.00
1884,1073.75,3425.09,450.39,1128.00,1019.00
1886,1074.00,3427.22,620.28,1107.00,993.00
1888,1074.24,3429.35,919.49,1150.00,1032.00
1890,1074.49,3431.47,678.69,1115.00,1008.50
1892,1074.73,3433.59,780.73,1100.50,990.50
1894,1074.98,3435.71,759.78,1147.00,1037.00
1896,1075.22,3437.83,687.24,1123.50,1018.00
1898,1075.47,3439.95,1226.22,1135.00,1016.00
1900,1075.71,3442.06,1125.90,1134.50,1022.50
1902,1075.96,3444.17,1437.64,1130.50,1013.00
1904,1076.20,3446.28,1080.20,1063.50,956.00
1906,1076.44,3448.38,590.66,1143.00,1047.50
1908,1076.69,3450.49,224.70,1120.00,1036.00
1910,1076.93,3452.59,374.67,1107.00,1018.00
1912,1077.17,3454.69,459.12,1098.00,1009.50
1914,1077.42,3456.79,837.21,1109.00,1014.00
1916,1077.66,3458.88,944.11,1095.50,1000.00
1918,1077.90,3460.97,768.38,1090.00,998.00
1920,1078.15,3463.06,437.90,1121.50,1039.00
1922,1078.39,3465.15,796.76,1103.00,1012.00
1924,1078.63,3467.23,882.81,1072.50,982.00
1926,1078.87,3469.32,1273.82,1123.50,1023.00
1928,1079.12,3471.40,1006.37,1097.50,1004.00
1930,1079.36,3473.47,742.09,1140.50,1056.00
1932,1079.60,3475.55,1033.50,1085.50,995.50
1934,1079.84,3477.62,560.39,1098.50,1022.00
1936,1080.08,3479.69,962.55,1080.50,995.00
1938,1080.33,3481.76,753.24,1069.50,990.50
1940,1080.57,3483.83,1018.73,1087.50,1003.00
1942,1080.81,3485.89,378.14,1088.00,1020.00
1944,1081.05,3487.95,850.28,1106.50,1027.50
1946,1081.29,3490.01,675.03,1097.50,1022.50
1948,1081.53,3492.07,0.00,1064.50,1008.50
1950,1081.77,3494.12,116.00,1062.50,1003.50
1952,1082.01,3496.18,635.32,1094.00,1020.00
1954,1082.25,3498.23,498.80,1066.00,998.00
1956,1082.49,3500.27,487.55,1082.00,1017.00
1958,1082.73,3502.32,908.84,1063.00,992.00
1960,1082.97,3504.36,1363.54,1088.50,1011.00
1962,1083.21,3506.40,1128.22,1068.50,995.00
1964,1083.45,3508.44,1304.46,1058.00,978.00
1966,1083.69,3510.48,445.13,1106.50,1045.50
1968,1083.93,3512.51,537.02,1078.50,1015.00
1970,1084.16,3514.54,0.00,1055.00,1007.50
1972,1084.40,3516.57,880.28,1071.50,1005.00
1974,1084.64,3518.60,602.35,1051.00,992.50
1976,1084.88,3520.62,906.64,1091.00,1026.50
1978,1085.12,3522.65,299.52,1090.00,1038.00
1980,1085.36,3524.67,406.88,1069.50,1016.00
1982,1085.59,3526.68,1215.54,1059.00,991.50
1984,1085.83,3528.70,890.96,1081.00,1020.50
1986,1086.07,3530.71,499.99,1053.00,999.00
1988,1086.31,3532.72,82.87,1065.50,1021.00
1990,1086.54,3534.73,476.20,1040.50,986.50
1992,1086.78,3536.74,350.08,1083.50,1034.50
1994,1087.02,3538.74,920.15,1071.00,1013.00
1996,1087.25,3540.74,707.10,1038.00,986.00
1998,1087.49,3542.74,832.50,1064.50,1011.50
2000,1087.73,3544.74,1163.40,1063.50,1004.50
2002,1087.96,3546.74,322.23,1056.00,1011.00
2004,1088.20,3548.73,612.20,1084.00,1031.50
2006,1088.43,3550.72,808.65,1065.50,1008.00
2008,1088.67,3552.71,181.09,1046.50,1005.50
2010,1088.90,3554.69,675.02,1031.00,982.00
2012,1089.14,3556.68,1139.28,1069.00,1015.00
2014,1089.38,3558.66,1468.13,1043.00,985.50
2016,1089.61,3560.64,1194.19,1044.50,990.50
2018,1089.84,3562.62,1270.82,1071.00,1014.00
2020,1090.08,3564.59,577.62,1034.50,989.50
2022,1090.31,3566.56,806.47,1040.50,991.50
2024,1090.55,3568.53,367.07,1040.00,1000.00
2026,1090.78,3570.50,598.28,1022.50,979.00
2028,1091.02,3572.47,223.59,1020.00,984.00
2030,1091.25,3574.43,979.43,1026.00,979.00
2032,1091.48,3576.39,1158.21,1005.00,956.00
2034,1091.72,3578.35,389.46,1005.50,968.00
2036,1091.95,3580.31,759.17,1036.00,991.00
2038,1092.18,3582.26,66.60,997.00,965.00
2040,1092.42,3584.22,635.38,1003.00,963.00
2042,1092.65,3586.17,1527.04,1021.00,972.50
2044,1092.88,3588.12,157.52,992.50,960.00
2046,1093.11,3590.06,0.00,988.50,966.50
2047,1093.23,3591.03,189.01,988.50,947.00