File: plugins/Raman/MatchingLibrary/785X/ibuprofen.csv
ENLIGHTEN Version,4.1.22
Measurement ID,20250220-201939-285122-WP-01977
Serial Number,WP-01977
Model,WP-785X-F13-R-ILC
Detector,S16011-1106
Label,ibuprofen
Declared Match,
Declared Score,0
Scan Averaging,2
Boxcar,0
Technique,Raman
Baseline Correction Algo,AirPLS
ROI Pixel Start,47
ROI Pixel End,2047
ROI Start Line,0
ROI Stop Line,63
CCD C4,1.38617e-12
Slit Width,25
Cropped,True
Interpolated,False
Wavenumber Correction,-0.100481
Raman Intensity Corrected,True
Deconvolved,True
Region,
High Gain Mode,False
Laser Power mW,
Electrical Dark Correction,False
Battery %,
Device ID,<DeviceID USB:0x24aa:0x1000:0:1>
FW Version,10.0.0.10
FPGA Version,035-001
BLE Version,
Prefix,enlighten
Suffix,
Preset,
Auto-Raman,True
Session Count,0
Plugin Name,
Integration Time,1000
Timestamp,2025-02-20 20:19:39.2851
Note,
Temperature,0
CCD C0,793.274
CCD C1,0.153259
CCD C2,1.40788e-05
CCD C3,-1.132e-08
CCD Offset,0
CCD Gain,1.9
CCD Offset Odd,0
CCD Gain Odd,1.9
Laser Wavelength,785.032
Laser Enable,False
Laser Power %,0
Laser Temperature,0
Pixel Count,2048

Pixel,Wavelength,Wavenumber,Processed,Raw,Dark
0,793.27,132.25,NA,1138.50,1065.50
2,793.58,137.12,NA,1185.00,1113.50
4,793.89,141.99,NA,1156.00,1094.50
6,794.19,146.86,NA,1167.00,1094.00
8,794.50,151.72,NA,1185.00,1119.50
10,794.81,156.58,NA,1197.50,1119.50
12,795.12,161.44,NA,1156.50,1079.50
14,795.42,166.30,NA,1158.50,1083.00
16,795.73,171.16,NA,1178.00,1086.50
18,796.04,176.01,NA,1215.50,1127.00
20,796.35,180.86,NA,1200.50,1129.00
22,796.65,185.71,NA,1270.00,1171.50
24,796.96,190.56,NA,1227.00,1113.00
26,797.27,195.41,NA,1264.50,1155.00
28,797.58,200.25,NA,1264.50,1140.50
30,797.88,205.09,NA,1222.00,1108.00
32,798.19,209.93,NA,1249.50,1110.00
34,798.50,214.77,NA,1268.50,1115.00
36,798.81,219.60,NA,1283.50,1108.00
38,799.12,224.43,NA,1403.50,1126.00
40,799.43,229.27,NA,1917.00,1161.50
42,799.74,234.09,NA,3917.00,1136.50
44,800.04,238.92,NA,6997.50,1200.50
46,800.35,243.75,NA,8667.50,1140.50
48,800.66,248.57,1346.58,9504.50,1168.00
50,800.97,253.39,2407.67,10424.50,1169.00
52,801.28,258.21,3179.70,11524.00,1185.00
54,801.59,263.02,4063.51,12158.00,1181.50
56,801.90,267.83,3527.93,11457.50,1161.50
58,802.21,272.65,1895.86,9621.00,1166.00
60,802.52,277.46,712.30,8114.50,1165.00
62,802.83,282.26,26.91,7138.50,1191.00
64,803.14,287.07,0.00,6683.00,1191.50
66,803.45,291.87,0.00,6336.50,1185.00
68,803.76,296.67,0.00,6469.00,1212.00
70,804.07,301.47,102.71,7045.50,1149.00
72,804.38,306.26,1280.19,8003.00,1152.00
74,804.69,311.06,1591.21,8261.50,1160.50
76,805.00,315.85,692.03,7532.50,1156.00
78,805.31,320.64,228.90,6930.50,1166.00
80,805.62,325.42,205.83,6813.50,1177.50
82,805.93,330.21,424.94,6921.50,1164.50
84,806.24,334.99,315.47,6752.50,1121.50
86,806.55,339.77,115.90,6592.00,1161.50
88,806.86,344.55,93.19,6584.50,1170.50
90,807.17,349.32,359.57,6983.00,1129.00
92,807.48,354.10,1171.79,7942.50,1148.00
94,807.80,358.87,2068.48,8845.50,1202.00
96,808.11,363.63,1948.66,8685.00,1173.50
98,808.42,368.40,875.49,7595.50,1139.50
100,808.73,373.16,238.82,6687.00,1126.00
102,809.04,377.93,225.41,6553.00,1132.00
104,809.35,382.68,580.51,6813.00,1131.00
106,809.66,387.44,479.00,6685.00,1147.00
108,809.98,392.19,218.73,6399.00,1112.00
110,810.29,396.95,48.73,6182.00,1161.50
112,810.60,401.70,86.19,6202.00,1140.00
114,810.91,406.44,359.16,6661.50,1153.00
116,811.22,411.19,1131.47,7829.50,1179.00
118,811.54,415.93,2877.83,9850.50,1162.00
120,811.85,420.67,4171.32,11119.50,1126.00
122,812.16,425.41,3219.96,10369.50,1134.00
124,812.47,430.14,2406.79,9316.00,1156.00
126,812.79,434.87,2056.70,8492.50,1117.50
128,813.10,439.60,1337.84,7452.50,1096.50
130,813.41,444.33,700.81,6587.00,1137.50
132,813.72,449.06,366.59,5982.00,1115.50
134,814.04,453.78,263.03,5737.50,1142.50
136,814.35,458.50,241.45,5581.00,1111.00
138,814.66,463.22,220.47,5467.00,1091.00
140,814.98,467.93,253.99,5477.50,1115.50
142,815.29,472.65,307.04,5496.50,1121.50
144,815.60,477.36,347.74,5520.00,1138.50
146,815.92,482.06,446.68,5605.50,1091.00
148,816.23,486.77,701.07,6036.00,1157.50
150,816.54,491.47,1215.61,6671.50,1182.00
152,816.86,496.17,1792.45,7158.50,1107.00
154,817.17,500.87,1649.58,7029.50,1137.50
156,817.48,505.57,1009.94,6295.50,1122.50
158,817.80,510.26,1041.83,6192.00,1123.50
160,818.11,514.95,1389.77,6311.00,1132.00
162,818.42,519.64,921.13,5716.50,1153.00
164,818.74,524.32,266.56,4831.00,1132.50
166,819.05,529.00,13.65,4369.50,1154.00
168,819.37,533.68,0.00,4108.50,1136.50
170,819.68,538.36,0.00,3994.00,1150.00
172,819.99,543.04,0.00,3967.00,1161.50
174,820.31,547.71,0.00,3933.00,1122.50
176,820.62,552.38,0.00,3919.00,1107.00
178,820.94,557.05,0.00,3899.00,1122.50
180,821.25,561.71,0.00,3835.50,1080.50
182,821.57,566.37,0.00,3878.00,1108.00
184,821.88,571.03,2.52,3946.50,1111.00
186,822.20,575.69,144.24,4302.50,1130.00
188,822.51,580.34,701.12,5018.00,1124.00
190,822.83,584.99,1316.88,5695.00,1133.50
192,823.14,589.64,1186.73,5562.00,1130.00
194,823.46,594.29,540.63,4803.50,1134.50
196,823.77,598.93,123.25,4225.50,1127.00
198,824.09,603.57,0.98,3860.00,1094.00
200,824.40,608.21,0.00,3784.00,1120.50
202,824.72,612.85,0.00,3817.50,1135.50
204,825.03,617.48,0.26,3882.00,1132.00
206,825.35,622.11,82.54,4399.00,1164.00
208,825.66,626.74,859.36,6310.00,1139.50
210,825.98,631.36,4587.00,11166.00,1122.50
212,826.29,635.99,8088.23,14114.50,1125.00
214,826.61,640.61,3579.86,10246.00,1146.50
216,826.92,645.22,755.79,5986.00,1103.50
218,827.24,649.84,342.78,4737.00,1090.00
220,827.56,654.45,446.95,4779.50,1149.00
222,827.87,659.06,820.81,5297.00,1120.50
224,828.19,663.67,1316.68,6010.00,1139.50
226,828.50,668.27,1702.08,6514.00,1213.50
228,828.82,672.87,1368.39,6046.50,1146.00
230,829.13,677.47,676.52,5114.00,1108.00
232,829.45,682.06,236.58,4453.50,1147.00
234,829.77,686.66,60.08,4305.00,1328.50
236,830.08,691.25,4.48,3969.00,1128.00
238,830.40,695.83,35.69,4069.50,1114.50
240,830.72,700.42,205.86,4351.00,1120.50
242,831.03,705.00,559.71,4686.50,1066.50
244,831.35,709.58,713.44,4839.50,1117.00
246,831.66,714.15,133.70,4300.50,1063.00
248,831.98,718.73,0.07,3932.00,1119.00
250,832.30,723.30,0.00,3774.50,1105.00
252,832.61,727.87,0.00,3871.50,1157.50
254,832.93,732.43,0.46,3963.00,1050.50
256,833.25,736.99,101.41,4504.50,1139.50
258,833.56,741.55,699.18,5797.50,1112.00
260,833.88,746.11,2457.81,8775.00,1120.50
262,834.20,750.66,6052.75,12770.50,1118.50
264,834.51,755.22,5755.86,12572.00,1135.50
266,834.83,759.76,2273.96,8763.50,1126.50
268,835.15,764.31,931.99,6330.00,1138.50
270,835.47,768.85,807.29,5755.50,1095.00
272,835.78,773.39,745.58,5967.50,1109.00
274,836.10,777.93,1340.95,7841.00,1099.50
276,836.42,782.46,5381.16,13930.00,1110.00
278,836.73,787.00,10981.80,19155.50,1098.00
280,837.05,791.52,6697.09,15534.50,1105.00
282,837.37,796.05,2486.04,9944.50,1148.00
284,837.69,800.57,1772.26,8037.50,1101.50
286,838.00,805.09,1937.24,7965.50,1096.50
288,838.32,809.61,2296.11,8835.00,1117.50
290,838.64,814.13,3546.81,11261.00,1140.50
292,838.95,818.64,6392.95,15524.00,1112.00
294,839.27,823.15,9390.30,19696.50,1111.00
296,839.59,827.65,10059.44,21476.50,1116.00
298,839.91,832.15,10328.64,22412.50,1101.50
300,840.22,836.65,11166.00,23203.00,1183.50
302,840.54,841.15,10784.98,21973.00,1101.50
304,840.86,845.65,7722.41,17837.50,1150.00
306,841.18,850.14,4341.69,12830.00,1134.50
308,841.50,854.63,2518.69,9576.00,1224.00
310,841.81,859.11,1403.19,7420.50,1110.00
312,842.13,863.60,476.29,6008.00,1116.50
314,842.45,868.07,163.81,5402.50,1095.00
316,842.77,872.55,344.80,5782.00,1144.00
318,843.08,877.03,1138.16,6890.00,1166.00
320,843.40,881.50,1994.75,7921.50,1071.50
322,843.72,885.97,2072.90,8287.00,1141.50
324,844.04,890.43,2217.18,8293.00,1088.50
326,844.36,894.89,1745.37,7462.00,1092.00
328,844.67,899.35,682.17,6143.50,1130.00
330,844.99,903.81,38.19,5069.00,1079.00
332,845.31,908.26,0.00,4614.50,1123.00
334,845.63,912.71,0.00,4561.50,1132.00
336,845.95,917.16,35.55,4999.00,1134.00
338,846.27,921.61,733.33,6088.00,1663.50
340,846.58,926.05,235.59,5206.00,1124.00
342,846.90,930.49,22.43,4885.00,1119.50
344,847.22,934.92,109.47,5341.00,1117.00
346,847.54,939.36,1168.96,7204.00,1073.00
348,847.86,943.79,3229.08,9698.50,1088.00
350,848.18,948.21,3647.50,10844.50,1093.00
352,848.49,952.64,4377.77,11792.50,1108.00
354,848.81,957.06,4594.66,11528.00,1064.00
356,849.13,961.48,1799.34,8475.00,1154.50
358,849.45,965.89,476.80,6062.00,1146.00
360,849.77,970.31,461.15,5530.00,1102.50
362,850.09,974.71,115.86,5136.50,1116.50
364,850.40,979.12,0.00,4778.50,1136.50
366,850.72,983.52,0.00,4790.50,1168.00
368,851.04,987.92,24.74,5101.50,1081.50
370,851.36,992.32,465.14,6355.50,1079.00
372,851.68,996.72,2248.89,9707.00,1121.50
374,852.00,1001.11,7023.33,14901.50,1089.00
376,852.32,1005.50,7264.14,15109.00,1069.50
378,852.63,1009.88,2154.75,9873.00,1161.50
380,852.95,1014.26,422.86,6387.50,1125.50
382,853.27,1018.64,207.82,5479.50,1149.00
384,853.59,1023.02,117.20,5215.50,1097.00
386,853.91,1027.39,0.91,5001.00,1080.00
388,854.23,1031.76,0.00,4934.00,1096.00
390,854.55,1036.13,0.00,4938.50,1097.00
392,854.87,1040.49,0.00,4978.50,1097.50
394,855.18,1044.86,0.00,5124.50,1121.50
396,855.50,1049.21,1.40,5411.00,1112.00
398,855.82,1053.57,201.31,6028.00,1140.00
400,856.14,1057.92,862.20,6702.00,1107.00
402,856.46,1062.27,715.19,6922.50,1115.50
404,856.78,1066.62,717.35,7192.00,1077.50
406,857.10,1070.96,1697.37,8309.00,1080.50
408,857.42,1075.30,1634.11,8343.00,1131.00
410,857.74,1079.64,561.42,7293.50,1110.00
412,858.06,1083.97,351.00,7055.00,1092.00
414,858.37,1088.30,772.75,7780.00,1082.50
416,858.69,1092.63,1876.15,9051.00,1082.50
418,859.01,1096.95,1981.17,9311.50,1075.00
420,859.33,1101.27,975.24,8548.00,1099.50
422,859.65,1105.59,854.88,8745.00,1101.00
424,859.97,1109.91,2037.46,10858.50,1085.50
426,860.29,1114.22,4954.14,14485.50,1095.50
428,860.61,1118.53,6177.80,15824.00,1085.50
430,860.93,1122.84,4192.34,13776.50,1096.50
432,861.25,1127.14,1951.64,10843.50,1140.50
434,861.56,1131.44,410.27,8511.00,1091.00
436,861.88,1135.74,7.18,7563.00,1099.00
438,862.20,1140.03,0.00,7273.00,1104.50
440,862.52,1144.32,0.00,7380.00,1106.50
442,862.84,1148.61,0.00,7565.00,1131.50
444,863.16,1152.89,0.00,7775.50,1100.50
446,863.48,1157.17,4.23,8293.00,1099.50
448,863.80,1161.45,318.42,9282.00,1109.50
450,864.12,1165.73,1506.92,10915.50,1118.50
452,864.44,1170.00,2193.72,12509.00,1099.00
454,864.76,1174.27,2335.67,14657.50,1123.50
456,865.07,1178.53,6118.37,22565.50,1086.50
458,865.39,1182.80,18554.25,37070.00,1133.00
460,865.71,1187.06,22346.94,40860.50,1111.00
462,866.03,1191.31,13051.76,32104.00,1117.50
464,866.35,1195.57,6538.74,23620.00,1100.50
466,866.67,1199.82,4808.79,20194.50,1136.50
468,866.99,1204.06,8044.86,22799.00,1118.50
470,867.31,1208.31,8872.94,23187.00,1136.00
472,867.63,1212.55,3630.46,18021.50,1119.00
474,867.95,1216.79,1988.52,15231.00,1068.50
476,868.27,1221.02,2825.04,15291.50,1106.50
478,868.58,1225.25,1800.46,14239.50,1078.50
480,868.90,1229.48,101.91,12510.00,1116.00
482,869.22,1233.71,0.10,11871.00,1130.00
484,869.54,1237.93,0.15,12075.50,1162.50
486,869.86,1242.15,143.11,12917.50,1105.50
488,870.18,1246.36,1246.12,14358.50,1074.00
490,870.50,1250.58,2303.30,15719.50,1118.50
492,870.82,1254.79,2298.54,16080.00,1173.50
494,871.14,1258.99,1427.70,15258.50,1117.50
496,871.46,1263.20,969.05,14796.00,1136.00
498,871.78,1267.40,931.69,14820.00,1097.00
500,872.10,1271.59,1234.25,15549.50,1092.00
502,872.41,1275.79,2053.76,17147.00,1083.50
504,872.73,1279.98,3852.44,19767.00,1107.50
506,873.05,1284.17,5588.61,22118.50,1131.00
508,873.37,1288.35,5374.62,22352.50,1040.00
510,873.69,1292.53,5474.77,22626.00,1093.50
512,874.01,1296.71,5000.90,22100.50,1087.50
514,874.33,1300.88,3734.34,20758.00,1063.50
516,874.65,1305.06,3839.51,20847.00,1108.00
518,874.97,1309.22,4355.60,21323.00,1086.50
520,875.29,1313.39,3850.65,21113.00,1124.50
522,875.60,1317.55,3630.97,21304.00,1121.50
524,875.92,1321.71,4710.33,22763.50,1105.50
526,876.24,1325.87,6198.83,24509.00,1140.50
528,876.56,1330.02,6051.50,24779.50,1101.50
530,876.88,1334.17,5152.48,24375.50,1143.50
532,877.20,1338.32,5709.19,25209.00,1078.00
534,877.52,1342.46,7569.55,27122.50,1078.00
536,877.84,1346.60,7672.60,27244.00,1120.50
538,878.16,1350.73,5723.84,25307.50,1075.00
540,878.47,1354.87,4270.71,23630.00,1094.00
542,878.79,1359.00,4135.37,23338.00,1103.50
544,879.11,1363.13,4996.45,24124.00,1112.00
546,879.43,1367.25,5110.55,24149.50,1087.50
548,879.75,1371.37,3948.11,23047.00,1082.00
550,880.07,1375.49,3142.49,22123.50,1088.50
552,880.39,1379.60,2954.06,21766.00,1095.00
554,880.71,1383.71,2844.34,21610.00,1096.00
556,881.03,1387.82,2739.57,21597.00,1082.50
558,881.34,1391.93,2550.63,21450.00,1059.50
560,881.66,1396.03,2544.09,21594.00,1088.50
562,881.98,1400.13,2630.04,21939.00,1116.50
564,882.30,1404.22,2911.58,22562.50,1113.00
566,882.62,1408.31,3417.49,23439.50,1081.00
568,882.94,1412.40,4239.16,24686.50,1119.50
570,883.26,1416.49,5104.73,25739.50,1095.50
572,883.57,1420.57,5112.71,25839.50,1137.00
574,883.89,1424.65,3932.51,24610.00,1087.50
576,884.21,1428.73,2828.68,23491.00,1137.50
578,884.53,1432.80,2731.51,23437.50,1139.50
580,884.85,1436.87,3439.06,24514.00,1085.50
582,885.17,1440.93,4249.65,26160.00,1072.00
584,885.49,1445.00,6500.63,29232.00,1079.50
586,885.80,1449.06,9871.46,32703.00,1078.00
588,886.12,1453.11,8379.15,31944.50,1148.00
590,886.44,1457.17,6134.00,29701.50,1126.00
592,886.76,1461.22,6932.47,29777.50,1105.50
594,887.08,1465.26,5993.87,28482.50,1137.00
596,887.40,1469.31,3177.28,25476.50,1079.00
598,887.71,1473.35,2753.48,24593.50,1080.00
600,888.03,1477.38,3388.72,24755.00,1102.50
602,888.35,1481.42,2193.00,23589.50,1128.00
604,888.67,1485.45,1049.32,22291.00,1118.50
606,888.99,1489.48,818.95,21858.00,1078.00
608,889.31,1493.50,719.38,21753.00,1125.00
610,889.62,1497.52,544.94,21572.50,1110.00
612,889.94,1501.54,570.47,21628.50,1071.00
614,890.26,1505.56,453.11,21500.50,1101.00
616,890.58,1509.57,550.04,21529.50,1093.00
618,890.90,1513.57,499.79,21447.00,1085.50
620,891.21,1517.58,522.94,21487.50,1109.00
622,891.53,1521.58,466.94,21372.00,1103.00
624,891.85,1525.58,577.24,21460.50,1099.50
626,892.17,1529.57,634.02,21499.00,1113.00
628,892.49,1533.57,555.93,21439.50,1121.50
630,892.80,1537.56,553.69,21331.50,1083.50
632,893.12,1541.54,650.13,21337.00,1082.50
634,893.44,1545.52,512.86,21132.50,1121.50
636,893.76,1549.50,249.32,20850.00,1068.00
638,894.07,1553.48,18.85,20499.50,1124.50
640,894.39,1557.45,5.83,20359.00,1086.50
642,894.71,1561.42,28.55,20422.50,1115.00
644,895.03,1565.39,148.51,20674.50,1063.50
646,895.34,1569.35,925.54,21823.00,1123.50
648,895.66,1573.31,2664.20,22982.00,1082.50
650,895.98,1577.26,2109.00,22659.50,1084.50
652,896.30,1581.22,316.16,20809.50,1070.00
654,896.61,1585.17,59.41,20123.00,1074.00
656,896.93,1589.11,32.89,19925.50,1114.00
658,897.25,1593.06,208.57,20242.50,1082.50
660,897.57,1597.00,884.63,21479.00,1106.50
662,897.88,1600.93,2488.10,24451.00,1108.00
664,898.20,1604.87,6616.43,30715.00,1112.00
666,898.52,1608.80,16277.99,40171.50,1089.00
668,898.84,1612.72,21276.40,43732.50,1068.50
670,899.15,1616.65,11624.05,35926.50,1117.00
672,899.47,1620.57,4175.17,26981.00,1074.00
674,899.79,1624.49,1949.08,22582.50,1097.00
676,900.10,1628.40,1247.79,20740.50,1080.50
678,900.42,1632.31,716.52,19780.50,1113.00
680,900.74,1636.22,449.51,19156.00,1045.50
682,901.05,1640.12,382.69,19002.00,1153.00
684,901.37,1644.02,278.60,18712.50,1088.00
686,901.69,1647.92,201.75,18512.00,1118.00
688,902.00,1651.82,239.08,18346.00,1087.00
690,902.32,1655.71,346.14,18290.00,1061.00
692,902.64,1659.60,409.63,18186.50,1065.50
694,902.95,1663.48,434.77,18092.50,1109.00
696,903.27,1667.36,399.43,17886.00,1084.50
698,903.59,1671.24,361.76,17728.50,1138.50
700,903.90,1675.11,422.67,17583.00,1104.00
702,904.22,1678.99,331.80,17267.50,1065.50
704,904.54,1682.85,410.57,17331.00,1187.00
706,904.85,1686.72,364.21,17007.50,1081.00
708,905.17,1690.58,397.10,16908.50,1089.00
710,905.49,1694.44,435.74,16762.50,1077.00
712,905.80,1698.29,544.74,16727.50,1083.50
714,906.12,1702.15,549.92,16597.00,1101.50
716,906.43,1706.00,524.24,16405.00,1107.50
718,906.75,1709.84,495.44,16202.50,1125.00
720,907.07,1713.68,356.36,15825.00,1073.00
722,907.38,1717.52,230.79,15572.50,1108.00
724,907.70,1721.36,162.87,15280.00,1100.50
726,908.01,1725.19,106.18,15057.00,1103.00
728,908.33,1729.02,36.86,14838.50,1120.50
730,908.65,1732.85,48.50,14645.00,1091.50
732,908.96,1736.67,28.93,14464.00,1110.00
734,909.28,1740.49,38.84,14297.50,1089.00
736,909.59,1744.30,133.69,14264.50,1115.00
738,909.91,1748.12,103.30,14007.00,1084.00
740,910.22,1751.93,74.48,13876.00,1100.50
742,910.54,1755.73,0.64,13685.50,1186.00
744,910.85,1759.54,0.00,13434.00,1127.00
746,911.17,1763.34,21.42,13279.50,1085.50
748,911.49,1767.13,0.00,13018.00,1099.00
750,911.80,1770.93,0.00,12789.00,1072.00
752,912.12,1774.72,0.00,12859.50,1117.00
754,912.43,1778.50,0.00,12630.00,1056.00
756,912.75,1782.29,36.94,12675.50,1066.50
758,913.06,1786.07,58.14,12536.50,1075.00
760,913.38,1789.84,95.18,12477.00,1098.50
762,913.69,1793.62,145.26,12444.00,1116.50
764,914.01,1797.39,139.94,12311.00,1090.00
766,914.32,1801.15,91.20,12133.50,1087.50
768,914.64,1804.92,89.71,12025.00,1082.50
770,914.95,1808.68,89.67,11929.00,1098.50
772,915.26,1812.44,48.19,11781.50,1123.50
774,915.58,1816.19,155.07,11741.50,1059.00
776,915.89,1819.94,125.36,11622.50,1089.00
778,916.21,1823.69,200.01,11614.00,1103.50
780,916.52,1827.43,405.05,11720.50,1141.00
782,916.84,1831.17,341.72,11501.00,1068.50
784,917.15,1834.91,374.74,11434.50,1057.00
786,917.47,1838.64,534.66,11499.50,1101.50
788,917.78,1842.38,542.21,11404.50,1101.00
790,918.09,1846.10,499.74,11243.00,1070.00
792,918.41,1849.83,470.73,11122.50,1110.00
794,918.72,1853.55,516.30,10993.00,1048.00
796,919.04,1857.27,551.67,10963.00,1092.00
798,919.35,1860.98,603.72,10905.00,1090.00
800,919.66,1864.69,563.58,10766.50,1093.00
802,919.98,1868.40,653.02,10764.50,1098.50
804,920.29,1872.11,749.49,10717.00,1080.50
806,920.60,1875.81,844.90,10710.00,1075.00
808,920.92,1879.51,835.66,10594.00,1067.50
810,921.23,1883.20,932.27,10631.00,1114.50
812,921.55,1886.90,966.35,10508.00,1071.00
814,921.86,1890.58,953.23,10432.50,1112.00
816,922.17,1894.27,882.98,10270.00,1120.50
818,922.49,1897.95,986.39,10228.50,1096.50
820,922.80,1901.63,1014.38,10122.00,1080.50
822,923.11,1905.31,909.51,9916.00,1082.50
824,923.42,1908.98,912.16,9819.50,1104.50
826,923.74,1912.65,928.42,9732.00,1108.00
828,924.05,1916.31,910.63,9574.00,1079.00
830,924.36,1919.98,932.57,9473.00,1073.00
832,924.68,1923.64,907.60,9341.00,1065.50
834,924.99,1927.29,917.20,9252.00,1073.00
836,925.30,1930.94,954.13,9142.50,1048.00
838,925.61,1934.59,973.40,9083.50,1082.50
840,925.93,1938.24,954.95,8956.00,1078.50
842,926.24,1941.88,901.39,8797.50,1085.50
844,926.55,1945.52,816.12,8599.50,1070.00
846,926.86,1949.16,737.77,8442.50,1105.50
848,927.18,1952.79,842.27,8387.50,1072.00
850,927.49,1956.42,744.25,8183.00,1073.00
852,927.80,1960.05,726.51,8202.00,1209.00
854,928.11,1963.67,728.32,7980.50,1094.00
856,928.42,1967.29,642.16,7798.00,1112.00
858,928.74,1970.91,683.28,7705.50,1083.50
860,929.05,1974.52,574.36,7488.00,1078.00
862,929.36,1978.13,579.51,7371.00,1068.50
864,929.67,1981.74,553.50,7260.00,1086.50
866,929.98,1985.35,431.68,7040.00,1090.50
868,930.29,1988.95,448.24,6948.50,1096.00
870,930.61,1992.54,367.65,6748.50,1067.50
872,930.92,1996.14,358.30,6633.50,1064.50
874,931.23,1999.73,323.82,6524.00,1104.50
876,931.54,2003.32,265.62,6369.50,1098.50
878,931.85,2006.90,293.63,6290.00,1089.50
880,932.16,2010.48,249.55,6123.50,1071.00
882,932.47,2014.06,244.53,6027.50,1076.00
884,932.78,2017.63,246.32,5944.50,1087.50
886,933.09,2021.21,168.36,5760.50,1081.50
888,933.41,2024.77,233.34,5745.00,1096.00
890,933.72,2028.34,103.82,5568.50,1144.50
892,934.03,2031.90,120.62,5438.50,1093.00
894,934.34,2035.46,82.56,5327.50,1107.00
896,934.65,2039.01,22.34,5133.00,1072.00
898,934.96,2042.57,31.51,5085.50,1113.00
900,935.27,2046.11,8.54,4996.00,1136.00
902,935.58,2049.66,0.63,4794.50,1044.00
904,935.89,2053.20,0.00,4727.50,1086.00
906,936.20,2056.74,0.00,4616.50,1085.50
908,936.51,2060.28,1.90,4546.50,1080.00
910,936.82,2063.81,0.00,4474.50,1112.50
912,937.13,2067.34,28.55,4409.50,1100.00
914,937.44,2070.86,0.00,4287.00,1090.00
916,937.75,2074.39,0.00,4175.00,1062.00
918,938.06,2077.91,0.00,4100.50,1071.00
920,938.37,2081.42,0.00,4013.00,1087.50
922,938.68,2084.94,5.80,3949.50,1070.50
924,938.99,2088.45,0.00,3862.50,1070.50
926,939.30,2091.95,0.00,3791.00,1103.50
928,939.60,2095.46,0.00,3724.00,1077.50
930,939.91,2098.96,0.38,3719.50,1117.00
932,940.22,2102.45,0.00,3635.00,1100.50
934,940.53,2105.95,10.48,3548.50,1063.00
936,940.84,2109.44,9.57,3505.00,1071.50
938,941.15,2112.92,0.00,3441.50,1083.00
940,941.46,2116.41,0.00,3367.00,1061.00
942,941.77,2119.89,19.93,3366.00,1094.00
944,942.07,2123.37,0.00,3268.50,1084.00
946,942.38,2126.84,0.00,3227.50,1100.50
948,942.69,2130.31,0.00,3185.00,1100.50
950,943.00,2133.78,0.00,3112.50,1085.50
952,943.31,2137.24,0.00,3103.50,1094.00
954,943.62,2140.70,0.00,3070.00,1100.50
956,943.92,2144.16,6.85,3037.50,1083.50
958,944.23,2147.62,0.00,2990.50,1100.50
960,944.54,2151.07,7.69,2998.50,1122.00
962,944.85,2154.52,0.00,2974.50,1141.50
964,945.16,2157.96,0.00,2892.00,1115.00
966,945.46,2161.40,0.00,2872.00,1107.00
968,945.77,2164.84,20.68,2807.00,1043.00
970,946.08,2168.28,0.00,2794.00,1090.00
972,946.39,2171.71,6.29,2783.50,1077.00
974,946.69,2175.14,0.03,2753.50,1080.00
976,947.00,2178.57,0.00,2710.50,1086.00
978,947.31,2181.99,15.59,2715.50,1064.50
980,947.61,2185.41,0.77,2709.50,1093.00
982,947.92,2188.82,11.68,2710.50,1101.50
984,948.23,2192.24,34.28,2657.50,1046.50
986,948.53,2195.65,0.00,2639.50,1085.50
988,948.84,2199.05,15.46,2597.50,1024.00
990,949.15,2202.46,0.00,2627.00,1095.50
992,949.45,2205.86,13.60,2628.00,1085.50
994,949.76,2209.25,86.46,2628.00,1052.00
996,950.07,2212.65,39.25,2608.00,1071.00
998,950.37,2216.04,10.68,2558.50,1052.50
1000,950.68,2219.43,31.94,2605.00,1082.50
1002,950.98,2222.81,31.45,2593.00,1098.00
1004,951.29,2226.19,90.19,2578.50,1062.00
1006,951.60,2229.57,76.99,2555.50,1052.00
1008,951.90,2232.94,29.48,2521.50,1057.00
1010,952.21,2236.32,23.79,2515.00,1062.00
1012,952.51,2239.68,0.00,2506.50,1099.50
1014,952.82,2243.05,34.55,2475.00,1046.50
1016,953.12,2246.41,48.22,2555.50,1129.00
1018,953.43,2249.77,32.64,2560.50,1149.00
1020,953.73,2253.12,61.08,2540.50,1120.50
1022,954.04,2256.48,107.99,2466.50,1028.50
1024,954.34,2259.83,32.33,2490.50,1113.00
1026,954.65,2263.17,20.45,2427.00,1067.50
1028,954.95,2266.51,27.36,2434.50,1082.50
1030,955.26,2269.85,36.38,2470.50,1120.50
1032,955.56,2273.19,0.00,2404.00,1101.50
1034,955.87,2276.52,2.27,2413.50,1104.50
1036,956.17,2279.85,23.18,2438.00,1118.50
1038,956.48,2283.18,52.75,2367.00,1045.50
1040,956.78,2286.50,49.34,2368.00,1055.00
1042,957.08,2289.82,65.12,2353.50,1034.00
1044,957.39,2293.14,34.16,2379.00,1088.50
1046,957.69,2296.45,30.45,2336.50,1055.00
1048,957.99,2299.76,49.14,2409.50,1127.00
1050,958.30,2303.07,24.13,2353.00,1099.50
1052,958.60,2306.38,61.83,2352.50,1073.50
1054,958.91,2309.68,58.83,2357.50,1085.50
1056,959.21,2312.98,90.53,2344.00,1059.00
1058,959.51,2316.27,124.81,2367.00,1079.00
1060,959.82,2319.56,138.33,2406.00,1110.00
1062,960.12,2322.85,80.86,2323.00,1066.50
1064,960.42,2326.14,107.05,2318.50,1056.00
1066,960.72,2329.42,121.03,2336.50,1085.50
1068,961.03,2332.70,75.57,2315.50,1095.00
1070,961.33,2335.97,22.23,2272.00,1092.00
1072,961.63,2339.25,0.00,2214.00,1069.50
1074,961.93,2342.52,49.01,2252.00,1078.00
1076,962.24,2345.78,0.00,2200.00,1086.50
1078,962.54,2349.05,1.68,2202.00,1075.00
1080,962.84,2352.31,0.00,2184.50,1081.00
1082,963.14,2355.56,0.00,2177.50,1070.00
1084,963.45,2358.82,0.00,2182.50,1078.00
1086,963.75,2362.07,22.52,2250.50,1103.50
1088,964.05,2365.32,64.69,2291.00,1141.50
1090,964.35,2368.56,111.19,2251.00,1085.50
1092,964.65,2371.80,105.29,2272.00,1109.00
1094,964.95,2375.04,95.80,2244.00,1081.50
1096,965.25,2378.27,91.89,2231.00,1073.00
1098,965.56,2381.51,93.77,2238.50,1092.00
1100,965.86,2384.73,82.32,2219.50,1082.00
1102,966.16,2387.96,34.00,2196.00,1084.50
1104,966.46,2391.18,0.00,2198.00,1126.00
1106,966.76,2394.40,35.78,2185.00,1085.50
1108,967.06,2397.62,41.10,2203.50,1108.00
1110,967.36,2400.83,95.93,2188.50,1066.50
1112,967.66,2404.04,101.86,2249.50,1120.50
1114,967.96,2407.25,44.41,2146.50,1056.00
1116,968.26,2410.45,84.30,2195.00,1086.00
1118,968.56,2413.65,111.72,2172.00,1056.00
1120,968.86,2416.85,75.08,2233.00,1137.00
1122,969.16,2420.04,71.17,2189.50,1089.50
1124,969.46,2423.23,64.68,2153.00,1063.50
1126,969.76,2426.42,108.79,2191.50,1083.50
1128,970.06,2429.60,90.27,2133.50,1042.00
1130,970.36,2432.79,133.83,2192.50,1077.00
1132,970.66,2435.96,170.48,2204.50,1076.00
1134,970.96,2439.14,140.96,2183.50,1077.00
1136,971.26,2442.31,112.95,2195.00,1105.50
1138,971.56,2445.48,59.81,2139.00,1084.50
1140,971.86,2448.65,52.21,2111.50,1063.50
1142,972.16,2451.81,44.86,2139.00,1100.50
1144,972.45,2454.97,51.21,2122.50,1088.50
1146,972.75,2458.13,29.19,2105.00,1089.50
1148,973.05,2461.28,58.17,2095.00,1065.50
1150,973.35,2464.43,41.46,2125.00,1096.00
1152,973.65,2467.58,0.00,2064.00,1079.00
1154,973.95,2470.72,70.92,2137.50,1081.50
1156,974.24,2473.86,98.47,2124.00,1078.50
1158,974.54,2477.00,126.83,2117.00,1060.00
1160,974.84,2480.13,166.57,2175.50,1096.00
1162,975.14,2483.27,144.04,2151.00,1079.50
1164,975.43,2486.40,204.10,2151.00,1044.50
1166,975.73,2489.52,244.01,2193.00,1074.00
1168,976.03,2492.64,215.94,2173.50,1073.00
1170,976.33,2495.76,185.74,2175.00,1094.00
1172,976.62,2498.88,177.61,2129.00,1058.00
1174,976.92,2501.99,129.82,2151.00,1105.00
1176,977.22,2505.10,75.09,2123.50,1105.50
1178,977.51,2508.21,62.97,2091.50,1083.00
1180,977.81,2511.31,34.21,2055.50,1075.50
1182,978.11,2514.41,54.87,2062.50,1075.00
1184,978.40,2517.51,23.32,2065.00,1085.50
1186,978.70,2520.61,4.07,2047.00,1086.00
1188,979.00,2523.70,51.72,2110.50,1105.50
1190,979.29,2526.79,134.12,2104.00,1081.50
1192,979.59,2529.87,196.12,2121.00,1087.00
1194,979.88,2532.95,180.64,2094.50,1061.00
1196,980.18,2536.03,112.38,2118.50,1104.50
1198,980.48,2539.11,48.94,2086.00,1113.00
1200,980.77,2542.18,73.22,2070.00,1089.00
1202,981.07,2545.25,79.09,2099.50,1120.50
1204,981.36,2548.32,102.48,2074.50,1081.50
1206,981.66,2551.38,153.94,2135.00,1117.00
1208,981.95,2554.44,198.07,2117.00,1087.50
1210,982.25,2557.50,239.09,2177.50,1135.50
1212,982.54,2560.56,233.18,2163.50,1126.50
1214,982.84,2563.61,244.18,2185.50,1145.00
1216,983.13,2566.66,284.81,2185.00,1125.00
1218,983.43,2569.70,218.57,2139.00,1111.50
1220,983.72,2572.74,212.27,2132.50,1109.00
1222,984.01,2575.78,142.20,2080.50,1102.50
1224,984.31,2578.82,158.49,2061.00,1087.00
1226,984.60,2581.85,158.08,2075.50,1107.50
1228,984.90,2584.88,49.28,1984.00,1059.00
1230,985.19,2587.91,15.12,2001.50,1090.00
1232,985.48,2590.93,0.00,2009.00,1126.50
1234,985.78,2593.96,6.26,2004.00,1106.00
1236,986.07,2596.97,6.87,2003.00,1115.00
1238,986.36,2599.99,72.85,2071.50,1150.00
1240,986.66,2603.00,191.15,2081.00,1123.50
1242,986.95,2606.01,158.55,2085.00,1137.00
1244,987.24,2609.01,149.55,2067.50,1120.50
1246,987.54,2612.02,206.49,2004.00,1043.50
1248,987.83,2615.02,235.64,2084.00,1115.00
1250,988.12,2618.01,98.48,2043.00,1129.00
1252,988.41,2621.01,89.58,2027.00,1118.50
1254,988.71,2624.00,105.91,1987.00,1077.00
1256,989.00,2626.99,56.82,1993.00,1108.00
1258,989.29,2629.97,56.15,1991.00,1104.50
1260,989.58,2632.95,95.51,2027.00,1119.50
1262,989.87,2635.93,120.20,2034.50,1124.50
1264,990.16,2638.91,251.23,2037.50,1079.50
1266,990.46,2641.88,296.01,2089.50,1123.50
1268,990.75,2644.85,355.41,2144.50,1157.50
1270,991.04,2647.81,286.40,2072.50,1111.00
1272,991.33,2650.78,225.60,2054.00,1119.50
1274,991.62,2653.74,213.84,2025.00,1099.50
1276,991.91,2656.70,121.48,1985.50,1095.00
1278,992.20,2659.65,37.00,1972.00,1125.50
1280,992.49,2662.60,38.88,1932.00,1091.00
1282,992.78,2665.55,0.00,1967.50,1151.00
1284,993.07,2668.50,34.86,1963.00,1132.50
1286,993.36,2671.44,18.91,1959.50,1130.00
1288,993.65,2674.38,0.00,1943.50,1144.50
1290,993.94,2677.31,0.00,1914.00,1120.50
1292,994.23,2680.25,44.45,1930.50,1101.50
1294,994.52,2683.18,35.82,1941.50,1120.50
1296,994.81,2686.10,8.47,1929.50,1118.00
1298,995.10,2689.03,13.95,1919.00,1105.50
1300,995.39,2691.95,26.09,1920.50,1101.50
1302,995.68,2694.87,44.45,1967.00,1139.50
1304,995.97,2697.78,41.39,1967.00,1140.50
1306,996.26,2700.70,66.27,1935.00,1086.50
1308,996.55,2703.61,124.48,2021.50,1126.50
1310,996.84,2706.51,351.25,2164.00,1138.50
1312,997.13,2709.42,858.54,2351.00,1133.50
1314,997.41,2712.32,1844.52,2617.50,1131.00
1316,997.70,2715.21,2728.51,2783.50,1112.50
1318,997.99,2718.11,2378.52,2724.50,1117.50
1320,998.28,2721.00,1205.06,2417.00,1099.00
1322,998.57,2723.89,609.95,2247.50,1138.00
1324,998.86,2726.77,382.13,2062.00,1091.00
1326,999.14,2729.66,329.72,2020.50,1104.00
1328,999.43,2732.54,169.60,1960.50,1102.50
1330,999.72,2735.41,33.46,1918.00,1110.00
1332,1000.01,2738.29,4.80,1928.00,1138.50
1334,1000.29,2741.16,0.79,1882.00,1102.50
1336,1000.58,2744.03,1.60,1861.00,1081.50
1338,1000.87,2746.89,32.21,1957.50,1136.50
1340,1001.15,2749.75,178.35,1985.00,1112.00
1342,1001.44,2752.61,607.67,2089.50,1117.00
1344,1001.73,2755.47,938.56,2133.00,1101.50
1346,1002.01,2758.32,802.77,2119.00,1109.50
1348,1002.30,2761.17,467.54,2069.00,1146.50
1350,1002.59,2764.02,324.41,2039.00,1164.00
1352,1002.87,2766.86,179.33,1935.00,1103.00
1354,1003.16,2769.70,46.17,1885.50,1097.50
1356,1003.44,2772.54,0.00,1830.50,1088.50
1358,1003.73,2775.38,0.00,1852.00,1122.50
1360,1004.01,2778.21,0.00,1808.00,1085.50
1362,1004.30,2781.04,0.00,1825.50,1111.00
1364,1004.58,2783.87,0.06,1842.00,1097.00
1366,1004.87,2786.69,0.00,1814.50,1069.50
1368,1005.15,2789.51,65.49,1903.50,1131.00
1370,1005.44,2792.33,22.62,1895.00,1126.00
1372,1005.72,2795.14,0.00,1889.00,1130.00
1374,1006.01,2797.95,0.00,1878.00,1146.50
1376,1006.29,2800.76,0.00,1863.00,1095.00
1378,1006.58,2803.57,0.00,1938.00,1161.50
1380,1006.86,2806.37,0.00,1898.50,1104.00
1382,1007.14,2809.17,0.00,1914.50,1099.00
1384,1007.43,2811.97,0.00,1954.00,1092.00
1386,1007.71,2814.77,0.00,1959.50,1091.00
1388,1008.00,2817.56,0.00,2026.50,1083.50
1390,1008.28,2820.35,0.00,2133.00,1133.50
1392,1008.56,2823.13,0.00,2144.50,1090.50
1394,1008.85,2825.91,0.15,2314.50,1124.00
1396,1009.13,2828.69,19.03,2434.00,1112.00
1398,1009.41,2831.47,310.93,2698.50,1138.50
1400,1009.69,2834.24,1228.46,2923.00,1086.50
1402,1009.98,2837.02,2889.35,3360.50,1101.50
1404,1010.26,2839.78,4889.60,3857.50,1134.00
1406,1010.54,2842.55,6291.14,4112.50,1087.50
1408,1010.82,2845.31,6615.99,4276.00,1123.50
1410,1011.11,2848.07,5572.92,4188.50,1138.50
1412,1011.39,2850.83,4448.54,4058.50,1124.50
1414,1011.67,2853.58,4258.69,4153.00,1113.50
1416,1011.95,2856.33,5507.05,4644.00,1119.50
1418,1012.23,2859.08,9102.08,5634.00,1115.50
1420,1012.51,2861.83,15749.58,7025.00,1099.50
1422,1012.80,2864.57,23070.24,8451.50,1174.00
1424,1013.08,2867.31,24555.90,8868.00,1160.50
1426,1013.36,2870.04,21070.55,8493.50,1137.50
1428,1013.64,2872.78,18620.85,8154.50,1128.00
1430,1013.92,2875.51,19448.96,8276.50,1161.50
1432,1014.20,2878.24,21849.80,8471.00,1131.00
1434,1014.48,2880.96,22792.15,8425.50,1109.00
1436,1014.76,2883.68,20269.13,7874.00,1091.00
1438,1015.04,2886.40,16056.21,7047.50,1092.00
1440,1015.32,2889.12,13051.06,6452.00,1137.50
1442,1015.60,2891.83,11457.32,6002.50,1102.00
1444,1015.88,2894.54,11068.74,5890.50,1138.50
1446,1016.16,2897.25,11433.88,5903.50,1080.00
1448,1016.44,2899.96,12316.09,6183.50,1135.00
1450,1016.72,2902.66,14455.09,6651.50,1121.50
1452,1017.00,2905.36,17922.14,7362.50,1166.00
1454,1017.28,2908.06,21359.99,7881.50,1110.00
1456,1017.55,2910.75,22907.99,8165.50,1139.50
1458,1017.83,2913.44,22125.16,8083.00,1092.00
1460,1018.11,2916.13,19112.89,7676.00,1129.00
1462,1018.39,2918.81,17526.40,7457.50,1141.50
1464,1018.67,2921.49,18100.42,7476.50,1116.00
1466,1018.95,2924.17,20536.95,7724.00,1116.50
1468,1019.22,2926.85,22986.81,7930.00,1134.00
1470,1019.50,2929.52,22064.04,7608.50,1091.00
1472,1019.78,2932.20,17542.51,6861.50,1086.00
1474,1020.06,2934.86,12406.66,5997.00,1108.00
1476,1020.33,2937.53,9049.82,5398.50,1156.50
1478,1020.61,2940.19,7673.32,5074.00,1116.00
1480,1020.89,2942.85,8090.85,5174.50,1136.00
1482,1021.17,2945.51,10673.32,5621.50,1106.00
1484,1021.44,2948.16,15326.35,6394.50,1123.50
1486,1021.72,2950.81,20184.35,7101.50,1107.00
1488,1022.00,2953.46,22649.75,7587.50,1153.50
1490,1022.27,2956.11,21224.60,7421.50,1118.50
1492,1022.55,2958.75,19539.82,7161.00,1135.50
1494,1022.82,2961.39,19460.73,6999.00,1114.00
1496,1023.10,2964.03,18236.11,6725.50,1163.00
1498,1023.38,2966.66,14180.03,6010.00,1106.00
1500,1023.65,2969.29,9941.23,5344.50,1145.50
1502,1023.93,2971.92,8212.69,4982.00,1135.50
1504,1024.20,2974.55,8254.83,4858.00,1136.00
1506,1024.48,2977.17,8873.50,4771.00,1121.50
1508,1024.75,2979.79,9076.84,4628.50,1092.50
1510,1025.03,2982.41,7666.07,4374.50,1110.00
1512,1025.30,2985.02,4614.36,3965.00,1088.00
1514,1025.58,2987.63,1496.90,3593.50,1120.50
1516,1025.85,2990.24,123.06,3193.50,1100.00
1518,1026.13,2992.85,4.35,3090.00,1131.00
1520,1026.40,2995.45,0.00,3008.50,1127.00
1522,1026.68,2998.05,3.87,3007.50,1108.00
1524,1026.95,3000.65,126.86,3116.50,1152.00
1526,1027.22,3003.25,1207.94,3268.00,1121.50
1528,1027.50,3005.84,3051.88,3378.50,1101.50
1530,1027.77,3008.43,4271.06,3493.50,1132.00
1532,1028.04,3011.02,3007.47,3369.00,1146.00
1534,1028.32,3013.60,1510.37,3190.00,1124.00
1536,1028.59,3016.18,447.71,3018.00,1137.50
1538,1028.86,3018.76,129.91,2835.50,1060.50
1540,1029.14,3021.34,176.13,2899.50,1121.50
1542,1029.41,3023.91,390.32,2917.50,1099.50
1544,1029.68,3026.48,1172.29,3062.50,1104.50
1546,1029.95,3029.05,3669.38,3428.00,1128.00
1548,1030.22,3031.61,7845.73,3803.00,1102.00
1550,1030.50,3034.17,9999.92,3963.50,1101.50
1552,1030.77,3036.73,8292.40,3835.50,1094.00
1554,1031.04,3039.29,5553.72,3642.50,1133.50
1556,1031.31,3041.84,4768.91,3580.00,1076.00
1558,1031.58,3044.39,5799.47,3888.50,1161.50
1560,1031.85,3046.94,10075.90,4504.50,1141.50
1562,1032.13,3049.49,18232.81,5317.50,1092.00
1564,1032.40,3052.03,28448.76,6214.00,1154.00
1566,1032.67,3054.57,31042.06,6299.50,1110.00
1568,1032.94,3057.11,22604.25,5629.50,1173.00
1570,1033.21,3059.64,12132.80,4424.00,1080.50
1572,1033.48,3062.18,6169.41,3595.00,1131.50
1574,1033.75,3064.70,3472.92,3032.50,1134.50
1576,1034.02,3067.23,2198.26,2698.00,1138.50
1578,1034.29,3069.75,1592.35,2468.50,1083.50
1580,1034.56,3072.28,963.61,2379.50,1131.00
1582,1034.83,3074.79,443.63,2219.50,1078.50
1584,1035.10,3077.31,143.65,2186.50,1127.00
1586,1035.37,3079.82,39.49,2099.50,1093.00
1588,1035.64,3082.33,3.25,2119.00,1163.00
1590,1035.91,3084.84,0.00,2028.00,1129.00
1592,1036.17,3087.34,0.00,1948.50,1103.00
1594,1036.44,3089.85,0.00,1993.50,1181.50
1596,1036.71,3092.35,0.00,1899.00,1105.00
1598,1036.98,3094.84,0.00,1871.50,1097.00
1600,1037.25,3097.34,0.00,1857.50,1087.50
1602,1037.52,3099.83,0.00,1877.00,1106.50
1604,1037.78,3102.32,0.00,1859.00,1116.50
1606,1038.05,3104.80,0.00,1898.00,1155.50
1608,1038.32,3107.29,0.00,1855.50,1119.50
1610,1038.59,3109.77,0.88,1837.50,1096.00
1612,1038.85,3112.24,61.12,1846.50,1100.50
1614,1039.12,3114.72,0.00,1878.00,1151.00
1616,1039.39,3117.19,0.00,1778.50,1077.00
1618,1039.66,3119.66,0.00,1858.00,1145.00
1620,1039.92,3122.13,0.00,1840.00,1145.00
1622,1040.19,3124.59,0.10,1850.50,1118.50
1624,1040.45,3127.05,0.04,1830.50,1094.00
1626,1040.72,3129.51,0.00,1869.50,1132.00
1628,1040.99,3131.97,232.76,1906.50,1128.00
1630,1041.25,3134.42,105.30,1931.00,1157.50
1632,1041.52,3136.87,17.85,1871.00,1094.50
1634,1041.78,3139.32,0.44,1909.00,1126.00
1636,1042.05,3141.77,93.89,2038.50,1230.50
1638,1042.32,3144.21,303.22,1948.50,1117.00
1640,1042.58,3146.65,158.34,1992.00,1163.50
1642,1042.85,3149.09,289.36,1985.50,1129.00
1644,1043.11,3151.52,182.78,1989.50,1126.00
1646,1043.38,3153.96,62.41,1990.50,1129.50
1648,1043.64,3156.39,0.00,1977.00,1120.50
1650,1043.90,3158.81,285.98,2027.00,1120.50
1652,1044.17,3161.24,395.33,2061.00,1143.00
1654,1044.43,3163.66,256.49,2003.50,1083.50
1656,1044.70,3166.08,259.73,2122.50,1183.00
1658,1044.96,3168.49,208.47,2078.00,1135.00
1660,1045.22,3170.91,505.46,2093.50,1117.50
1662,1045.49,3173.32,893.09,2132.50,1123.50
1664,1045.75,3175.73,710.62,2131.50,1135.50
1666,1046.01,3178.13,730.65,2115.50,1108.50
1668,1046.28,3180.54,976.15,2180.00,1148.00
1670,1046.54,3182.94,1214.81,2197.00,1153.50
1672,1046.80,3185.34,1403.20,2190.50,1139.50
1674,1047.07,3187.73,1685.65,2179.50,1109.00
1676,1047.33,3190.12,2221.71,2242.50,1130.00
1678,1047.59,3192.51,2293.66,2251.00,1139.50
1680,1047.85,3194.90,2589.10,2307.50,1171.00
1682,1048.11,3197.29,2435.62,2296.50,1174.50
1684,1048.38,3199.67,2883.18,2296.50,1138.50
1686,1048.64,3202.05,3332.67,2360.00,1176.00
1688,1048.90,3204.43,3575.42,2331.00,1141.00
1690,1049.16,3206.80,3912.55,2337.50,1126.00
1692,1049.42,3209.17,4313.93,2394.00,1148.00
1694,1049.68,3211.54,4678.83,2388.50,1111.00
1696,1049.94,3213.91,4765.06,2403.00,1129.00
1698,1050.20,3216.27,5346.77,2443.00,1138.50
1700,1050.46,3218.63,5942.11,2518.50,1180.00
1702,1050.72,3220.99,6338.17,2497.50,1131.50
1704,1050.98,3223.35,6216.35,2494.00,1141.50
1706,1051.24,3225.70,6460.69,2492.00,1130.00
1708,1051.50,3228.05,6927.15,2495.00,1110.00
1710,1051.76,3230.40,7067.82,2551.00,1165.00
1712,1052.02,3232.75,7311.77,2528.00,1128.00
1714,1052.28,3235.09,7001.45,2540.50,1173.50
1716,1052.54,3237.43,7591.74,2526.50,1124.00
1718,1052.80,3239.77,7586.22,2514.00,1122.00
1720,1053.06,3242.11,7815.51,2532.00,1132.50
1722,1053.32,3244.44,8580.89,2545.00,1099.50
1724,1053.58,3246.77,8327.80,2603.00,1189.00
1726,1053.84,3249.10,8592.32,2561.50,1137.50
1728,1054.10,3251.42,8818.48,2570.50,1140.50
1730,1054.35,3253.75,9298.21,2576.50,1126.50
1732,1054.61,3256.07,9686.05,2619.50,1157.50
1734,1054.87,3258.39,9905.00,2597.50,1130.00
1736,1055.13,3260.70,9980.47,2595.50,1129.00
1738,1055.38,3263.01,10229.73,2600.50,1125.00
1740,1055.64,3265.32,10370.73,2616.50,1144.50
1742,1055.90,3267.63,10767.81,2586.00,1104.50
1744,1056.16,3269.94,11141.02,2663.00,1173.00
1746,1056.41,3272.24,10834.65,2643.00,1181.50
1748,1056.67,3274.54,10718.72,2589.00,1139.50
1750,1056.93,3276.84,11035.15,2610.50,1153.00
1752,1057.18,3279.13,11215.86,2581.50,1132.00
1754,1057.44,3281.42,11399.34,2549.00,1099.50
1756,1057.69,3283.71,10501.24,2509.50,1120.00
1758,1057.95,3286.00,10790.82,2582.00,1179.50
1760,1058.21,3288.28,10988.70,2511.00,1114.00
1762,1058.46,3290.57,11344.81,2559.00,1162.00
1764,1058.72,3292.85,11140.34,2517.00,1145.50
1766,1058.97,3295.12,10891.11,2466.50,1113.00
1768,1059.23,3297.40,10729.72,2456.50,1116.00
1770,1059.48,3299.67,10626.66,2483.50,1160.50
1772,1059.74,3301.94,10747.05,2416.50,1104.50
1774,1059.99,3304.21,11836.42,2506.50,1149.00
1776,1060.25,3306.47,11494.38,2500.50,1174.50
1778,1060.50,3308.73,11100.03,2415.50,1117.50
1780,1060.76,3310.99,10452.28,2374.50,1119.50
1782,1061.01,3313.25,10847.67,2409.50,1141.50
1784,1061.26,3315.50,10683.59,2377.00,1131.00
1786,1061.52,3317.76,10716.99,2396.50,1163.00
1788,1061.77,3320.01,10873.46,2394.00,1166.00
1790,1062.02,3322.25,10985.91,2336.50,1112.00
1792,1062.28,3324.50,10409.95,2325.00,1136.00
1794,1062.53,3326.74,10462.04,2287.50,1101.50
1796,1062.78,3328.98,10511.84,2306.00,1129.00
1798,1063.04,3331.22,9949.50,2253.00,1119.00
1800,1063.29,3333.45,10430.92,2264.50,1115.50
1802,1063.54,3335.68,9907.85,2252.00,1137.50
1804,1063.79,3337.91,9917.73,2262.50,1157.50
1806,1064.05,3340.14,9832.28,2283.50,1194.00
1808,1064.30,3342.36,9912.15,2196.00,1109.00
1810,1064.55,3344.59,9409.42,2219.00,1161.50
1812,1064.80,3346.81,9382.36,2175.00,1130.50
1814,1065.05,3349.02,9908.57,2173.00,1120.50
1816,1065.30,3351.24,9625.92,2183.00,1155.00
1818,1065.55,3353.45,9050.50,2125.50,1126.00
1820,1065.81,3355.66,8493.75,2169.50,1196.50
1822,1066.06,3357.87,8756.51,2103.00,1123.00
1824,1066.31,3360.07,8512.14,2068.50,1111.00
1826,1066.56,3362.27,8956.36,2117.00,1152.50
1828,1066.81,3364.47,8847.87,2062.00,1114.00
1830,1067.06,3366.67,9380.12,2089.50,1126.00
1832,1067.31,3368.87,8352.79,2031.00,1119.50
1834,1067.56,3371.06,8845.40,1997.00,1071.00
1836,1067.81,3373.25,8673.09,1992.00,1079.50
1838,1068.06,3375.44,8268.61,1990.00,1101.50
1840,1068.31,3377.62,8588.71,2007.00,1115.50
1842,1068.56,3379.81,8410.25,1952.00,1080.00
1844,1068.80,3381.99,8520.73,2045.00,1174.50
1846,1069.05,3384.16,8004.57,1998.50,1148.00
1848,1069.30,3386.34,7590.81,1957.50,1124.50
1850,1069.55,3388.51,7333.52,1926.00,1112.00
1852,1069.80,3390.68,7598.65,1948.00,1137.00
1854,1070.05,3392.85,7876.81,2011.50,1202.50
1856,1070.30,3395.02,7807.72,1921.00,1122.50
1858,1070.54,3397.18,8135.08,1901.00,1093.50
1860,1070.79,3399.34,7345.44,1897.50,1123.50
1862,1071.04,3401.50,7151.07,1874.50,1113.50
1864,1071.29,3403.66,7266.45,1835.50,1076.00
1866,1071.53,3405.81,7254.49,1878.00,1123.00
1868,1071.78,3407.96,6443.25,1841.00,1120.50
1870,1072.03,3410.11,6722.56,1866.00,1142.50
1872,1072.27,3412.26,6623.97,1847.50,1138.50
1874,1072.52,3414.40,7351.30,1839.00,1115.00
1876,1072.77,3416.54,6999.59,1819.50,1113.00
1878,1073.01,3418.68,7221.03,1852.00,1138.50
1880,1073.26,3420.82,6112.00,1740.50,1068.00
1882,1073.51,3422.96,6683.66,1817.00,1132.00
1884,1073.75,3425.09,5737.40,1769.00,1124.50
1886,1074.00,3427.22,5826.20,1720.50,1077.50
1888,1074.24,3429.35,5386.12,1783.00,1156.50
1890,1074.49,3431.47,5525.34,1730.50,1103.50
1892,1074.73,3433.59,5753.30,1710.00,1083.50
1894,1074.98,3435.71,5918.54,1781.00,1156.50
1896,1075.22,3437.83,5164.75,1716.50,1119.50
1898,1075.47,3439.95,5533.21,1741.50,1136.00
1900,1075.71,3442.06,5092.53,1723.50,1138.50
1902,1075.96,3444.17,5876.23,1710.00,1109.00
1904,1076.20,3446.28,5338.87,1615.00,1035.00
1906,1076.44,3448.38,4957.20,1736.00,1169.00
1908,1076.69,3450.49,4768.07,1711.00,1151.50
1910,1076.93,3452.59,4392.78,1673.00,1129.00
1912,1077.17,3454.69,4523.33,1645.50,1103.50
1914,1077.42,3456.79,3974.00,1652.50,1132.00
1916,1077.66,3458.88,4811.44,1631.00,1090.00
1918,1077.90,3460.97,3802.29,1606.50,1099.00
1920,1078.15,3463.06,4073.22,1670.00,1162.00
1922,1078.39,3465.15,4859.93,1640.00,1117.00
1924,1078.63,3467.23,4236.65,1582.50,1076.00
1926,1078.87,3469.32,3142.68,1625.50,1147.00
1928,1079.12,3471.40,2899.44,1574.50,1105.00
1930,1079.36,3473.47,3144.32,1658.50,1190.00
1932,1079.60,3475.55,3250.96,1553.50,1092.00
1934,1079.84,3477.62,3634.91,1591.50,1126.50
1936,1080.08,3479.69,2797.68,1540.00,1096.00
1938,1080.33,3481.76,2047.80,1518.50,1093.00
1940,1080.57,3483.83,2224.69,1549.50,1120.50
1942,1080.81,3485.89,2109.60,1544.00,1122.00
1944,1081.05,3487.95,2621.46,1568.50,1138.50
1946,1081.29,3490.01,1996.66,1535.00,1127.00
1948,1081.53,3492.07,2240.70,1514.00,1106.00
1950,1081.77,3494.12,1792.11,1493.00,1097.00
1952,1082.01,3496.18,1783.69,1537.50,1139.50
1954,1082.25,3498.23,724.91,1463.00,1094.00
1956,1082.49,3500.27,1176.57,1498.00,1122.50
1958,1082.73,3502.32,1202.94,1456.50,1088.50
1960,1082.97,3504.36,2340.88,1512.50,1126.00
1962,1083.21,3506.40,1613.72,1464.50,1094.50
1964,1083.45,3508.44,1499.26,1435.50,1067.50
1966,1083.69,3510.48,571.60,1517.00,1178.50
1968,1083.93,3512.51,1329.37,1481.00,1132.50
1970,1084.16,3514.54,2490.73,1472.00,1110.00
1972,1084.40,3516.57,1665.35,1440.50,1099.50
1974,1084.64,3518.60,1096.74,1425.00,1097.50
1976,1084.88,3520.62,805.25,1474.00,1155.50
1978,1085.12,3522.65,461.56,1472.50,1166.00
1980,1085.36,3524.67,364.39,1425.50,1126.00
1982,1085.59,3526.68,1324.03,1407.00,1091.00
1984,1085.83,3528.70,1232.85,1450.00,1142.00
1986,1086.07,3530.71,1045.78,1400.50,1101.50
1988,1086.31,3532.72,953.91,1425.00,1133.00
1990,1086.54,3534.73,1263.85,1380.50,1088.50
1992,1086.78,3536.74,2170.63,1462.00,1159.50
1994,1087.02,3538.74,355.13,1403.00,1135.00
1996,1087.25,3540.74,1156.12,1361.50,1077.50
1998,1087.49,3542.74,723.19,1389.00,1116.00
2000,1087.73,3544.74,572.59,1381.50,1117.50
2002,1087.96,3546.74,617.21,1372.00,1114.00
2004,1088.20,3548.73,1652.20,1420.50,1151.00
2006,1088.43,3550.72,1076.04,1374.00,1118.50
2008,1088.67,3552.71,1303.20,1370.00,1113.00
2010,1088.90,3554.69,993.12,1325.50,1076.00
2012,1089.14,3556.68,582.87,1365.50,1127.00
2014,1089.38,3558.66,1247.11,1330.50,1083.50
2016,1089.61,3560.64,1395.16,1332.00,1088.00
2018,1089.84,3562.62,1965.35,1376.50,1127.00
2020,1090.08,3564.59,2363.70,1336.00,1081.50
2022,1090.31,3566.56,0.00,1307.00,1100.00
2024,1090.55,3568.53,1226.43,1319.00,1094.00
2026,1090.78,3570.50,2291.20,1299.00,1064.50
2028,1091.02,3572.47,403.21,1290.00,1083.50
2030,1091.25,3574.43,1282.64,1298.00,1072.00
2032,1091.48,3576.39,27.89,1242.00,1046.50
2034,1091.72,3578.35,264.32,1244.00,1041.00
2036,1091.95,3580.31,100.88,1283.00,1091.00
2038,1092.18,3582.26,685.31,1238.50,1040.00
2040,1092.42,3584.22,1238.10,1236.50,1039.00
2042,1092.65,3586.17,1387.88,1250.50,1054.50
2044,1092.88,3588.12,790.12,1234.50,1040.00
2046,1093.11,3590.06,0.00,1215.50,1045.00
2047,1093.23,3591.03,16.24,1204.00,1024.00