File: plugins/Raman/MatchingLibrary/785X/lactose.csv
ENLIGHTEN Version,4.1.22
Measurement ID,20250220-201755-020722-WP-01977
Serial Number,WP-01977
Model,WP-785X-F13-R-ILC
Detector,S16011-1106
Label,lactose
Declared Match,
Declared Score,0
Scan Averaging,2
Boxcar,0
Technique,Raman
Baseline Correction Algo,AirPLS
ROI Pixel Start,47
ROI Pixel End,2047
ROI Start Line,0
ROI Stop Line,63
CCD C4,1.38617e-12
Slit Width,25
Cropped,True
Interpolated,False
Wavenumber Correction,-0.100481
Raman Intensity Corrected,True
Deconvolved,True
Region,
High Gain Mode,False
Laser Power mW,
Electrical Dark Correction,False
Battery %,
Device ID,<DeviceID USB:0x24aa:0x1000:0:1>
FW Version,10.0.0.10
FPGA Version,035-001
BLE Version,
Prefix,enlighten
Suffix,
Preset,
Auto-Raman,True
Session Count,0
Plugin Name,
Integration Time,581
Timestamp,2025-02-20 20:17:55.0207
Note,
Temperature,0
CCD C0,793.274
CCD C1,0.153259
CCD C2,1.40788e-05
CCD C3,-1.132e-08
CCD Offset,0
CCD Gain,1.9
CCD Offset Odd,0
CCD Gain Odd,1.9
Laser Wavelength,785.032
Laser Enable,False
Laser Power %,0
Laser Temperature,0
Pixel Count,2048

Pixel,Wavelength,Wavenumber,Processed,Raw,Dark
0,793.27,132.25,NA,1069.00,971.50
2,793.58,137.12,NA,1108.00,995.50
4,793.89,141.99,NA,1096.00,984.00
6,794.19,146.86,NA,1115.00,992.50
8,794.50,151.72,NA,1112.00,1000.00
10,794.81,156.58,NA,1115.00,1004.00
12,795.12,161.44,NA,1103.50,981.00
14,795.42,166.30,NA,1090.50,984.50
16,795.73,171.16,NA,1113.00,990.50
18,796.04,176.01,NA,1145.00,1002.50
20,796.35,180.86,NA,1146.00,1003.00
22,796.65,185.71,NA,1183.00,1023.50
24,796.96,190.56,NA,1150.00,1004.00
26,797.27,195.41,NA,1177.50,1023.50
28,797.58,200.25,NA,1193.00,1024.00
30,797.88,205.09,NA,1156.50,1004.00
32,798.19,209.93,NA,1181.50,1008.50
34,798.50,214.77,NA,1188.00,995.00
36,798.81,219.60,NA,1214.50,994.00
38,799.12,224.43,NA,1326.50,993.00
40,799.43,229.27,NA,1793.50,1025.00
42,799.74,234.09,NA,3610.50,1012.50
44,800.04,238.92,NA,6328.00,1051.00
46,800.35,243.75,NA,7576.50,1015.00
48,800.66,248.57,0.00,8156.50,1018.00
50,800.97,253.39,163.58,8777.00,1040.00
52,801.28,258.21,943.68,9260.00,1041.00
54,801.59,263.02,523.88,9166.00,1042.50
56,801.90,267.83,7.00,8668.00,1026.50
58,802.21,272.65,0.00,8496.00,1024.50
60,802.52,277.46,0.00,8576.50,1028.50
62,802.83,282.26,2.41,8862.50,1047.50
64,803.14,287.07,79.97,9075.00,1054.50
66,803.45,291.87,211.83,9298.00,1040.00
68,803.76,296.67,210.43,9449.00,1063.00
70,804.07,301.47,70.49,9416.50,1026.50
72,804.38,306.26,3.60,9445.00,1022.00
74,804.69,311.06,0.00,9517.50,1021.50
76,805.00,315.85,33.94,9753.50,1019.00
78,805.31,320.64,236.90,10091.50,1030.50
80,805.62,325.42,502.44,10496.00,1038.00
82,805.93,330.21,835.70,10927.00,1029.50
84,806.24,334.99,963.04,11109.00,1009.50
86,806.55,339.77,817.33,11186.00,1029.00
88,806.86,344.55,1031.19,11839.00,1040.00
90,807.17,349.32,2422.86,14034.50,1018.00
92,807.48,354.10,5939.68,17645.50,1027.50
94,807.80,358.87,7453.96,19020.00,1046.00
96,808.11,363.63,3838.38,16123.00,1032.50
98,808.42,368.40,1915.19,13845.50,1030.50
100,808.73,373.16,3172.27,14906.50,1013.00
102,809.04,377.93,4670.45,16004.00,1017.00
104,809.35,382.68,3200.22,14850.00,1020.00
106,809.66,387.44,1683.86,13308.50,1023.50
108,809.98,392.19,1621.40,13089.00,1009.50
110,810.29,396.95,2577.09,13828.00,1041.00
112,810.60,401.70,2416.05,13493.50,1020.00
114,810.91,406.44,611.85,11925.50,1026.50
116,811.22,411.19,11.30,10816.50,1028.50
118,811.54,415.93,0.00,10649.00,1030.50
120,811.85,420.67,119.21,10774.00,999.00
122,812.16,425.41,37.25,10738.00,1012.00
124,812.47,430.14,30.62,10777.00,1022.00
126,812.79,434.87,313.73,11114.00,1003.00
128,813.10,439.60,597.73,11360.50,1003.00
130,813.41,444.33,736.77,11544.00,1013.00
132,813.72,449.06,611.77,11429.00,1006.00
134,814.04,453.78,491.05,11353.00,1022.00
136,814.35,458.50,642.71,11632.50,997.50
138,814.66,463.22,1499.32,12936.00,990.50
140,814.98,467.93,3046.97,14969.00,1012.50
142,815.29,472.65,4620.96,16826.50,1016.00
144,815.60,477.36,4992.71,17096.50,1014.00
146,815.92,482.06,3295.28,15192.00,988.50
148,816.23,486.77,1312.93,12620.50,1030.50
150,816.54,491.47,538.03,11237.00,1051.00
152,816.86,496.17,174.53,10463.00,995.00
154,817.17,500.87,34.73,10215.00,1013.00
156,817.48,505.57,7.55,10057.50,1007.50
158,817.80,510.26,0.00,9911.50,996.00
160,818.11,514.95,0.00,9878.50,1028.00
162,818.42,519.64,0.00,9898.50,1027.50
164,818.74,524.32,0.00,9801.00,1014.50
166,819.05,529.00,0.00,9786.00,1025.00
168,819.37,533.68,0.00,9745.00,1009.50
170,819.68,538.36,0.00,9839.00,1024.50
172,819.99,543.04,47.09,10124.50,1044.00
174,820.31,547.71,497.90,10796.00,1008.50
176,820.62,552.38,1269.91,11610.50,1004.00
178,820.94,557.05,1264.72,11687.50,1007.50
180,821.25,561.71,677.79,11078.50,987.00
182,821.57,566.37,409.43,10658.50,998.00
184,821.88,571.03,381.59,10536.00,1008.50
186,822.20,575.69,138.44,10254.50,1014.50
188,822.51,580.34,40.72,10125.50,1009.50
190,822.83,584.99,55.86,10153.50,1010.50
192,823.14,589.64,123.65,10217.00,1002.00
194,823.46,594.29,219.88,10352.00,1001.00
196,823.77,598.93,243.07,10435.50,1008.00
198,824.09,603.57,387.17,10610.00,999.00
200,824.40,608.21,448.41,10694.50,1012.00
202,824.72,612.85,371.04,10639.50,1025.50
204,825.03,617.48,275.37,10542.50,1012.50
206,825.35,622.11,318.68,10684.00,1032.00
208,825.66,626.74,764.30,11265.50,1027.50
210,825.98,631.36,1164.52,11657.00,1001.00
212,826.29,635.99,904.85,11433.00,1018.00
214,826.61,640.61,509.44,10967.50,1012.50
216,826.92,645.22,418.05,10750.50,1006.50
218,827.24,649.84,499.09,10671.00,986.00
220,827.56,654.45,203.05,10417.50,1013.00
222,827.87,659.06,10.10,10093.00,1014.50
224,828.19,663.67,0.00,9966.50,1014.00
226,828.50,668.27,0.00,10024.00,1057.00
228,828.82,672.87,67.64,10115.50,1020.00
230,829.13,677.47,79.28,10102.50,1001.00
232,829.45,682.06,71.68,10117.00,1023.00
234,829.77,686.66,107.64,10280.50,1131.00
236,830.08,691.25,71.97,10128.00,1013.50
238,830.40,695.83,159.56,10257.50,1005.00
240,830.72,700.42,271.58,10390.50,1003.00
242,831.03,705.00,270.34,10336.50,974.00
244,831.35,709.58,217.92,10315.50,1007.50
246,831.66,714.15,103.01,10133.50,984.00
248,831.98,718.73,81.07,10095.00,1010.50
250,832.30,723.30,18.38,9969.50,984.50
252,832.61,727.87,26.19,10014.50,1023.50
254,832.93,732.43,0.00,9867.50,976.50
256,833.25,736.99,0.00,9915.00,1015.50
258,833.56,741.55,0.00,9939.00,1009.50
260,833.88,746.11,3.31,9962.00,1004.50
262,834.20,750.66,21.65,9997.50,1005.50
264,834.51,755.22,79.30,10082.50,1017.00
266,834.83,759.76,79.45,10096.50,1011.50
268,835.15,764.31,147.74,10256.50,1020.00
270,835.47,768.85,324.83,10517.00,988.50
272,835.78,773.39,648.96,10998.00,1004.50
274,836.10,777.93,882.19,11266.50,1001.00
276,836.42,782.46,839.70,11232.00,1010.50
278,836.73,787.00,506.99,10797.50,1004.00
280,837.05,791.52,226.60,10338.50,989.00
282,837.37,796.05,123.17,10143.50,1020.00
284,837.69,800.57,21.93,10012.50,989.50
286,838.00,805.09,0.00,9859.00,994.50
288,838.32,809.61,0.00,9792.50,1004.00
290,838.64,814.13,0.00,9855.50,1024.00
292,838.95,818.64,0.00,9870.50,996.00
294,839.27,823.15,0.00,9821.00,999.00
296,839.59,827.65,0.00,9899.00,1006.00
298,839.91,832.15,0.00,9965.50,994.00
300,840.22,836.65,15.49,10338.50,1036.00
302,840.54,841.15,303.34,11148.00,989.50
304,840.86,845.65,1645.55,13396.50,1021.00
306,841.18,850.14,4126.86,15916.50,1010.50
308,841.50,854.63,3314.35,15411.00,1069.50
310,841.81,859.11,1041.04,12727.00,1000.00
312,842.13,863.60,419.22,11601.50,1018.00
314,842.45,868.07,749.47,12207.50,988.50
316,842.77,872.55,2287.89,14212.50,1011.50
318,843.08,877.03,3679.26,15464.50,1034.00
320,843.40,881.50,1777.46,13712.00,983.00
322,843.72,885.97,304.64,11624.50,1017.00
324,844.04,890.43,99.69,11024.50,990.50
326,844.36,894.89,449.41,11606.00,997.00
328,844.67,899.35,1397.00,12525.00,1011.50
330,844.99,903.81,1043.14,12399.50,977.00
332,845.31,908.26,683.33,12213.00,1028.50
334,845.63,912.71,1596.10,13248.50,1013.00
336,845.95,917.16,2370.60,13725.00,1015.00
338,846.27,921.61,738.99,12533.00,1300.50
340,846.58,926.05,15.80,10966.00,1005.50
342,846.90,930.49,0.00,10556.50,1003.50
344,847.22,934.92,0.00,10427.00,1002.50
346,847.54,939.36,0.00,10554.00,978.00
348,847.86,943.79,39.24,11012.50,988.00
350,848.18,948.21,670.15,11954.00,987.50
352,848.49,952.64,1678.84,12837.50,998.00
354,848.81,957.06,972.39,12307.50,974.00
356,849.13,961.48,62.82,11307.00,1032.00
358,849.45,965.89,0.00,10812.00,1027.00
360,849.77,970.31,0.00,10670.00,999.00
362,850.09,974.71,0.00,10655.50,1005.00
364,850.40,979.12,0.00,10840.50,1035.50
366,850.72,983.52,0.00,11093.00,1037.00
368,851.04,987.92,7.32,11417.50,983.00
370,851.36,992.32,0.00,11606.50,986.00
372,851.68,996.72,8.52,11996.00,1005.00
374,852.00,1001.11,419.49,12752.50,985.00
376,852.32,1005.50,863.89,13376.00,977.00
378,852.63,1009.88,369.44,13344.00,1026.00
380,852.95,1014.26,731.86,14260.00,1014.50
382,853.27,1018.64,2194.42,15916.00,1017.00
384,853.59,1023.02,1883.31,15949.00,1000.00
386,853.91,1027.39,1055.10,15301.00,983.00
388,854.23,1031.76,1234.24,15670.00,993.50
390,854.55,1036.13,1743.55,16358.00,996.00
392,854.87,1040.49,1939.21,16821.50,985.50
394,855.18,1044.86,1533.19,16784.50,1012.00
396,855.50,1049.21,1697.59,17134.50,999.00
398,855.82,1053.57,2483.06,17779.50,1014.00
400,856.14,1057.92,1389.50,16812.50,991.50
402,856.46,1062.27,114.16,15422.50,999.00
404,856.78,1066.62,0.42,14855.50,983.00
406,857.10,1070.96,14.22,15266.50,990.50
408,857.42,1075.30,472.80,16884.00,1022.00
410,857.74,1079.64,2562.16,20516.00,1002.00
412,858.06,1083.97,7046.68,25938.00,990.50
414,858.37,1088.30,8335.07,27562.00,991.50
416,858.69,1092.63,4978.00,24310.00,981.00
418,859.01,1096.95,2630.65,20869.50,967.00
420,859.33,1101.27,1811.75,19278.50,999.00
422,859.65,1105.59,1312.52,18562.00,997.00
424,859.97,1109.91,1253.45,18765.50,985.00
426,860.29,1114.22,2380.29,20530.50,996.00
428,860.61,1118.53,4156.12,22580.50,987.00
430,860.93,1122.84,3865.52,22754.00,994.50
432,861.25,1127.14,2901.18,22048.50,1025.50
434,861.56,1131.44,3330.67,22649.50,988.00
436,861.88,1135.74,4036.00,23506.50,995.00
438,862.20,1140.03,4329.79,23732.50,1004.50
440,862.52,1144.32,3844.39,22986.50,999.00
442,862.84,1148.61,1656.02,20459.50,1022.50
444,863.16,1152.89,379.29,18462.50,996.00
446,863.48,1157.17,66.65,17831.50,997.00
448,863.80,1161.45,20.93,17684.50,1003.50
450,864.12,1165.73,214.53,17926.50,1003.00
452,864.44,1170.00,120.31,17936.50,1004.50
454,864.76,1174.27,0.07,17760.00,1002.00
456,865.07,1178.53,0.00,17576.00,983.00
458,865.39,1182.80,0.00,17697.00,998.00
460,865.71,1187.06,0.00,17765.00,999.00
462,866.03,1191.31,0.00,17974.00,1004.00
464,866.35,1195.57,0.00,18253.00,998.50
466,866.67,1199.82,0.00,18590.00,1003.00
468,866.99,1204.06,0.00,18949.50,1001.00
470,867.31,1208.31,0.00,19070.00,1020.50
472,867.63,1212.55,0.62,19564.50,1012.50
474,867.95,1216.79,157.24,20111.50,972.50
476,868.27,1221.02,461.13,20628.50,999.00
478,868.58,1225.25,39.14,20660.00,972.50
480,868.90,1229.48,0.00,20697.00,1014.00
482,869.22,1233.71,0.00,20971.50,1020.00
484,869.54,1237.93,3.44,21545.50,1025.00
486,869.86,1242.15,283.34,22469.50,1006.50
488,870.18,1246.36,1060.58,23568.00,979.00
490,870.50,1250.58,1454.72,24702.00,1010.00
492,870.82,1254.79,2438.01,26603.00,1038.00
494,871.14,1258.99,4007.87,28766.50,1008.50
496,871.46,1263.20,4845.56,30069.00,1018.00
498,871.78,1267.40,4094.13,29608.50,994.00
500,872.10,1271.59,3555.46,29182.50,988.50
502,872.41,1275.79,3399.28,29048.50,990.50
504,872.73,1279.98,3504.80,29360.00,1005.00
506,873.05,1284.17,3635.51,29733.00,1007.50
508,873.37,1288.35,3734.00,30100.50,961.00
510,873.69,1292.53,3979.54,30718.00,987.00
512,874.01,1296.71,4420.38,31483.00,992.00
514,874.33,1300.88,4540.21,31910.50,972.50
516,874.65,1305.06,4701.85,32498.00,993.00
518,874.97,1309.22,4888.07,33070.50,987.50
520,875.29,1313.39,5355.03,34177.00,1008.50
522,875.60,1317.55,6384.59,36101.00,1002.00
524,875.92,1321.71,8248.87,38918.50,996.00
526,876.24,1325.87,10206.84,41736.50,1022.00
528,876.56,1330.02,10825.49,43019.00,988.50
530,876.88,1334.17,10916.46,43659.50,1016.50
532,877.20,1338.32,10829.19,43844.50,985.00
534,877.52,1342.46,10883.65,44069.50,968.00
536,877.84,1346.60,11227.53,44492.50,1003.00
538,878.16,1350.73,10877.46,44197.50,1002.50
540,878.47,1354.87,10135.91,43418.50,986.50
542,878.79,1359.00,9849.87,43023.00,989.00
544,879.11,1363.13,9386.03,42523.50,991.50
546,879.43,1367.25,8882.99,41999.50,990.50
548,879.75,1371.37,8841.17,41999.00,990.50
550,880.07,1375.49,8753.93,41922.50,988.50
552,880.39,1379.60,8558.53,41685.50,1001.50
554,880.71,1383.71,8092.88,41201.00,1000.00
556,881.03,1387.82,7340.30,40331.50,982.00
558,881.34,1391.93,6940.69,39822.00,969.50
560,881.66,1396.03,6608.48,39442.50,991.00
562,881.98,1400.13,6196.65,39058.00,1004.50
564,882.30,1404.22,5865.00,38778.00,1001.50
566,882.62,1408.31,5944.76,38950.50,996.00
568,882.94,1412.40,6245.75,39292.50,1006.00
570,883.26,1416.49,5954.44,38976.50,989.50
572,883.57,1420.57,5117.97,38125.00,1016.00
574,883.89,1424.65,4300.09,37090.00,982.00
576,884.21,1428.73,3718.09,36397.00,1015.00
578,884.53,1432.80,3381.44,35994.00,1023.00
580,884.85,1436.87,3170.13,35752.50,991.50
582,885.17,1440.93,2909.08,35560.50,966.50
584,885.49,1445.00,2725.73,35542.00,979.00
586,885.80,1449.06,3079.03,36032.00,977.50
588,886.12,1453.11,3343.58,36337.50,1020.00
590,886.44,1457.17,2807.38,35980.50,1006.50
592,886.76,1461.22,2034.46,35365.00,996.00
594,887.08,1465.26,2215.31,35555.00,1007.50
596,887.40,1469.31,2962.40,36108.50,978.50
598,887.71,1473.35,2052.45,35306.50,984.00
600,888.03,1477.38,847.74,34112.50,1003.50
602,888.35,1481.42,368.13,33457.50,1018.00
604,888.67,1485.45,399.56,33412.00,1004.00
606,888.99,1489.48,264.46,33162.50,992.00
608,889.31,1493.50,203.90,33028.50,1009.00
610,889.62,1497.52,210.48,32920.50,1001.50
612,889.94,1501.54,157.80,32677.50,978.00
614,890.26,1505.56,53.35,32489.50,989.50
616,890.58,1509.57,19.92,32299.50,994.00
618,890.90,1513.57,138.08,32298.00,984.00
620,891.21,1517.58,116.18,32125.50,989.50
622,891.53,1521.58,314.41,32282.50,1000.00
624,891.85,1525.58,396.62,32209.50,988.50
626,892.17,1529.57,396.83,32111.00,1003.00
628,892.49,1533.57,344.35,31930.50,1006.50
630,892.80,1537.56,362.38,31726.00,985.50
632,893.12,1541.54,355.44,31569.00,981.00
634,893.44,1545.52,114.60,31202.00,999.00
636,893.76,1549.50,56.45,30949.00,982.00
638,894.07,1553.48,48.55,30789.50,1006.50
640,894.39,1557.45,87.48,30645.00,977.00
642,894.71,1561.42,122.08,30566.00,1011.50
644,895.03,1565.39,191.22,30462.00,970.50
646,895.34,1569.35,252.55,30413.50,1009.00
648,895.66,1573.31,256.10,30250.50,979.00
650,895.98,1577.26,203.28,30051.50,990.50
652,896.30,1581.22,145.30,29794.50,978.00
654,896.61,1585.17,165.86,29668.50,989.50
656,896.93,1589.11,181.56,29548.00,1008.50
658,897.25,1593.06,109.11,29292.00,981.00
660,897.57,1597.00,127.63,29190.00,991.50
662,897.88,1600.93,149.89,29055.00,998.00
664,898.20,1604.87,201.21,28927.00,998.00
666,898.52,1608.80,346.93,28909.00,983.00
668,898.84,1612.72,398.96,28821.50,973.50
670,899.15,1616.65,486.96,28806.50,1003.00
672,899.47,1620.57,601.82,28734.00,975.50
674,899.79,1624.49,625.17,28605.50,990.50
676,900.10,1628.40,602.86,28391.50,987.00
678,900.42,1632.31,527.67,28167.50,1009.50
680,900.74,1636.22,509.32,27932.50,968.00
682,901.05,1640.12,442.35,27749.00,1026.50
684,901.37,1644.02,471.64,27568.00,986.50
686,901.69,1647.92,631.13,27584.00,1008.50
688,902.00,1651.82,753.82,27546.00,988.50
690,902.32,1655.71,764.43,27399.00,979.00
692,902.64,1659.60,738.11,27206.00,977.00
694,902.95,1663.48,748.50,27043.00,997.50
696,903.27,1667.36,715.36,26803.00,982.50
698,903.59,1671.24,600.66,26526.00,1009.50
700,903.90,1675.11,551.36,26287.00,1004.50
702,904.22,1678.99,445.88,25939.00,970.00
704,904.54,1682.85,426.55,25804.00,1038.00
706,904.85,1686.72,376.92,25529.00,980.00
708,905.17,1690.58,404.98,25425.50,997.00
710,905.49,1694.44,494.12,25312.50,989.50
712,905.80,1698.29,657.88,25322.00,987.50
714,906.12,1702.15,467.32,24975.50,996.00
716,906.43,1706.00,518.36,24863.00,1003.00
718,906.75,1709.84,475.10,24602.00,1001.00
720,907.07,1713.68,347.30,24288.00,987.50
722,907.38,1717.52,185.01,23950.00,997.00
724,907.70,1721.36,151.65,23709.00,991.50
726,908.01,1725.19,168.61,23540.00,998.50
728,908.33,1729.02,70.51,23291.50,1007.50
730,908.65,1732.85,117.95,23190.00,992.50
732,908.96,1736.67,19.72,22852.00,999.00
734,909.28,1740.49,189.46,22866.00,980.50
736,909.59,1744.30,205.04,22703.00,1008.50
738,909.91,1748.12,245.39,22578.50,989.50
740,910.22,1751.93,95.05,22232.00,1004.00
742,910.54,1755.73,160.95,22167.50,1049.50
744,910.85,1759.54,17.03,21806.00,1007.00
746,911.17,1763.34,0.00,21560.00,987.00
748,911.49,1767.13,0.00,21327.50,1001.00
750,911.80,1770.93,0.00,21191.50,968.00
752,912.12,1774.72,0.00,21027.50,1008.50
754,912.43,1778.50,17.08,20964.00,971.50
756,912.75,1782.29,87.65,20926.00,982.00
758,913.06,1786.07,222.95,20906.00,983.00
760,913.38,1789.84,158.13,20721.50,990.50
762,913.69,1793.62,273.67,20713.50,1005.50
764,914.01,1797.39,162.83,20439.00,991.50
766,914.32,1801.15,179.56,20304.50,975.50
768,914.64,1804.92,194.23,20175.00,991.50
770,914.95,1808.68,33.87,19888.00,997.00
772,915.26,1812.44,18.24,19735.50,1002.00
774,915.58,1816.19,67.29,19605.50,974.00
776,915.89,1819.94,219.25,19592.00,993.00
778,916.21,1823.69,231.78,19482.50,1002.50
780,916.52,1827.43,466.56,19599.00,1024.50
782,916.84,1831.17,483.60,19352.00,962.00
784,917.15,1834.91,583.27,19322.50,975.50
786,917.47,1838.64,606.77,19225.00,993.50
788,917.78,1842.38,638.36,19097.00,989.50
790,918.09,1846.10,708.24,18973.50,982.00
792,918.41,1849.83,742.50,18841.50,992.00
794,918.72,1853.55,664.51,18584.50,960.00
796,919.04,1857.27,657.94,18446.50,999.00
798,919.35,1860.98,762.42,18367.00,982.00
800,919.66,1864.69,745.55,18213.00,984.00
802,919.98,1868.40,869.56,18197.00,998.00
804,920.29,1872.11,1070.49,18170.50,977.00
806,920.60,1875.81,1128.77,18072.00,973.00
808,920.92,1879.51,937.12,17772.00,979.00
810,921.23,1883.20,971.16,17655.00,1002.00
812,921.55,1886.90,1080.87,17539.00,980.00
814,921.86,1890.58,1169.14,17486.50,1004.00
816,922.17,1894.27,1089.12,17254.50,1006.00
818,922.49,1897.95,931.86,16929.00,998.00
820,922.80,1901.63,916.14,16729.50,984.50
822,923.11,1905.31,889.16,16518.50,986.00
824,923.42,1908.98,876.11,16343.50,993.50
826,923.74,1912.65,930.65,16247.50,999.00
828,924.05,1916.31,867.46,16015.50,988.50
830,924.36,1919.98,869.92,15869.50,990.50
832,924.68,1923.64,974.21,15771.50,973.50
834,924.99,1927.29,1044.94,15681.00,982.00
836,925.30,1930.94,956.25,15431.50,965.00
838,925.61,1934.59,894.22,15226.00,993.00
840,925.93,1938.24,844.86,14986.00,980.00
842,926.24,1941.88,722.07,14713.00,987.50
844,926.55,1945.52,655.24,14492.50,979.50
846,926.86,1949.16,540.62,14225.50,997.00
848,927.18,1952.79,569.73,14071.50,983.50
850,927.49,1956.42,578.23,13894.00,973.00
852,927.80,1960.05,520.62,13719.50,1013.50
854,928.11,1963.67,525.07,13572.50,992.00
856,928.42,1967.29,454.21,13347.50,1003.50
858,928.74,1970.91,469.21,13177.50,990.50
860,929.05,1974.52,465.03,13018.00,990.50
862,929.36,1978.13,360.28,12741.00,976.50
864,929.67,1981.74,312.14,12531.00,984.00
866,929.98,1985.35,226.60,12303.50,985.00
868,930.29,1988.95,40.51,12012.50,996.00
870,930.61,1992.54,2.40,11758.50,978.00
872,930.92,1996.14,7.82,11626.50,990.50
874,931.23,1999.73,10.82,11471.00,1002.00
876,931.54,2003.32,69.93,11347.00,991.00
878,931.85,2006.90,45.22,11153.50,982.00
880,932.16,2010.48,39.54,11011.50,987.50
882,932.47,2014.06,4.68,10800.50,982.00
884,932.78,2017.63,126.06,10777.00,995.50
886,933.09,2021.21,49.76,10531.00,986.00
888,933.41,2024.77,78.10,10403.00,996.00
890,933.72,2028.34,49.36,10290.50,1009.50
892,934.03,2031.90,0.00,10021.50,1000.00
894,934.34,2035.46,0.00,9816.50,992.50
896,934.65,2039.01,0.00,9621.00,979.00
898,934.96,2042.57,0.00,9594.00,993.50
900,935.27,2046.11,0.00,9445.50,1015.50
902,935.58,2049.66,0.00,9323.50,957.00
904,935.89,2053.20,0.00,9228.50,992.00
906,936.20,2056.74,0.00,9133.00,990.50
908,936.51,2060.28,26.74,9068.50,996.00
910,936.82,2063.81,0.00,8941.50,1005.50
912,937.13,2067.34,2.29,8827.00,985.00
914,937.44,2070.86,67.81,8771.50,986.00
916,937.75,2074.39,34.50,8647.00,978.00
918,938.06,2077.91,0.00,8495.00,975.50
920,938.37,2081.42,0.00,8358.50,984.00
922,938.68,2084.94,0.00,8289.00,982.00
924,938.99,2088.45,0.00,8185.00,992.00
926,939.30,2091.95,0.00,8125.00,999.00
928,939.60,2095.46,0.00,7986.50,979.00
930,939.91,2098.96,0.00,7958.50,1010.50
932,940.22,2102.45,0.77,7906.50,986.50
934,940.53,2105.95,0.00,7817.00,974.00
936,940.84,2109.44,59.37,7815.00,979.00
938,941.15,2112.92,0.00,7702.50,994.00
940,941.46,2116.41,25.86,7641.00,979.00
942,941.77,2119.89,17.81,7594.00,1001.00
944,942.07,2123.37,0.00,7466.00,986.50
946,942.38,2126.84,13.77,7446.00,994.00
948,942.69,2130.31,13.46,7380.50,993.00
950,943.00,2133.78,0.00,7276.50,977.50
952,943.31,2137.24,0.00,7202.50,990.50
954,943.62,2140.70,9.02,7191.00,990.50
956,943.92,2144.16,0.00,7052.50,992.00
958,944.23,2147.62,51.28,7141.50,987.50
960,944.54,2151.07,33.34,7091.00,1013.50
962,944.85,2154.52,72.78,7082.50,1016.00
964,945.16,2157.96,43.65,7002.00,1003.00
966,945.46,2161.40,57.33,6950.00,995.00
968,945.77,2164.84,55.26,6885.00,965.00
970,946.08,2168.28,0.00,6792.00,980.00
972,946.39,2171.71,6.70,6757.00,969.50
974,946.69,2175.14,10.77,6724.00,980.00
976,947.00,2178.57,4.03,6676.50,982.00
978,947.31,2181.99,12.28,6635.50,972.00
980,947.61,2185.41,0.00,6595.00,988.50
982,947.92,2188.82,11.91,6583.00,993.50
984,948.23,2192.24,1.56,6510.00,967.00
986,948.53,2195.65,14.47,6517.00,988.00
988,948.84,2199.05,75.15,6488.50,956.50
990,949.15,2202.46,4.84,6431.50,986.00
992,949.45,2205.86,56.66,6447.50,988.00
994,949.76,2209.25,117.83,6427.50,967.00
996,950.07,2212.65,48.66,6371.50,978.00
998,950.37,2216.04,41.14,6326.00,963.00
1000,950.68,2219.43,76.32,6329.50,979.00
1002,950.98,2222.81,43.36,6283.50,1004.00
1004,951.29,2226.19,92.12,6259.50,972.50
1006,951.60,2229.57,68.71,6205.50,967.00
1008,951.90,2232.94,103.14,6203.00,970.50
1010,952.21,2236.32,74.17,6149.50,971.50
1012,952.51,2239.68,81.42,6149.00,987.50
1014,952.82,2243.05,28.36,6035.50,961.00
1016,953.12,2246.41,109.34,6111.50,1008.50
1018,953.43,2249.77,68.74,6080.00,1035.50
1020,953.73,2253.12,69.47,6017.00,999.00
1022,954.04,2256.48,84.70,5959.50,961.00
1024,954.34,2259.83,79.78,5947.50,995.50
1026,954.65,2263.17,125.95,5935.00,977.00
1028,954.95,2266.51,86.93,5902.00,992.00
1030,955.26,2269.85,44.05,5838.50,1006.50
1032,955.56,2273.19,45.05,5791.00,997.00
1034,955.87,2276.52,28.43,5755.50,996.00
1036,956.17,2279.85,0.00,5704.00,1014.00
1038,956.48,2283.18,24.18,5661.50,962.00
1040,956.78,2286.50,36.96,5644.50,975.00
1042,957.08,2289.82,48.62,5622.50,965.00
1044,957.39,2293.14,83.76,5638.00,986.50
1046,957.69,2296.45,102.24,5594.50,970.50
1048,957.99,2299.76,108.99,5620.00,1009.50
1050,958.30,2303.07,54.08,5532.50,986.50
1052,958.60,2306.38,77.53,5515.00,982.00
1054,958.91,2309.68,104.27,5495.50,980.00
1056,959.21,2312.98,86.89,5449.00,970.50
1058,959.51,2316.27,18.56,5384.00,978.00
1060,959.82,2319.56,22.72,5396.50,1011.50
1062,960.12,2322.85,0.00,5285.00,974.50
1064,960.42,2326.14,25.94,5299.00,970.50
1066,960.72,2329.42,81.06,5333.50,988.50
1068,961.03,2332.70,44.11,5286.50,992.50
1070,961.33,2335.97,30.23,5252.00,989.00
1072,961.63,2339.25,47.11,5235.50,983.00
1074,961.93,2342.52,87.11,5227.00,981.00
1076,962.24,2345.78,93.28,5214.50,989.50
1078,962.54,2349.05,12.53,5133.50,983.00
1080,962.84,2352.31,4.32,5109.00,988.50
1082,963.14,2355.56,28.11,5090.50,974.50
1084,963.45,2358.82,67.52,5090.00,978.00
1086,963.75,2362.07,71.67,5085.00,998.00
1088,964.05,2365.32,46.48,5073.00,1015.00
1090,964.35,2368.56,15.29,5003.00,985.00
1092,964.65,2371.80,8.83,4987.00,994.00
1094,964.95,2375.04,20.59,4971.50,984.00
1096,965.25,2378.27,60.19,4953.50,970.50
1098,965.56,2381.51,113.64,4968.50,981.00
1100,965.86,2384.73,84.75,4944.50,989.50
1102,966.16,2387.96,154.39,4963.50,977.00
1104,966.46,2391.18,110.29,4952.00,1005.00
1106,966.76,2394.40,90.10,4886.00,980.00
1108,967.06,2397.62,150.28,4926.00,1007.00
1110,967.36,2400.83,74.75,4826.00,972.50
1112,967.66,2404.04,65.40,4836.50,1012.50
1114,967.96,2407.25,16.25,4739.00,965.00
1116,968.26,2410.45,22.80,4743.50,979.00
1118,968.56,2413.65,6.25,4710.50,982.00
1120,968.86,2416.85,13.27,4729.50,1017.00
1122,969.16,2420.04,9.91,4672.50,978.00
1124,969.46,2423.23,2.30,4643.50,976.00
1126,969.76,2426.42,61.28,4678.50,987.00
1128,970.06,2429.60,6.42,4598.50,967.00
1130,970.36,2432.79,86.74,4660.50,980.00
1132,970.66,2435.96,134.73,4655.50,984.00
1134,970.96,2439.14,170.59,4653.50,988.50
1136,971.26,2442.31,149.41,4631.50,995.50
1138,971.56,2445.48,128.23,4603.50,991.50
1140,971.86,2448.65,106.90,4554.00,974.50
1142,972.16,2451.81,36.78,4505.50,995.50
1144,972.45,2454.97,43.95,4496.00,988.50
1146,972.75,2458.13,0.00,4424.00,985.00
1148,973.05,2461.28,11.26,4422.00,973.50
1150,973.35,2464.43,10.14,4417.00,995.00
1152,973.65,2467.58,106.36,4427.50,977.00
1154,973.95,2470.72,61.31,4397.00,974.50
1156,974.24,2473.86,25.69,4365.00,977.50
1158,974.54,2477.00,77.18,4375.50,970.00
1160,974.84,2480.13,93.90,4380.00,995.00
1162,975.14,2483.27,122.81,4367.00,982.00
1164,975.43,2486.40,97.03,4325.00,967.00
1166,975.73,2489.52,121.75,4337.50,981.00
1168,976.03,2492.64,91.60,4301.50,982.00
1170,976.33,2495.76,103.60,4290.00,988.50
1172,976.62,2498.88,121.32,4297.50,979.50
1174,976.92,2501.99,9.58,4228.00,996.00
1176,977.22,2505.10,6.43,4200.00,991.50
1178,977.51,2508.21,83.39,4211.00,984.00
1180,977.81,2511.31,81.76,4186.50,976.00
1182,978.11,2514.41,2.88,4131.50,978.00
1184,978.40,2517.51,7.98,4130.50,986.50
1186,978.70,2520.61,64.91,4138.00,983.00
1188,979.00,2523.70,109.36,4143.50,995.00
1190,979.29,2526.79,59.05,4103.00,985.00
1192,979.59,2529.87,39.48,4073.50,981.00
1194,979.88,2532.95,62.26,4056.00,972.50
1196,980.18,2536.03,94.29,4071.00,994.00
1198,980.48,2539.11,106.45,4081.00,1007.50
1200,980.77,2542.18,28.62,4011.00,990.50
1202,981.07,2545.25,0.00,3976.50,1008.50
1204,981.36,2548.32,18.89,3963.00,986.50
1206,981.66,2551.38,6.89,3954.50,999.00
1208,981.95,2554.44,48.95,3950.00,984.00
1210,982.25,2557.50,0.00,3924.50,1015.50
1212,982.54,2560.56,33.26,3949.50,1013.50
1214,982.84,2563.61,36.49,3934.00,1013.00
1216,983.13,2566.66,135.84,3947.50,1005.00
1218,983.43,2569.70,111.43,3922.50,1004.50
1220,983.72,2572.74,39.87,3879.50,998.00
1222,984.01,2575.78,48.19,3870.50,994.00
1224,984.31,2578.82,100.07,3866.00,977.00
1226,984.60,2581.85,155.42,3891.00,997.00
1228,984.90,2584.88,180.87,3867.00,977.00
1230,985.19,2587.91,141.77,3854.50,989.50
1232,985.48,2590.93,194.79,3876.00,1001.00
1234,985.78,2593.96,274.02,3883.00,1001.00
1236,986.07,2596.97,202.97,3838.00,1000.00
1238,986.36,2599.99,68.82,3786.50,1014.50
1240,986.66,2603.00,38.55,3760.00,1012.50
1242,986.95,2606.01,0.00,3707.00,1001.00
1244,987.24,2609.01,3.41,3703.50,1007.50
1246,987.54,2612.02,25.24,3656.00,960.00
1248,987.83,2615.02,0.00,3659.00,1003.00
1250,988.12,2618.01,0.00,3659.50,1004.00
1252,988.41,2621.01,0.00,3638.50,1005.00
1254,988.71,2624.00,0.39,3631.50,993.50
1256,989.00,2626.99,2.07,3639.00,1002.00
1258,989.29,2629.97,21.40,3637.00,994.00
1260,989.58,2632.95,193.41,3699.00,996.00
1262,989.87,2635.93,87.39,3641.00,1003.50
1264,990.16,2638.91,223.46,3680.50,985.00
1266,990.46,2641.88,434.21,3751.00,1004.50
1268,990.75,2644.85,396.47,3746.00,1026.50
1270,991.04,2647.81,264.31,3680.50,998.00
1272,991.33,2650.78,174.08,3644.50,1000.00
1274,991.62,2653.74,204.24,3637.00,991.00
1276,991.91,2656.70,307.59,3658.00,993.50
1278,992.20,2659.65,324.90,3644.50,1000.00
1280,992.49,2662.60,504.90,3692.50,987.00
1282,992.78,2665.55,418.16,3685.50,1023.00
1284,993.07,2668.50,438.46,3682.50,1017.00
1286,993.36,2671.44,419.82,3675.00,1019.00
1288,993.65,2674.38,329.12,3629.00,1022.00
1290,993.94,2677.31,364.20,3618.00,1015.00
1292,994.23,2680.25,429.54,3603.00,994.00
1294,994.52,2683.18,410.46,3587.50,1005.00
1296,994.81,2686.10,423.37,3565.00,996.00
1298,995.10,2689.03,379.43,3544.00,998.00
1300,995.39,2691.95,141.76,3447.00,992.50
1302,995.68,2694.87,30.16,3424.50,1026.50
1304,995.97,2697.78,0.10,3379.50,1018.00
1306,996.26,2700.70,0.00,3319.00,980.00
1308,996.55,2703.61,0.00,3321.00,997.00
1310,996.84,2706.51,0.00,3332.50,1013.00
1312,997.13,2709.42,5.86,3334.50,1001.50
1314,997.41,2712.32,22.10,3354.50,1015.00
1316,997.70,2715.21,102.45,3343.50,987.50
1318,997.99,2718.11,206.16,3364.50,997.00
1320,998.28,2721.00,223.18,3357.50,982.00
1322,998.57,2723.89,121.18,3361.50,1019.00
1324,998.86,2726.77,151.89,3336.00,985.00
1326,999.14,2729.66,237.84,3357.00,990.50
1328,999.43,2732.54,424.60,3399.00,994.00
1330,999.72,2735.41,522.11,3416.50,998.00
1332,1000.01,2738.29,291.47,3364.50,1018.00
1334,1000.29,2741.16,67.64,3271.50,1003.50
1336,1000.58,2744.03,53.68,3259.00,984.00
1338,1000.87,2746.89,12.04,3259.00,1020.00
1340,1001.15,2749.75,0.00,3213.50,1004.00
1342,1001.44,2752.61,0.00,3198.50,998.00
1344,1001.73,2755.47,0.00,3173.00,989.50
1346,1002.01,2758.32,76.47,3209.50,994.00
1348,1002.30,2761.17,76.12,3239.00,1017.00
1350,1002.59,2764.02,0.00,3190.50,1020.00
1352,1002.87,2766.86,0.00,3183.00,1003.00
1354,1003.16,2769.70,0.00,3167.00,994.50
1356,1003.44,2772.54,0.00,3156.50,985.00
1358,1003.73,2775.38,14.68,3191.00,1006.50
1360,1004.01,2778.21,0.00,3124.00,981.00
1362,1004.30,2781.04,32.14,3191.00,994.00
1364,1004.58,2783.87,80.72,3209.00,993.50
1366,1004.87,2786.69,86.30,3179.00,974.00
1368,1005.15,2789.51,427.25,3303.50,1002.00
1370,1005.44,2792.33,406.68,3306.50,1014.00
1372,1005.72,2795.14,306.61,3290.00,1017.00
1374,1006.01,2797.95,363.33,3308.50,1013.50
1376,1006.29,2800.76,359.43,3286.50,994.00
1378,1006.58,2803.57,366.03,3331.00,1031.50
1380,1006.86,2806.37,259.68,3263.00,997.00
1382,1007.14,2809.17,257.24,3261.00,1002.00
1384,1007.43,2811.97,311.29,3239.50,974.50
1386,1007.71,2814.77,247.43,3222.00,976.00
1388,1008.00,2817.56,91.63,3195.50,988.50
1390,1008.28,2820.35,36.44,3207.00,1010.00
1392,1008.56,2823.13,0.00,3166.00,994.00
1394,1008.85,2825.91,0.00,3139.50,1003.50
1396,1009.13,2828.69,0.00,3148.50,999.00
1398,1009.41,2831.47,0.00,3193.50,1009.00
1400,1009.69,2834.24,0.00,3170.00,981.00
1402,1009.98,2837.02,0.00,3182.50,997.00
1404,1010.26,2839.78,0.00,3217.50,1011.00
1406,1010.54,2842.55,0.00,3229.50,999.00
1408,1010.82,2845.31,0.00,3248.50,1002.00
1410,1011.11,2848.07,0.00,3306.50,1002.00
1412,1011.39,2850.83,0.00,3367.50,1013.00
1414,1011.67,2853.58,0.00,3422.50,998.00
1416,1011.95,2856.33,0.00,3505.00,997.00
1418,1012.23,2859.08,0.00,3617.00,989.50
1420,1012.51,2861.83,2.52,3752.00,993.00
1422,1012.80,2864.57,75.48,3950.00,1038.00
1424,1013.08,2867.31,621.96,4198.00,1020.00
1426,1013.36,2870.04,1782.01,4495.00,1011.50
1428,1013.64,2872.78,3338.07,4910.00,1013.50
1430,1013.92,2875.51,5421.12,5543.00,1033.00
1432,1014.20,2878.24,8290.33,6319.50,1007.00
1434,1014.48,2880.96,13094.32,7430.00,987.50
1436,1014.76,2883.68,19726.90,8687.50,983.00
1438,1015.04,2886.40,24957.84,9528.50,988.00
1440,1015.32,2889.12,25135.35,9610.00,1023.00
1442,1015.60,2891.83,20554.05,8852.00,989.50
1444,1015.88,2894.54,15847.45,7995.50,1018.00
1446,1016.16,2897.25,13078.72,7206.00,986.00
1448,1016.44,2899.96,12992.21,6948.50,1010.00
1450,1016.72,2902.66,12732.46,6695.50,1010.50
1452,1017.00,2905.36,10683.27,6280.50,1021.00
1454,1017.28,2908.06,8448.85,5824.00,987.50
1456,1017.55,2910.75,8341.35,5808.00,1025.50
1458,1017.83,2913.44,10301.19,6009.00,995.00
1460,1018.11,2916.13,12865.80,6281.50,1005.00
1462,1018.39,2918.81,12917.16,6205.00,1005.50
1464,1018.67,2921.49,10506.31,5851.50,1004.50
1466,1018.95,2924.17,7767.11,5374.00,1003.50
1468,1019.22,2926.85,6867.24,5144.50,1011.00
1470,1019.50,2929.52,7657.10,5133.50,984.00
1472,1019.78,2932.20,8633.95,5168.00,985.00
1474,1020.06,2934.86,8459.55,5113.00,1003.00
1476,1020.33,2937.53,7345.17,4989.50,1031.00
1478,1020.61,2940.19,6272.21,4743.50,1000.00
1480,1020.89,2942.85,6901.85,4736.00,1015.00
1482,1021.17,2945.51,8500.53,4752.50,998.00
1484,1021.44,2948.16,7890.90,4591.00,1006.50
1486,1021.72,2950.81,3384.55,4028.00,999.00
1488,1022.00,2953.46,493.07,3498.00,1014.50
1490,1022.27,2956.11,14.68,3143.50,990.50
1492,1022.55,2958.75,0.03,3017.00,1011.50
1494,1022.82,2961.39,0.00,2897.50,996.00
1496,1023.10,2964.03,0.00,2906.50,1024.00
1498,1023.38,2966.66,17.56,2963.00,1003.00
1500,1023.65,2969.29,327.30,3101.50,1005.50
1502,1023.93,2971.92,1893.25,3402.50,1015.00
1504,1024.20,2974.55,5381.49,3835.50,1011.50
1506,1024.48,2977.17,9148.82,4252.00,1013.50
1508,1024.75,2979.79,9385.95,4258.50,992.00
1510,1025.03,2982.41,7206.04,3958.50,1005.00
1512,1025.30,2985.02,6239.10,3739.50,987.00
1514,1025.58,2987.63,5008.22,3515.50,1009.00
1516,1025.85,2990.24,2779.14,3140.50,988.50
1518,1026.13,2992.85,792.74,2749.50,1019.00
1520,1026.40,2995.45,258.94,2564.50,1007.50
1522,1026.68,2998.05,70.14,2441.00,993.50
1524,1026.95,3000.65,30.53,2408.50,1013.00
1526,1027.22,3003.25,0.00,2310.50,1004.50
1528,1027.50,3005.84,0.00,2253.00,989.50
1530,1027.77,3008.43,0.00,2253.00,1013.50
1532,1028.04,3011.02,0.00,2223.50,1016.00
1534,1028.32,3013.60,0.00,2218.50,1004.00
1536,1028.59,3016.18,0.00,2191.00,1008.50
1538,1028.86,3018.76,30.91,2163.00,965.00
1540,1029.14,3021.34,0.00,2173.50,1007.00
1542,1029.41,3023.91,0.00,2133.50,993.00
1544,1029.68,3026.48,0.00,2127.00,987.00
1546,1029.95,3029.05,0.00,2144.50,1012.00
1548,1030.22,3031.61,0.00,2133.50,993.00
1550,1030.50,3034.17,0.00,2111.00,987.00
1552,1030.77,3036.73,0.00,2131.50,1003.00
1554,1031.04,3039.29,0.00,2137.50,1014.50
1556,1031.31,3041.84,47.02,2109.00,970.50
1558,1031.58,3044.39,0.00,2146.00,1029.50
1560,1031.85,3046.94,49.79,2158.00,1028.50
1562,1032.13,3049.49,55.06,2120.00,988.00
1564,1032.40,3052.03,46.67,2145.00,1013.50
1566,1032.67,3054.57,120.31,2134.50,990.50
1568,1032.94,3057.11,8.87,2159.00,1031.50
1570,1033.21,3059.64,64.49,2114.00,978.00
1572,1033.48,3062.18,212.31,2172.00,1019.00
1574,1033.75,3064.70,41.23,2148.50,1012.00
1576,1034.02,3067.23,2.53,2145.50,1015.00
1578,1034.29,3069.75,0.00,2111.50,983.50
1580,1034.56,3072.28,86.50,2161.00,1013.00
1582,1034.83,3074.79,151.52,2126.00,974.00
1584,1035.10,3077.31,30.47,2150.50,1010.00
1586,1035.37,3079.82,98.88,2144.50,986.00
1588,1035.64,3082.33,0.00,2161.00,1032.00
1590,1035.91,3084.84,236.22,2182.00,1009.50
1592,1036.17,3087.34,144.13,2151.50,987.00
1594,1036.44,3089.85,0.00,2179.00,1033.00
1596,1036.71,3092.35,45.80,2157.00,989.50
1598,1036.98,3094.84,0.00,2132.50,987.50
1600,1037.25,3097.34,35.02,2158.50,988.50
1602,1037.52,3099.83,6.28,2166.50,995.00
1604,1037.78,3102.32,0.00,2174.50,1002.00
1606,1038.05,3104.80,144.29,2225.50,1022.00
1608,1038.32,3107.29,311.52,2207.50,989.50
1610,1038.59,3109.77,72.84,2198.00,996.50
1612,1038.85,3112.24,0.00,2180.00,1001.00
1614,1039.12,3114.72,32.99,2228.00,1017.00
1616,1039.39,3117.19,0.00,2171.50,976.00
1618,1039.66,3119.66,222.24,2252.50,1012.50
1620,1039.92,3122.13,24.48,2250.00,1018.00
1622,1040.19,3124.59,0.00,2240.00,1007.00
1624,1040.45,3127.05,0.00,2232.50,992.50
1626,1040.72,3129.51,42.54,2265.50,1005.50
1628,1040.99,3131.97,0.00,2285.00,1025.50
1630,1041.25,3134.42,0.00,2296.50,1026.00
1632,1041.52,3136.87,0.00,2255.00,993.50
1634,1041.78,3139.32,32.11,2300.50,1000.50
1636,1042.05,3141.77,0.00,2380.00,1075.00
1638,1042.32,3144.21,0.00,2300.50,996.00
1640,1042.58,3146.65,0.00,2361.00,1030.00
1642,1042.85,3149.09,11.75,2357.50,1000.00
1644,1043.11,3151.52,0.00,2349.00,1002.00
1646,1043.38,3153.96,219.73,2414.00,1005.00
1648,1043.64,3156.39,140.74,2412.50,994.50
1650,1043.90,3158.81,13.41,2430.50,1003.50
1652,1044.17,3161.24,0.00,2448.50,1014.00
1654,1044.43,3163.66,0.00,2447.00,992.50
1656,1044.70,3166.08,274.09,2532.00,1027.50
1658,1044.96,3168.49,22.64,2520.00,1018.00
1660,1045.22,3170.91,0.00,2510.50,994.00
1662,1045.49,3173.32,0.00,2540.50,1009.50
1664,1045.75,3175.73,0.00,2567.00,1015.00
1666,1046.01,3178.13,1.02,2577.50,997.00
1668,1046.28,3180.54,0.00,2609.50,1030.00
1670,1046.54,3182.94,0.00,2630.50,1027.50
1672,1046.80,3185.34,285.92,2683.00,1010.50
1674,1047.07,3187.73,138.42,2682.00,1001.00
1676,1047.33,3190.12,0.00,2688.00,1013.50
1678,1047.59,3192.51,295.55,2759.00,1009.50
1680,1047.85,3194.90,487.12,2822.50,1041.00
1682,1048.11,3197.29,869.78,2850.00,1024.00
1684,1048.38,3199.67,543.92,2830.00,1020.00
1686,1048.64,3202.05,1003.11,2894.50,1031.50
1688,1048.90,3204.43,1033.58,2889.00,1014.00
1690,1049.16,3206.80,1560.08,2935.50,1002.50
1692,1049.42,3209.17,1465.36,2956.50,1027.50
1694,1049.68,3211.54,1688.04,2945.00,1001.00
1696,1049.94,3213.91,2420.83,3008.50,1009.50
1698,1050.20,3216.27,2779.55,3045.00,1022.00
1700,1050.46,3218.63,3021.69,3077.00,1035.00
1702,1050.72,3220.99,3038.86,3059.00,1019.00
1704,1050.98,3223.35,3541.50,3094.00,1020.00
1706,1051.24,3225.70,4062.21,3124.50,1016.00
1708,1051.50,3228.05,4395.46,3115.00,983.00
1710,1051.76,3230.40,4550.04,3173.50,1029.50
1712,1052.02,3232.75,4714.89,3164.00,1011.50
1714,1052.28,3235.09,5104.29,3214.00,1042.50
1716,1052.54,3237.43,5944.02,3237.00,1013.00
1718,1052.80,3239.77,6566.90,3278.00,1013.00
1720,1053.06,3242.11,6324.47,3256.00,1012.50
1722,1053.32,3244.44,7028.10,3293.50,1001.00
1724,1053.58,3246.77,7010.17,3336.00,1056.00
1726,1053.84,3249.10,7465.50,3314.00,1016.00
1728,1054.10,3251.42,8299.42,3353.00,1009.50
1730,1054.35,3253.75,8400.55,3350.00,1007.50
1732,1054.61,3256.07,8214.10,3359.50,1034.00
1734,1054.87,3258.39,8905.44,3383.50,1013.50
1736,1055.13,3260.70,8487.70,3332.50,1004.00
1738,1055.38,3263.01,9348.01,3373.50,1001.00
1740,1055.64,3265.32,9642.24,3383.50,1006.00
1742,1055.90,3267.63,9667.82,3360.50,989.50
1744,1056.16,3269.94,9455.10,3398.50,1048.50
1746,1056.41,3272.24,9475.43,3373.00,1032.50
1748,1056.67,3274.54,9747.51,3356.00,1011.00
1750,1056.93,3276.84,10215.64,3392.00,1028.50
1752,1057.18,3279.13,9757.69,3328.50,1007.50
1754,1057.44,3281.42,10214.44,3331.00,995.00
1756,1057.69,3283.71,9977.84,3303.00,996.00
1758,1057.95,3286.00,9331.47,3288.50,1030.50
1760,1058.21,3288.28,8784.66,3227.50,1007.50
1762,1058.46,3290.57,8879.85,3244.00,1025.00
1764,1058.72,3292.85,8746.00,3224.50,1031.00
1766,1058.97,3295.12,9247.70,3195.50,989.50
1768,1059.23,3297.40,8305.63,3145.50,1004.50
1770,1059.48,3299.67,8252.78,3159.50,1025.50
1772,1059.74,3301.94,8214.24,3117.50,996.00
1774,1059.99,3304.21,8254.29,3140.50,1032.00
1776,1060.25,3306.47,7821.15,3118.00,1049.50
1778,1060.50,3308.73,8067.55,3070.00,1000.00
1780,1060.76,3310.99,7656.13,3047.50,1011.00
1782,1061.01,3313.25,7363.29,3027.50,1014.00
1784,1061.26,3315.50,7418.86,3017.00,1005.00
1786,1061.52,3317.76,6744.48,2999.00,1033.50
1788,1061.77,3320.01,6526.12,2974.50,1037.00
1790,1062.02,3322.25,7307.90,2951.00,990.50
1792,1062.28,3324.50,6842.88,2933.50,1008.50
1794,1062.53,3326.74,6322.32,2893.50,996.00
1796,1062.78,3328.98,5467.62,2870.50,1020.00
1798,1063.04,3331.22,5397.64,2852.50,1017.00
1800,1063.29,3333.45,5928.44,2854.00,1009.50
1802,1063.54,3335.68,5725.45,2823.50,1005.00
1804,1063.79,3337.91,5756.38,2842.50,1028.50
1806,1064.05,3340.14,4541.27,2797.00,1045.50
1808,1064.30,3342.36,4543.82,2747.50,1003.00
1810,1064.55,3344.59,3964.33,2734.50,1033.00
1812,1064.80,3346.81,4627.27,2719.00,998.00
1814,1065.05,3349.02,3445.87,2660.50,1001.00
1816,1065.30,3351.24,3309.56,2677.50,1027.50
1818,1065.55,3353.45,3147.88,2649.00,1013.00
1820,1065.81,3355.66,3039.42,2661.50,1046.50
1822,1066.06,3357.87,2677.28,2585.50,1009.50
1824,1066.31,3360.07,2696.18,2551.00,993.50
1826,1066.56,3362.27,2533.67,2555.50,1023.00
1828,1066.81,3364.47,2625.82,2519.00,1000.00
1830,1067.06,3366.67,3061.51,2525.50,1005.50
1832,1067.31,3368.87,2929.34,2497.00,1002.50
1834,1067.56,3371.06,3013.62,2458.00,980.00
1836,1067.81,3373.25,3543.54,2463.50,983.00
1838,1068.06,3375.44,2859.94,2422.00,987.50
1840,1068.31,3377.62,3043.77,2424.50,998.00
1842,1068.56,3379.81,3233.79,2417.00,1000.50
1844,1068.80,3381.99,3402.44,2443.00,1038.00
1846,1069.05,3384.16,3134.13,2392.50,1014.00
1848,1069.30,3386.34,2379.69,2334.50,1003.50
1850,1069.55,3388.51,3454.91,2357.50,1005.50
1852,1069.80,3390.68,3219.36,2334.50,1009.50
1854,1070.05,3392.85,2177.32,2319.50,1044.50
1856,1070.30,3395.02,1480.06,2247.50,1011.00
1858,1070.54,3397.18,1999.05,2230.00,985.50
1860,1070.79,3399.34,1775.86,2225.50,1006.50
1862,1071.04,3401.50,1354.22,2187.00,1004.00
1864,1071.29,3403.66,1575.02,2150.00,979.00
1866,1071.53,3405.81,1320.47,2149.50,1003.00
1868,1071.78,3407.96,800.63,2118.50,1003.00
1870,1072.03,3410.11,177.91,2089.50,1015.00
1872,1072.27,3412.26,452.68,2081.00,1012.50
1874,1072.52,3414.40,1294.52,2075.50,999.00
1876,1072.77,3416.54,675.18,2046.50,1008.50
1878,1073.01,3418.68,474.00,2043.00,1025.50
1880,1073.26,3420.82,538.07,1970.00,964.00
1882,1073.51,3422.96,531.11,2004.00,1015.00
1884,1073.75,3425.09,287.16,1968.00,1004.50
1886,1074.00,3427.22,470.42,1928.50,972.50
1888,1074.24,3429.35,78.32,1956.50,1029.50
1890,1074.49,3431.47,289.85,1918.00,993.50
1892,1074.73,3433.59,194.29,1885.50,985.00
1894,1074.98,3435.71,616.84,1913.00,1017.00
1896,1075.22,3437.83,1032.91,1897.00,1007.50
1898,1075.47,3439.95,791.56,1885.50,1017.00
1900,1075.71,3442.06,955.48,1875.50,1015.50
1902,1075.96,3444.17,490.88,1835.50,1003.00
1904,1076.20,3446.28,1154.40,1794.50,956.50
1906,1076.44,3448.38,1014.99,1852.00,1031.00
1908,1076.69,3450.49,905.66,1831.50,1025.00
1910,1076.93,3452.59,643.02,1807.50,1022.50
1912,1077.17,3454.69,662.36,1772.50,1001.50
1914,1077.42,3456.79,1049.63,1773.50,1006.50
1916,1077.66,3458.88,706.25,1732.00,989.00
1918,1077.90,3460.97,1545.47,1737.50,986.00
1920,1078.15,3463.06,1038.58,1745.00,1019.00
1922,1078.39,3465.15,770.36,1712.50,1006.00
1924,1078.63,3467.23,940.56,1677.00,975.50
1926,1078.87,3469.32,130.13,1696.50,1026.50
1928,1079.12,3471.40,15.50,1660.00,1006.00
1930,1079.36,3473.47,0.00,1682.50,1045.50
1932,1079.60,3475.55,272.85,1630.50,987.50
1934,1079.84,3477.62,1179.36,1659.00,1009.50
1936,1080.08,3479.69,571.06,1616.00,995.00
1938,1080.33,3481.76,1030.33,1608.50,986.50
1940,1080.57,3483.83,1259.07,1620.00,1001.00
1942,1080.81,3485.89,581.30,1597.50,1005.50
1944,1081.05,3487.95,1261.92,1609.50,1013.00
1946,1081.29,3490.01,603.83,1580.00,1008.50
1948,1081.53,3492.07,78.59,1547.00,996.50
1950,1081.77,3494.12,151.93,1535.50,991.50
1952,1082.01,3496.18,0.00,1546.00,1022.00
1954,1082.25,3498.23,175.40,1521.00,993.00
1956,1082.49,3500.27,484.38,1526.00,1000.00
1958,1082.73,3502.32,238.92,1492.00,983.00
1960,1082.97,3504.36,58.77,1507.50,1010.50
1962,1083.21,3506.40,449.51,1491.50,993.00
1964,1083.45,3508.44,0.00,1453.50,974.50
1966,1083.69,3510.48,237.86,1519.50,1041.00
1968,1083.93,3512.51,459.60,1484.00,1009.00
1970,1084.16,3514.54,907.74,1470.00,995.00
1972,1084.40,3516.57,544.39,1452.00,993.00
1974,1084.64,3518.60,1593.63,1454.50,983.00
1976,1084.88,3520.62,1122.03,1481.00,1025.50
1978,1085.12,3522.65,482.07,1457.50,1021.00
1980,1085.36,3524.67,0.00,1425.50,1008.50
1982,1085.59,3526.68,762.74,1423.00,991.50
1984,1085.83,3528.70,912.44,1443.00,1017.00
1986,1086.07,3530.71,592.79,1401.50,992.00
1988,1086.31,3532.72,2030.21,1432.50,1007.00
1990,1086.54,3534.73,1142.24,1403.50,996.00
1992,1086.78,3536.74,107.57,1416.00,1034.00
1994,1087.02,3538.74,401.91,1396.00,1011.50
1996,1087.25,3540.74,428.82,1360.50,984.00
1998,1087.49,3542.74,1662.47,1386.50,997.00
2000,1087.73,3544.74,1262.48,1370.00,996.00
2002,1087.96,3546.74,1255.20,1362.00,991.00
2004,1088.20,3548.73,0.00,1374.50,1036.00
2006,1088.43,3550.72,418.27,1359.00,1015.00
2008,1088.67,3552.71,1490.31,1353.00,998.00
2010,1088.90,3554.69,844.70,1309.50,971.50
2012,1089.14,3556.68,1065.77,1339.00,1000.00
2014,1089.38,3558.66,367.04,1304.50,983.00
2016,1089.61,3560.64,838.60,1312.50,986.00
2018,1089.84,3562.62,984.21,1329.00,1007.50
2020,1090.08,3564.59,1632.09,1306.50,982.00
2022,1090.31,3566.56,1179.24,1294.00,983.00
2024,1090.55,3568.53,1590.83,1303.50,990.50
2026,1090.78,3570.50,1361.72,1272.50,968.00
2028,1091.02,3572.47,1121.00,1267.50,972.50
2030,1091.25,3574.43,2132.09,1273.50,967.50
2032,1091.48,3576.39,985.50,1245.50,960.00
2034,1091.72,3578.35,0.00,1223.00,963.00
2036,1091.95,3580.31,1279.29,1264.00,982.00
2038,1092.18,3582.26,516.87,1221.00,959.00
2040,1092.42,3584.22,1672.93,1224.00,952.00
2042,1092.65,3586.17,377.78,1222.00,967.00
2044,1092.88,3588.12,0.00,1198.50,962.00
2046,1093.11,3590.06,0.00,1198.50,964.00
2047,1093.23,3591.03,0.00,1175.50,943.00