File: plugins/Raman/MatchingLibrary/785X/metamizol Mg.csv
ENLIGHTEN Version,4.1.22
Measurement ID,20250220-203859-458903-WP-01977
Serial Number,WP-01977
Model,WP-785X-F13-R-ILC
Detector,S16011-1106
Label,metamizol Mg
Declared Match,
Declared Score,0
Scan Averaging,3
Boxcar,0
Technique,Raman
Baseline Correction Algo,AirPLS
ROI Pixel Start,47
ROI Pixel End,2047
ROI Start Line,0
ROI Stop Line,63
CCD C4,1.38617e-12
Slit Width,25
Cropped,True
Interpolated,False
Wavenumber Correction,-0.100481
Raman Intensity Corrected,True
Deconvolved,True
Region,
High Gain Mode,False
Laser Power mW,
Electrical Dark Correction,False
Battery %,
Device ID,<DeviceID USB:0x24aa:0x1000:0:1>
FW Version,10.0.0.10
FPGA Version,035-001
BLE Version,
Prefix,enlighten
Suffix,
Preset,
Auto-Raman,True
Session Count,0
Plugin Name,
Integration Time,355
Timestamp,2025-02-20 20:38:59.4589
Note,
Temperature,0
CCD C0,793.274
CCD C1,0.153259
CCD C2,1.40788e-05
CCD C3,-1.132e-08
CCD Offset,0
CCD Gain,1.9
CCD Offset Odd,0
CCD Gain Odd,1.9
Laser Wavelength,785.032
Laser Enable,False
Laser Power %,0
Laser Temperature,0
Pixel Count,2048

Pixel,Wavelength,Wavenumber,Processed,Raw,Dark
0,793.27,132.25,NA,984.33,921.00
2,793.58,137.12,NA,997.33,932.33
4,793.89,141.99,NA,989.00,935.33
6,794.19,146.86,NA,990.33,928.67
8,794.50,151.72,NA,999.33,934.33
10,794.81,156.58,NA,1006.33,939.67
12,795.12,161.44,NA,994.00,918.00
14,795.42,166.30,NA,1000.00,929.00
16,795.73,171.16,NA,1000.67,929.67
18,796.04,176.01,NA,1021.00,947.00
20,796.35,180.86,NA,1013.67,946.33
22,796.65,185.71,NA,1050.33,961.00
24,796.96,190.56,NA,1028.00,935.67
26,797.27,195.41,NA,1044.67,953.33
28,797.58,200.25,NA,1049.33,950.67
30,797.88,205.09,NA,1035.00,936.33
32,798.19,209.93,NA,1043.00,937.33
34,798.50,214.77,NA,1057.00,937.00
36,798.81,219.60,NA,1084.67,938.67
38,799.12,224.43,NA,1182.33,943.67
40,799.43,229.27,NA,1593.33,955.00
42,799.74,234.09,NA,3163.33,953.67
44,800.04,238.92,NA,5580.33,971.33
46,800.35,243.75,NA,6830.33,941.67
48,800.66,248.57,913.01,7514.67,963.33
50,800.97,253.39,1992.08,8495.00,963.33
52,801.28,258.21,2814.61,9722.67,963.33
54,801.59,263.02,4148.70,11031.67,962.00
56,801.90,267.83,4716.30,11371.33,950.33
58,802.21,272.65,3335.98,9979.33,960.00
60,802.52,277.46,1628.42,8045.67,958.33
62,802.83,282.26,604.69,6618.00,970.33
64,803.14,287.07,322.39,6101.00,969.00
66,803.45,291.87,334.28,6067.67,962.67
68,803.76,296.67,912.50,6788.33,966.67
70,804.07,301.47,2163.12,7955.33,957.67
72,804.38,306.26,2792.34,8336.33,953.33
74,804.69,311.06,1642.17,7239.00,946.33
76,805.00,315.85,197.43,5708.00,950.67
78,805.31,320.64,0.32,4948.33,960.67
80,805.62,325.42,4.35,4935.67,958.00
82,805.93,330.21,306.79,5368.33,960.67
84,806.24,334.99,988.31,5906.33,945.00
86,806.55,339.77,1232.99,6354.00,952.67
88,806.86,344.55,1717.10,6959.33,963.33
90,807.17,349.32,2474.15,7456.00,947.67
92,807.48,354.10,1972.17,6834.00,956.33
94,807.80,358.87,571.67,5361.33,962.00
96,808.11,363.63,52.47,4433.33,956.33
98,808.42,368.40,22.18,4180.00,942.33
100,808.73,373.16,218.86,4277.00,953.00
102,809.04,377.93,252.20,4201.33,944.33
104,809.35,382.68,2.37,3871.33,941.00
106,809.66,387.44,0.00,3594.67,953.67
108,809.98,392.19,0.00,3541.33,931.00
110,810.29,396.95,16.79,3982.33,955.00
112,810.60,401.70,789.95,5134.33,955.33
114,810.91,406.44,2409.96,6700.33,948.33
116,811.22,411.19,2932.88,7237.67,950.00
118,811.54,415.93,1859.12,6121.33,957.67
120,811.85,420.67,373.64,4524.33,941.00
122,812.16,425.41,1.95,3586.67,936.00
124,812.47,430.14,0.00,3351.67,956.67
126,812.79,434.87,0.00,3400.00,945.67
128,813.10,439.60,68.04,3731.33,939.33
130,813.41,444.33,608.02,4163.33,945.00
132,813.72,449.06,481.50,4110.33,937.67
134,814.04,453.78,258.37,3971.33,948.00
136,814.35,458.50,351.41,4232.33,938.33
138,814.66,463.22,998.61,5442.33,941.00
140,814.98,467.93,2935.47,7997.00,941.00
142,815.29,472.65,5317.97,10391.33,951.00
144,815.60,477.36,4439.71,9687.00,947.67
146,815.92,482.06,2152.67,7146.67,936.67
148,816.23,486.77,1134.06,5558.67,954.00
150,816.54,491.47,922.79,5077.33,961.33
152,816.86,496.17,995.61,5079.00,933.00
154,817.17,500.87,1331.43,5451.33,952.33
156,817.48,505.57,1382.68,5531.67,938.67
158,817.80,510.26,1164.60,5363.67,937.00
160,818.11,514.95,1192.13,5414.67,951.33
162,818.42,519.64,1360.63,5534.00,955.00
164,818.74,524.32,1310.48,5366.67,938.67
166,819.05,529.00,787.34,4723.00,956.00
168,819.37,533.68,272.22,4067.33,943.67
170,819.68,538.36,21.55,3626.67,945.67
172,819.99,543.04,9.09,3577.33,951.67
174,820.31,547.71,116.40,3901.00,950.67
176,820.62,552.38,807.39,4955.67,932.33
178,820.94,557.05,2158.35,6447.00,943.67
180,821.25,561.71,2508.24,6794.67,933.00
182,821.57,566.37,1419.32,5688.33,935.00
184,821.88,571.03,586.95,4644.33,944.33
186,822.20,575.69,499.21,4699.33,941.33
188,822.51,580.34,1604.50,7035.00,944.67
190,822.83,584.99,6033.16,12576.00,946.00
192,823.14,589.64,9576.29,15977.33,950.67
194,823.46,594.29,5845.90,12690.67,950.67
196,823.77,598.93,2932.63,8622.00,943.67
198,824.09,603.57,2048.68,6782.00,935.00
200,824.40,608.21,1343.03,5762.00,937.33
202,824.72,612.85,1795.20,6300.33,958.00
204,825.03,617.48,3256.72,7490.67,945.67
206,825.35,622.11,2104.97,6408.33,952.67
208,825.66,626.74,742.25,4732.00,948.67
210,825.98,631.36,726.84,4703.33,937.67
212,826.29,635.99,1710.22,6324.67,950.00
214,826.61,640.61,4013.51,9634.00,949.00
216,826.92,645.22,6337.81,12938.33,940.00
218,827.24,649.84,8097.97,14974.33,933.33
220,827.56,654.45,7270.40,13702.67,952.00
222,827.87,659.06,3353.24,8964.67,947.67
224,828.19,663.67,1077.57,5280.00,944.00
226,828.50,668.27,410.20,3861.00,973.67
228,828.82,672.87,349.60,3591.00,951.67
230,829.13,677.47,942.93,4192.67,938.33
232,829.45,682.06,1289.94,4391.33,946.33
234,829.77,686.66,393.34,3589.00,975.33
236,830.08,691.25,33.56,2847.67,943.67
238,830.40,695.83,13.68,2672.67,939.33
240,830.72,700.42,52.62,2665.33,941.00
242,831.03,705.00,0.00,2517.00,918.33
244,831.35,709.58,0.00,2435.33,935.33
246,831.66,714.15,0.00,2426.33,922.67
248,831.98,718.73,0.09,2495.00,941.00
250,832.30,723.30,23.32,2553.67,932.33
252,832.61,727.87,129.21,2707.33,950.67
254,832.93,732.43,236.46,2846.67,914.67
256,833.25,736.99,415.71,3178.00,944.33
258,833.56,741.55,663.80,3642.00,941.33
260,833.88,746.11,1069.80,4484.33,934.67
262,834.20,750.66,2041.09,6281.00,936.67
264,834.51,755.22,4037.35,9479.67,950.67
266,834.83,759.76,6537.15,13204.33,945.67
268,835.15,764.31,8557.11,16092.33,949.33
270,835.47,768.85,9360.02,16774.00,931.33
272,835.78,773.39,6884.07,13595.00,945.00
274,836.10,777.93,3513.53,8897.67,938.67
276,836.42,782.46,1752.28,5778.33,935.00
278,836.73,787.00,957.71,4157.67,932.33
280,837.05,791.52,603.69,3399.00,929.67
282,837.37,796.05,424.20,3067.33,947.00
284,837.69,800.57,366.43,3029.33,924.67
286,838.00,805.09,531.31,3551.67,935.00
288,838.32,809.61,1535.23,5303.67,936.33
290,838.64,814.13,3899.31,7842.00,949.00
292,838.95,818.64,3687.86,7679.33,937.00
294,839.27,823.15,1484.77,5215.67,943.67
296,839.59,827.65,730.44,3854.67,941.00
298,839.91,832.15,737.92,3591.33,932.33
300,840.22,836.65,1152.51,3890.33,960.67
302,840.54,841.15,922.08,3520.33,936.00
304,840.86,845.65,221.70,2738.33,944.33
306,841.18,850.14,3.65,2250.33,943.33
308,841.50,854.63,0.00,2115.00,973.33
310,841.81,859.11,0.00,2054.67,941.00
312,842.13,863.60,0.00,2087.33,941.00
314,842.45,868.07,3.06,2188.33,933.67
316,842.77,872.55,103.78,2509.67,946.67
318,843.08,877.03,486.08,3367.33,963.33
320,843.40,881.50,1798.32,5255.33,924.67
322,843.72,885.97,3422.46,6813.00,947.00
324,844.04,890.43,2062.69,5578.33,930.67
326,844.36,894.89,519.12,3540.33,932.33
328,844.67,899.35,148.11,2694.33,945.67
330,844.99,903.81,199.23,2702.33,928.00
332,845.31,908.26,612.43,3279.67,943.33
334,845.63,912.71,972.81,3757.00,942.33
336,845.95,917.16,1109.00,3926.67,943.00
338,846.27,921.61,896.55,3758.67,1081.67
340,846.58,926.05,211.65,2827.33,937.33
342,846.90,930.49,5.00,2374.67,935.33
344,847.22,934.92,0.00,2246.67,941.67
346,847.54,939.36,0.00,2224.00,920.67
348,847.86,943.79,0.00,2259.67,926.67
350,848.18,948.21,0.00,2308.00,924.00
352,848.49,952.64,0.00,2348.00,937.33
354,848.81,957.06,0.00,2384.67,920.67
356,849.13,961.48,5.63,2590.67,950.67
358,849.45,965.89,249.34,3000.00,949.33
360,849.77,970.31,534.87,3378.33,938.67
362,850.09,974.71,537.81,3779.67,941.00
364,850.40,979.12,1027.92,5161.33,948.67
366,850.72,983.52,3193.53,8869.67,959.00
368,851.04,987.92,6775.38,14133.67,922.67
370,851.36,992.32,8986.28,18678.33,933.67
372,851.68,996.72,13446.49,24980.33,941.33
374,852.00,1001.11,16651.21,28262.00,932.67
376,852.32,1005.50,11946.21,22780.00,928.00
378,852.63,1009.88,7611.82,16826.67,966.67
380,852.95,1014.26,4300.10,11977.33,944.33
382,853.27,1018.64,4046.46,11213.67,949.00
384,853.59,1023.02,7506.04,14323.67,936.33
386,853.91,1027.39,6808.41,13420.00,930.67
388,854.23,1031.76,2713.01,8947.00,934.33
390,854.55,1036.13,1873.92,7495.00,933.67
392,854.87,1040.49,3258.26,9087.33,931.00
394,855.18,1044.86,4945.23,11334.33,950.67
396,855.50,1049.21,5276.80,12250.33,939.33
398,855.82,1053.57,6487.08,13187.00,945.00
400,856.14,1057.92,5014.01,11242.67,935.67
402,856.46,1062.27,1303.12,6750.00,934.67
404,856.78,1066.62,253.23,4451.33,925.67
406,857.10,1070.96,229.56,4123.00,932.00
408,857.42,1075.30,648.57,4438.67,947.00
410,857.74,1079.64,375.41,4286.00,932.00
412,858.06,1083.97,12.55,3791.33,922.67
414,858.37,1088.30,11.45,3836.33,918.00
416,858.69,1092.63,251.11,4496.33,926.00
418,859.01,1096.95,1090.77,5626.00,924.00
420,859.33,1101.27,2170.96,6936.00,930.67
422,859.65,1105.59,2138.20,7113.33,936.00
424,859.97,1109.91,1590.98,6505.67,926.67
426,860.29,1114.22,1410.50,6090.67,935.33
428,860.61,1118.53,972.65,5423.33,929.33
430,860.93,1122.84,492.08,4806.33,935.67
432,861.25,1127.14,360.68,4617.67,940.00
434,861.56,1131.44,665.99,4966.33,929.67
436,861.88,1135.74,1115.04,5353.67,924.00
438,862.20,1140.03,728.13,5089.67,932.33
440,862.52,1144.32,358.60,4907.00,934.00
442,862.84,1148.61,691.02,6106.67,948.00
444,863.16,1152.89,3756.75,10529.00,930.33
446,863.48,1157.17,8103.60,14138.33,934.33
448,863.80,1161.45,3729.62,10646.33,941.67
450,864.12,1165.73,1275.86,7328.67,942.33
452,864.44,1170.00,1725.08,7719.33,926.67
454,864.76,1174.27,4085.42,10089.00,938.67
456,865.07,1178.53,4881.46,10748.00,924.00
458,865.39,1182.80,2466.66,8342.00,939.67
460,865.71,1187.06,1223.89,6460.00,936.67
462,866.03,1191.31,862.07,5679.67,935.33
464,866.35,1195.57,861.33,5626.33,935.33
466,866.67,1199.82,1282.08,6218.00,946.33
468,866.99,1204.06,1911.66,6908.33,934.33
470,867.31,1208.31,2015.96,6939.33,945.00
472,867.63,1212.55,1286.55,6054.33,936.67
474,867.95,1216.79,324.55,4877.33,920.67
476,868.27,1221.02,7.11,4228.67,936.33
478,868.58,1225.25,0.00,3933.67,917.67
480,868.90,1229.48,0.00,3981.00,944.67
482,869.22,1233.71,0.82,4140.33,941.67
484,869.54,1237.93,65.45,4276.67,956.33
486,869.86,1242.15,117.00,4351.67,934.00
488,870.18,1246.36,4.16,4288.67,919.33
490,870.50,1250.58,0.00,4202.00,932.33
492,870.82,1254.79,0.00,4270.67,948.00
494,871.14,1258.99,0.00,4406.33,939.00
496,871.46,1263.20,0.00,4549.00,943.00
498,871.78,1267.40,66.40,4740.33,928.00
500,872.10,1271.59,79.28,4844.33,938.33
502,872.41,1275.79,32.03,4876.67,929.00
504,872.73,1279.98,54.28,5024.67,944.33
506,873.05,1284.17,201.92,5345.00,939.67
508,873.37,1288.35,558.92,5849.00,907.33
510,873.69,1292.53,1084.73,6634.00,929.33
512,874.01,1296.71,1541.10,7314.00,925.33
514,874.33,1300.88,1907.74,7845.67,915.67
516,874.65,1305.06,1923.87,8096.33,928.67
518,874.97,1309.22,1967.95,8359.00,928.67
520,875.29,1313.39,2857.84,9448.00,941.67
522,875.60,1317.55,3453.73,10263.33,941.00
524,875.92,1321.71,3087.79,10243.67,935.67
526,876.24,1325.87,3932.81,11399.33,946.33
528,876.56,1330.02,5042.02,12645.00,931.33
530,876.88,1334.17,4843.59,13023.33,941.67
532,877.20,1338.32,5378.70,14799.67,925.33
534,877.52,1342.46,7929.30,19679.00,925.33
536,877.84,1346.60,14238.51,28982.33,941.33
538,878.16,1350.73,24665.91,40119.33,931.00
540,878.47,1354.87,26489.63,41488.67,934.33
542,878.79,1359.00,14903.04,29847.33,939.33
544,879.11,1363.13,6931.33,18728.00,935.33
546,879.43,1367.25,5198.88,14308.67,929.67
548,879.75,1371.37,5119.54,12755.67,929.00
550,880.07,1375.49,3688.86,10747.33,930.67
552,880.39,1379.60,2191.93,8805.00,936.67
554,880.71,1383.71,1545.22,7726.67,933.00
556,881.03,1387.82,1363.42,7281.67,921.33
558,881.34,1391.93,1399.40,7207.67,917.33
560,881.66,1396.03,1488.78,7321.67,921.33
562,881.98,1400.13,1473.60,7561.67,936.33
564,882.30,1404.22,1724.92,8405.33,935.00
566,882.62,1408.31,3275.57,10972.00,930.33
568,882.94,1412.40,6995.88,15204.33,941.67
570,883.26,1416.49,8994.52,17104.33,932.33
572,883.57,1420.57,6621.80,15130.67,944.33
574,883.89,1424.65,4002.53,12133.00,933.67
576,884.21,1428.73,3482.31,11210.33,946.00
578,884.53,1432.80,4291.79,11863.33,953.67
580,884.85,1436.87,5279.86,12841.67,929.67
582,885.17,1440.93,5386.68,13114.33,925.33
584,885.49,1445.00,5036.04,13037.67,926.00
586,885.80,1449.06,4918.38,13104.33,924.00
588,886.12,1453.11,6101.91,14201.67,949.67
590,886.44,1457.17,7059.92,14780.67,936.67
592,886.76,1461.22,4948.02,12562.67,936.00
594,887.08,1465.26,3046.08,10180.67,944.33
596,887.40,1469.31,2214.65,8752.67,922.33
598,887.71,1473.35,1761.08,7971.67,922.00
600,888.03,1477.38,1687.90,7721.33,935.33
602,888.35,1481.42,1873.35,7774.33,947.00
604,888.67,1485.45,1655.83,7658.67,938.00
606,888.99,1489.48,1260.53,7475.67,925.33
608,889.31,1493.50,2002.59,8537.33,941.67
610,889.62,1497.52,4119.64,10361.33,941.00
612,889.94,1501.54,3783.54,10011.33,917.67
614,890.26,1505.56,1555.93,7839.33,927.67
616,890.58,1509.57,747.95,6551.00,927.33
618,890.90,1513.57,515.74,5963.00,919.67
620,891.21,1517.58,384.75,5679.67,930.33
622,891.53,1521.58,261.80,5482.67,928.00
624,891.85,1525.58,123.90,5301.33,924.00
626,892.17,1529.57,31.55,5194.67,942.00
628,892.49,1533.57,2.20,5104.00,933.67
630,892.80,1537.56,0.00,5027.00,924.67
632,893.12,1541.54,3.40,5030.33,927.33
634,893.44,1545.52,0.00,5004.33,940.33
636,893.76,1549.50,0.00,4975.00,915.33
638,894.07,1553.48,1.49,5034.67,943.67
640,894.39,1557.45,41.96,5079.67,923.33
642,894.71,1561.42,138.58,5181.00,938.67
644,895.03,1565.39,296.95,5387.33,915.33
646,895.34,1569.35,537.67,5801.33,941.67
648,895.66,1573.31,901.03,6418.33,932.00
650,895.98,1577.26,1679.51,7785.00,925.67
652,896.30,1581.22,3314.43,10534.67,926.00
654,896.61,1585.17,6394.80,15235.00,933.33
656,896.93,1589.11,12049.54,21968.67,946.33
658,897.25,1593.06,18551.04,27582.67,928.00
660,897.57,1597.00,15983.73,25412.67,934.67
662,897.88,1600.93,7481.55,17118.33,940.33
664,898.20,1604.87,3934.11,11965.00,936.00
666,898.52,1608.80,3800.84,10993.33,926.67
668,898.84,1612.72,4668.41,12060.67,918.00
670,899.15,1616.65,6585.64,15188.67,940.33
672,899.47,1620.57,11128.94,21009.67,926.00
674,899.79,1624.49,17595.67,27642.67,930.00
676,900.10,1628.40,19606.39,29780.33,922.00
678,900.42,1632.31,15911.37,26426.33,941.00
680,900.74,1636.22,11944.78,21744.33,921.00
682,901.05,1640.12,8848.06,17489.33,953.00
684,901.37,1644.02,6570.66,14192.67,935.00
686,901.69,1647.92,5251.78,12018.33,941.00
688,902.00,1651.82,4533.01,10561.67,923.33
690,902.32,1655.71,3366.49,8970.33,919.00
692,902.64,1659.60,1891.46,7179.33,921.00
694,902.95,1663.48,1001.80,5928.33,932.67
696,903.27,1667.36,621.32,5256.67,929.00
698,903.59,1671.24,454.84,4935.33,942.33
700,903.90,1675.11,363.24,4714.00,931.67
702,904.22,1678.99,331.63,4596.33,916.67
704,904.54,1682.85,160.27,4430.00,959.00
706,904.85,1686.72,60.76,4235.67,919.67
708,905.17,1690.58,19.87,4114.67,928.33
710,905.49,1694.44,13.00,4021.67,924.67
712,905.80,1698.29,22.86,3958.33,930.67
714,906.12,1702.15,5.67,3877.67,925.33
716,906.43,1706.00,0.00,3771.67,931.00
718,906.75,1709.84,0.00,3723.00,939.33
720,907.07,1713.68,0.00,3598.33,924.00
722,907.38,1717.52,0.00,3557.67,935.33
724,907.70,1721.36,4.30,3525.67,922.00
726,908.01,1725.19,0.67,3482.00,933.00
728,908.33,1729.02,0.00,3418.00,938.00
730,908.65,1732.85,0.00,3358.33,935.00
732,908.96,1736.67,0.00,3316.33,940.00
734,909.28,1740.49,0.00,3280.33,922.67
736,909.59,1744.30,0.00,3264.33,938.33
738,909.91,1748.12,0.00,3226.00,928.00
740,910.22,1751.93,8.34,3206.67,931.33
742,910.54,1755.73,0.00,3187.67,960.67
744,910.85,1759.54,0.00,3123.00,933.33
746,911.17,1763.34,0.00,3088.67,922.67
748,911.49,1767.13,0.00,3057.67,930.33
750,911.80,1770.93,0.00,3039.00,924.67
752,912.12,1774.72,0.00,2991.33,941.67
754,912.43,1778.50,0.00,2982.33,918.00
756,912.75,1782.29,3.38,2977.33,916.67
758,913.06,1786.07,25.16,3001.67,924.00
760,913.38,1789.84,40.55,2986.33,929.00
762,913.69,1793.62,44.69,2981.33,936.00
764,914.01,1797.39,86.92,2987.00,920.67
766,914.32,1801.15,74.09,2958.67,922.00
768,914.64,1804.92,25.32,2895.67,923.33
770,914.95,1808.68,38.32,2904.00,930.33
772,915.26,1812.44,50.34,2899.00,934.67
774,915.58,1816.19,87.06,2896.33,915.67
776,915.89,1819.94,124.50,2913.00,930.33
778,916.21,1823.69,90.24,2869.33,928.67
780,916.52,1827.43,40.36,2824.33,947.67
782,916.84,1831.17,35.52,2763.67,917.67
784,917.15,1834.91,18.43,2719.00,919.00
786,917.47,1838.64,20.83,2717.00,933.00
788,917.78,1842.38,57.81,2731.00,927.33
790,918.09,1846.10,28.65,2678.33,922.00
792,918.41,1849.83,21.72,2660.67,929.00
794,918.72,1853.55,40.68,2648.00,915.67
796,919.04,1857.27,41.06,2640.67,929.00
798,919.35,1860.98,51.27,2632.67,925.33
800,919.66,1864.69,64.17,2629.67,922.33
802,919.98,1868.40,69.94,2621.33,927.33
804,920.29,1872.11,73.14,2598.33,921.33
806,920.60,1875.81,82.67,2598.67,926.00
808,920.92,1879.51,104.12,2596.67,917.00
810,921.23,1883.20,127.05,2614.33,932.33
812,921.55,1886.90,106.47,2563.00,922.00
814,921.86,1890.58,99.51,2556.67,939.00
816,922.17,1894.27,84.88,2518.33,935.33
818,922.49,1897.95,96.62,2508.00,931.33
820,922.80,1901.63,83.39,2468.67,922.00
822,923.11,1905.31,75.07,2447.00,927.33
824,923.42,1908.98,85.29,2440.33,931.00
826,923.74,1912.65,94.52,2432.00,928.33
828,924.05,1916.31,81.92,2397.33,924.00
830,924.36,1919.98,91.21,2379.33,914.67
832,924.68,1923.64,108.16,2385.00,915.33
834,924.99,1927.29,107.35,2372.00,916.33
836,925.30,1930.94,139.41,2376.33,914.67
838,925.61,1934.59,181.69,2399.67,925.33
840,925.93,1938.24,115.55,2333.33,929.33
842,926.24,1941.88,91.83,2293.33,927.00
844,926.55,1945.52,96.58,2267.00,918.33
846,926.86,1949.16,54.88,2220.33,929.67
848,927.18,1952.79,39.73,2180.00,921.00
850,927.49,1956.42,87.37,2211.67,921.33
852,927.80,1960.05,102.56,2243.67,967.33
854,928.11,1963.67,126.35,2207.00,924.00
856,928.42,1967.29,94.97,2182.67,936.00
858,928.74,1970.91,83.65,2146.67,926.67
860,929.05,1974.52,83.66,2115.00,919.00
862,929.36,1978.13,79.07,2092.67,918.00
864,929.67,1981.74,64.72,2078.00,930.00
866,929.98,1985.35,70.16,2062.00,923.33
868,930.29,1988.95,83.02,2064.00,935.00
870,930.61,1992.54,101.19,2038.33,913.33
872,930.92,1996.14,72.05,2003.33,921.33
874,931.23,1999.73,49.23,1986.00,934.33
876,931.54,2003.32,33.55,1948.67,931.67
878,931.85,2006.90,37.38,1923.33,926.00
880,932.16,2010.48,39.42,1901.67,916.33
882,932.47,2014.06,19.32,1874.67,920.33
884,932.78,2017.63,23.30,1870.67,929.33
886,933.09,2021.21,24.96,1848.33,927.33
888,933.41,2024.77,27.41,1837.33,929.67
890,933.72,2028.34,24.82,1838.33,941.67
892,934.03,2031.90,16.84,1808.00,934.00
894,934.34,2035.46,13.16,1785.33,934.33
896,934.65,2039.01,10.51,1746.67,910.67
898,934.96,2042.57,1.53,1743.33,934.33
900,935.27,2046.11,22.04,1757.33,944.33
902,935.58,2049.66,0.17,1693.00,913.67
904,935.89,2053.20,0.00,1692.67,932.33
906,936.20,2056.74,18.18,1700.33,923.00
908,936.51,2060.28,1.29,1673.33,933.67
910,936.82,2063.81,7.07,1669.33,937.33
912,937.13,2067.34,28.63,1669.33,929.33
914,937.44,2070.86,20.56,1649.33,929.33
916,937.75,2074.39,31.34,1636.33,918.33
918,938.06,2077.91,0.00,1596.00,925.33
920,938.37,2081.42,1.13,1594.33,928.67
922,938.68,2084.94,12.07,1585.00,923.33
924,938.99,2088.45,5.54,1569.33,923.33
926,939.30,2091.95,0.00,1560.00,932.33
928,939.60,2095.46,0.00,1542.33,925.33
930,939.91,2098.96,1.90,1545.67,937.33
932,940.22,2102.45,0.00,1525.33,932.67
934,940.53,2105.95,0.00,1503.67,919.33
936,940.84,2109.44,2.56,1498.33,920.00
938,941.15,2112.92,1.11,1500.67,931.33
940,941.46,2116.41,0.00,1482.67,929.67
942,941.77,2119.89,4.42,1491.00,934.33
944,942.07,2123.37,14.78,1470.33,919.67
946,942.38,2126.84,17.84,1478.33,932.33
948,942.69,2130.31,10.08,1461.67,928.67
950,943.00,2133.78,0.00,1431.00,927.33
952,943.31,2137.24,0.00,1436.67,930.67
954,943.62,2140.70,0.00,1428.33,934.00
956,943.92,2144.16,9.61,1428.67,924.67
958,944.23,2147.62,0.00,1423.33,932.33
960,944.54,2151.07,0.12,1425.33,938.33
962,944.85,2154.52,4.88,1433.67,944.33
964,945.16,2157.96,10.54,1419.67,933.33
966,945.46,2161.40,26.27,1428.33,933.33
968,945.77,2164.84,1.25,1384.33,913.67
970,946.08,2168.28,12.66,1401.33,924.00
972,946.39,2171.71,0.00,1382.33,922.67
974,946.69,2175.14,4.39,1384.00,920.67
976,947.00,2178.57,0.00,1382.33,927.33
978,947.31,2181.99,0.00,1368.00,914.67
980,947.61,2185.41,1.99,1380.33,924.67
982,947.92,2188.82,15.91,1390.33,928.67
984,948.23,2192.24,5.28,1369.00,917.67
986,948.53,2195.65,9.56,1380.00,924.00
988,948.84,2199.05,11.25,1356.00,903.67
990,949.15,2202.46,29.88,1388.67,928.00
992,949.45,2205.86,10.02,1370.67,924.67
994,949.76,2209.25,3.77,1352.33,914.00
996,950.07,2212.65,3.04,1361.00,925.33
998,950.37,2216.04,8.50,1366.67,926.00
1000,950.68,2219.43,20.55,1374.67,926.00
1002,950.98,2222.81,18.79,1372.67,930.67
1004,951.29,2226.19,52.03,1379.00,916.00
1006,951.60,2229.57,55.14,1377.67,911.00
1008,951.90,2232.94,33.33,1366.33,917.67
1010,952.21,2236.32,34.60,1369.00,923.67
1012,952.51,2239.68,54.24,1381.33,924.00
1014,952.82,2243.05,39.88,1350.33,907.00
1016,953.12,2246.41,20.27,1367.67,940.33
1018,953.43,2249.77,16.83,1377.67,952.00
1020,953.73,2253.12,17.04,1357.67,936.00
1022,954.04,2256.48,20.96,1329.33,911.67
1024,954.34,2259.83,18.17,1351.33,938.00
1026,954.65,2263.17,16.79,1331.00,917.67
1028,954.95,2266.51,19.23,1340.33,929.33
1030,955.26,2269.85,28.27,1357.33,942.33
1032,955.56,2273.19,0.00,1325.00,935.33
1034,955.87,2276.52,4.55,1327.33,935.33
1036,956.17,2279.85,17.90,1342.33,941.67
1038,956.48,2283.18,0.00,1295.67,917.33
1040,956.78,2286.50,17.89,1321.67,925.33
1042,957.08,2289.82,16.58,1308.33,914.00
1044,957.39,2293.14,18.40,1323.00,928.67
1046,957.69,2296.45,22.03,1306.67,912.67
1048,957.99,2299.76,23.56,1331.67,936.00
1050,958.30,2303.07,25.63,1329.67,933.00
1052,958.60,2306.38,26.84,1324.00,930.33
1054,958.91,2309.68,42.57,1332.33,930.00
1056,959.21,2312.98,54.54,1326.33,917.00
1058,959.51,2316.27,46.87,1326.00,923.33
1060,959.82,2319.56,30.11,1327.67,937.00
1062,960.12,2322.85,30.06,1312.00,922.00
1064,960.42,2326.14,59.03,1320.33,913.00
1066,960.72,2329.42,54.58,1322.67,923.33
1068,961.03,2332.70,44.43,1323.33,931.67
1070,961.33,2335.97,30.99,1321.00,940.33
1072,961.63,2339.25,27.01,1300.67,924.00
1074,961.93,2342.52,15.58,1292.33,924.33
1076,962.24,2345.78,31.34,1305.67,925.33
1078,962.54,2349.05,31.64,1294.33,921.00
1080,962.84,2352.31,39.51,1300.67,925.33
1082,963.14,2355.56,27.75,1289.67,922.67
1084,963.45,2358.82,33.06,1295.67,926.00
1086,963.75,2362.07,22.73,1295.00,932.33
1088,964.05,2365.32,0.00,1282.67,943.67
1090,964.35,2368.56,11.61,1275.00,926.67
1092,964.65,2371.80,20.46,1291.00,931.33
1094,964.95,2375.04,0.00,1265.67,927.33
1096,965.25,2378.27,12.37,1274.67,918.67
1098,965.56,2381.51,34.32,1289.00,928.33
1100,965.86,2384.73,29.87,1284.67,927.33
1102,966.16,2387.96,31.31,1286.00,924.67
1104,966.46,2391.18,37.76,1310.67,946.33
1106,966.76,2394.40,82.30,1312.00,922.00
1108,967.06,2397.62,58.95,1315.67,938.00
1110,967.36,2400.83,57.10,1297.33,922.00
1112,967.66,2404.04,81.95,1323.00,936.00
1114,967.96,2407.25,50.34,1283.33,913.00
1116,968.26,2410.45,46.95,1298.00,930.67
1118,968.56,2413.65,56.82,1288.67,920.33
1120,968.86,2416.85,35.36,1300.00,943.67
1122,969.16,2420.04,20.95,1278.33,928.67
1124,969.46,2423.23,15.48,1262.67,917.67
1126,969.76,2426.42,20.46,1275.33,929.67
1128,970.06,2429.60,17.96,1261.33,917.00
1130,970.36,2432.79,23.12,1269.00,919.67
1132,970.66,2435.96,60.33,1286.67,916.33
1134,970.96,2439.14,53.25,1288.00,925.33
1136,971.26,2442.31,77.37,1315.67,936.67
1138,971.56,2445.48,138.62,1340.67,928.00
1140,971.86,2448.65,169.05,1344.33,921.67
1142,972.16,2451.81,171.21,1353.67,929.00
1144,972.45,2454.97,107.69,1323.67,931.00
1146,972.75,2458.13,83.81,1307.33,928.33
1148,973.05,2461.28,74.74,1289.00,918.67
1150,973.35,2464.43,70.22,1294.67,931.67
1152,973.65,2467.58,82.28,1291.33,924.00
1154,973.95,2470.72,72.47,1290.00,928.00
1156,974.24,2473.86,54.89,1276.33,923.67
1158,974.54,2477.00,60.53,1270.33,914.67
1160,974.84,2480.13,72.19,1290.33,933.33
1162,975.14,2483.27,107.89,1295.67,923.33
1164,975.43,2486.40,112.52,1289.00,911.67
1166,975.73,2489.52,92.26,1292.67,925.33
1168,976.03,2492.64,86.60,1281.33,920.00
1170,976.33,2495.76,76.59,1287.67,934.67
1172,976.62,2498.88,94.78,1282.33,920.00
1174,976.92,2501.99,103.80,1305.00,939.00
1176,977.22,2505.10,87.80,1286.00,931.00
1178,977.51,2508.21,82.17,1279.33,928.67
1180,977.81,2511.31,75.57,1274.67,928.00
1182,978.11,2514.41,72.76,1271.00,927.33
1184,978.40,2517.51,95.80,1283.67,928.33
1186,978.70,2520.61,69.45,1266.33,927.33
1188,979.00,2523.70,86.20,1283.67,937.00
1190,979.29,2526.79,106.91,1275.33,920.33
1192,979.59,2529.87,96.23,1280.67,933.67
1194,979.88,2532.95,75.87,1255.67,921.67
1196,980.18,2536.03,89.37,1277.00,935.00
1198,980.48,2539.11,61.11,1269.67,942.33
1200,980.77,2542.18,58.76,1255.67,931.33
1202,981.07,2545.25,61.36,1258.67,936.67
1204,981.36,2548.32,54.06,1245.00,929.00
1206,981.66,2551.38,65.35,1259.00,937.33
1208,981.95,2554.44,50.69,1241.33,928.67
1210,982.25,2557.50,65.02,1267.67,945.67
1212,982.54,2560.56,47.09,1256.00,944.00
1214,982.84,2563.61,80.46,1275.33,946.33
1216,983.13,2566.66,123.33,1292.00,943.67
1218,983.43,2569.70,167.54,1307.67,937.00
1220,983.72,2572.74,219.31,1339.67,943.67
1222,984.01,2575.78,273.71,1356.00,932.00
1224,984.31,2578.82,314.69,1369.33,923.33
1226,984.60,2581.85,377.53,1407.00,934.33
1228,984.90,2584.88,458.11,1423.33,920.67
1230,985.19,2587.91,479.53,1434.67,930.00
1232,985.48,2590.93,442.84,1424.67,938.33
1234,985.78,2593.96,355.45,1386.00,937.67
1236,986.07,2596.97,268.52,1341.67,932.00
1238,986.36,2599.99,175.12,1315.33,951.00
1240,986.66,2603.00,120.62,1291.00,956.67
1242,986.95,2606.01,84.43,1260.00,948.67
1244,987.24,2609.01,69.57,1241.00,939.67
1246,987.54,2612.02,58.08,1205.33,912.67
1248,987.83,2615.02,67.66,1234.00,938.67
1250,988.12,2618.01,57.80,1230.33,940.33
1252,988.41,2621.01,55.90,1222.00,934.00
1254,988.71,2624.00,65.50,1215.00,926.00
1256,989.00,2626.99,92.84,1238.00,938.67
1258,989.29,2629.97,73.20,1230.33,937.33
1260,989.58,2632.95,75.66,1238.33,945.67
1262,989.87,2635.93,125.44,1245.67,939.33
1264,990.16,2638.91,150.31,1236.00,921.33
1266,990.46,2641.88,77.47,1232.00,943.67
1268,990.75,2644.85,81.86,1244.67,953.33
1270,991.04,2647.81,48.91,1203.00,931.67
1272,991.33,2650.78,59.15,1206.67,933.67
1274,991.62,2653.74,51.77,1197.00,926.33
1276,991.91,2656.70,22.75,1186.00,929.33
1278,992.20,2659.65,31.07,1197.67,941.00
1280,992.49,2662.60,34.81,1178.00,922.00
1282,992.78,2665.55,8.62,1199.00,953.33
1284,993.07,2668.50,13.05,1197.33,945.67
1286,993.36,2671.44,0.51,1188.67,949.33
1288,993.65,2674.38,11.74,1190.67,943.67
1290,993.94,2677.31,0.81,1178.00,940.00
1292,994.23,2680.25,0.00,1175.33,943.00
1294,994.52,2683.18,15.61,1179.00,933.67
1296,994.81,2686.10,0.75,1179.00,941.00
1298,995.10,2689.03,0.07,1175.33,937.67
1300,995.39,2691.95,17.42,1177.33,931.67
1302,995.68,2694.87,27.49,1193.00,945.67
1304,995.97,2697.78,25.98,1186.00,938.00
1306,996.26,2700.70,6.60,1171.00,927.33
1308,996.55,2703.61,3.77,1177.33,933.33
1310,996.84,2706.51,4.51,1187.33,941.00
1312,997.13,2709.42,0.00,1184.33,950.33
1314,997.41,2712.32,10.02,1196.00,942.33
1316,997.70,2715.21,35.77,1202.33,933.00
1318,997.99,2718.11,35.44,1212.33,940.67
1320,998.28,2721.00,100.04,1233.00,932.33
1322,998.57,2723.89,180.58,1276.33,947.33
1324,998.86,2726.77,205.20,1265.33,926.67
1326,999.14,2729.66,210.08,1279.67,937.33
1328,999.43,2732.54,242.05,1292.33,937.33
1330,999.72,2735.41,190.30,1270.33,928.67
1332,1000.01,2738.29,127.78,1276.00,949.00
1334,1000.29,2741.16,57.77,1246.00,937.33
1336,1000.58,2744.03,13.99,1216.00,923.67
1338,1000.87,2746.89,2.56,1232.00,944.33
1340,1001.15,2749.75,0.91,1223.00,932.33
1342,1001.44,2752.61,0.00,1221.00,937.33
1344,1001.73,2755.47,0.00,1218.67,937.00
1346,1002.01,2758.32,0.00,1228.00,937.67
1348,1002.30,2761.17,0.00,1253.00,945.00
1350,1002.59,2764.02,0.01,1281.00,956.33
1352,1002.87,2766.86,0.00,1268.00,937.33
1354,1003.16,2769.70,27.74,1290.00,933.67
1356,1003.44,2772.54,0.00,1272.33,927.33
1358,1003.73,2775.38,0.00,1294.67,937.33
1360,1004.01,2778.21,0.00,1300.67,929.33
1362,1004.30,2781.04,8.99,1337.00,933.67
1364,1004.58,2783.87,5.61,1343.67,929.67
1366,1004.87,2786.69,90.60,1386.67,920.00
1368,1005.15,2789.51,169.25,1450.33,947.00
1370,1005.44,2792.33,250.93,1498.00,946.33
1372,1005.72,2795.14,378.02,1573.33,952.00
1374,1006.01,2797.95,704.56,1702.00,954.33
1376,1006.29,2800.76,1140.16,1810.00,934.67
1378,1006.58,2803.57,1779.00,2002.33,955.67
1380,1006.86,2806.37,2020.08,2042.00,936.67
1382,1007.14,2809.17,2006.99,2050.33,940.67
1384,1007.43,2811.97,1772.99,1989.67,924.00
1386,1007.71,2814.77,1263.64,1874.67,921.67
1388,1008.00,2817.56,735.79,1749.00,930.00
1390,1008.28,2820.35,383.65,1667.67,948.33
1392,1008.56,2823.13,204.09,1604.67,928.33
1394,1008.85,2825.91,54.21,1559.67,933.33
1396,1009.13,2828.69,16.17,1558.00,940.67
1398,1009.41,2831.47,0.00,1551.67,946.33
1400,1009.69,2834.24,0.13,1552.33,926.67
1402,1009.98,2837.02,0.00,1566.67,934.33
1404,1010.26,2839.78,5.58,1596.67,945.33
1406,1010.54,2842.55,1.34,1589.00,925.33
1408,1010.82,2845.31,0.00,1611.00,934.67
1410,1011.11,2848.07,0.83,1638.67,943.67
1412,1011.39,2850.83,13.46,1668.67,943.67
1414,1011.67,2853.58,173.64,1740.33,938.00
1416,1011.95,2856.33,583.21,1830.33,934.67
1418,1012.23,2859.08,1057.75,1930.33,935.00
1420,1012.51,2861.83,1364.94,2001.67,933.67
1422,1012.80,2864.57,1599.77,2090.33,955.67
1424,1013.08,2867.31,1712.37,2118.67,947.00
1426,1013.36,2870.04,1707.59,2117.33,938.67
1428,1013.64,2872.78,1608.19,2104.33,942.33
1430,1013.92,2875.51,1600.21,2123.67,956.00
1432,1014.20,2878.24,1610.23,2117.33,944.33
1434,1014.48,2880.96,1765.91,2149.67,937.33
1436,1014.76,2883.68,2012.99,2200.00,932.00
1438,1015.04,2886.40,2354.18,2276.33,928.33
1440,1015.32,2889.12,2518.81,2339.00,951.33
1442,1015.60,2891.83,2954.44,2429.67,931.67
1444,1015.88,2894.54,3300.02,2527.67,948.00
1446,1016.16,2897.25,3711.81,2606.67,926.00
1448,1016.44,2899.96,4023.60,2697.00,942.33
1450,1016.72,2902.66,4518.83,2806.67,936.33
1452,1017.00,2905.36,5068.52,2955.67,947.33
1454,1017.28,2908.06,5433.16,3045.67,930.67
1456,1017.55,2910.75,6054.98,3230.67,948.33
1458,1017.83,2913.44,7066.00,3451.00,928.67
1460,1018.11,2916.13,8548.91,3789.33,940.33
1462,1018.39,2918.81,10081.58,4111.00,949.00
1464,1018.67,2921.49,11699.85,4406.67,935.33
1466,1018.95,2924.17,13255.59,4683.67,934.33
1468,1019.22,2926.85,13950.80,4787.67,943.67
1470,1019.50,2929.52,13652.05,4674.67,927.33
1472,1019.78,2932.20,12563.79,4443.00,926.67
1474,1020.06,2934.86,10441.71,4025.33,934.33
1476,1020.33,2937.53,8394.94,3632.33,952.00
1478,1020.61,2940.19,6515.41,3218.00,942.00
1480,1020.89,2942.85,5140.59,2907.33,949.67
1482,1021.17,2945.51,4326.26,2692.00,937.00
1484,1021.44,2948.16,3770.76,2554.00,942.33
1486,1021.72,2950.81,3443.55,2464.00,936.00
1488,1022.00,2953.46,3532.75,2486.33,948.00
1490,1022.27,2956.11,3888.20,2527.00,943.00
1492,1022.55,2958.75,4539.21,2608.33,949.33
1494,1022.82,2961.39,5164.32,2665.00,939.33
1496,1023.10,2964.03,4962.56,2637.33,953.00
1498,1023.38,2966.66,4161.93,2511.33,938.00
1500,1023.65,2969.29,3381.96,2400.67,948.33
1502,1023.93,2971.92,3105.14,2346.67,948.33
1504,1024.20,2974.55,3064.39,2313.33,947.00
1506,1024.48,2977.17,3267.72,2318.00,941.33
1508,1024.75,2979.79,3496.06,2328.33,931.33
1510,1025.03,2982.41,3521.92,2328.33,938.00
1512,1025.30,2985.02,3520.24,2319.67,933.00
1514,1025.58,2987.63,3489.79,2315.67,941.67
1516,1025.85,2990.24,3294.23,2253.67,936.67
1518,1026.13,2992.85,3113.05,2210.00,955.00
1520,1026.40,2995.45,2804.24,2124.67,940.67
1522,1026.68,2998.05,1953.36,1989.00,933.00
1524,1026.95,3000.65,940.87,1866.33,952.00
1526,1027.22,3003.25,275.87,1734.67,940.67
1528,1027.50,3005.84,69.42,1670.00,934.00
1530,1027.77,3008.43,15.64,1642.00,940.33
1532,1028.04,3011.02,11.94,1633.67,945.00
1534,1028.32,3013.60,132.44,1652.67,940.00
1536,1028.59,3016.18,299.04,1654.00,945.67
1538,1028.86,3018.76,439.05,1629.33,919.00
1540,1029.14,3021.34,289.72,1637.67,938.33
1542,1029.41,3023.91,85.51,1599.67,935.00
1544,1029.68,3026.48,118.74,1596.67,929.67
1546,1029.95,3029.05,324.73,1625.67,936.00
1548,1030.22,3031.61,725.87,1662.67,939.33
1550,1030.50,3034.17,1022.14,1683.33,930.33
1552,1030.77,3036.73,1028.24,1685.00,928.00
1554,1031.04,3039.29,1356.11,1743.67,938.67
1556,1031.31,3041.84,1980.31,1798.67,928.33
1558,1031.58,3044.39,2489.96,1869.33,960.67
1560,1031.85,3046.94,2601.09,1872.00,945.33
1562,1032.13,3049.49,2263.20,1842.00,933.33
1564,1032.40,3052.03,2216.92,1875.67,950.00
1566,1032.67,3054.57,2868.85,1954.67,933.67
1568,1032.94,3057.11,4340.95,2146.67,952.67
1570,1033.21,3059.64,6093.39,2311.67,927.33
1572,1033.48,3062.18,7224.52,2476.00,949.00
1574,1033.75,3064.70,7754.83,2575.67,949.33
1576,1034.02,3067.23,8414.33,2681.33,948.00
1578,1034.29,3069.75,9577.54,2786.33,921.33
1580,1034.56,3072.28,10888.03,2904.00,943.67
1582,1034.83,3074.79,12117.62,2942.67,923.33
1584,1035.10,3077.31,11643.83,2850.00,945.00
1586,1035.37,3079.82,9333.31,2588.67,933.33
1588,1035.64,3082.33,5931.32,2239.67,953.67
1590,1035.91,3084.84,3371.41,1898.00,945.67
1592,1036.17,3087.34,2144.48,1677.67,929.67
1594,1036.44,3089.85,1543.43,1571.67,955.00
1596,1036.71,3092.35,1306.08,1481.67,935.33
1598,1036.98,3094.84,1203.99,1436.67,929.33
1600,1037.25,3097.34,985.13,1391.67,930.00
1602,1037.52,3099.83,850.25,1371.00,939.00
1604,1037.78,3102.32,817.00,1350.00,934.67
1606,1038.05,3104.80,644.02,1327.67,949.67
1608,1038.32,3107.29,591.81,1294.33,934.67
1610,1038.59,3109.77,389.55,1270.67,934.00
1612,1038.85,3112.24,112.07,1232.67,930.33
1614,1039.12,3114.72,16.36,1227.00,950.00
1616,1039.39,3117.19,2.27,1181.67,920.67
1618,1039.66,3119.66,0.00,1196.33,950.00
1620,1039.92,3122.13,12.71,1192.00,948.67
1622,1040.19,3124.59,23.63,1175.00,938.67
1624,1040.45,3127.05,0.00,1154.00,934.33
1626,1040.72,3129.51,0.00,1158.67,945.67
1628,1040.99,3131.97,0.80,1164.00,947.67
1630,1041.25,3134.42,1.43,1164.67,953.00
1632,1041.52,3136.87,2.31,1132.33,924.67
1634,1041.78,3139.32,0.00,1139.33,944.33
1636,1042.05,3141.77,0.00,1179.00,981.33
1638,1042.32,3144.21,65.19,1143.00,934.67
1640,1042.58,3146.65,0.00,1154.67,958.67
1642,1042.85,3149.09,0.00,1136.00,942.33
1644,1043.11,3151.52,61.67,1139.67,933.00
1646,1043.38,3153.96,0.35,1146.67,946.00
1648,1043.64,3156.39,47.85,1146.00,937.33
1650,1043.90,3158.81,14.80,1147.00,943.00
1652,1044.17,3161.24,115.18,1162.00,944.67
1654,1044.43,3163.66,151.62,1151.33,933.67
1656,1044.70,3166.08,181.72,1183.67,964.67
1658,1044.96,3168.49,316.02,1174.00,942.33
1660,1045.22,3170.91,229.90,1168.00,942.33
1662,1045.49,3173.32,230.82,1167.33,939.00
1664,1045.75,3175.73,160.19,1169.00,947.67
1666,1046.01,3178.13,263.22,1165.33,935.00
1668,1046.28,3180.54,382.03,1186.67,947.67
1670,1046.54,3182.94,305.52,1182.00,949.33
1672,1046.80,3185.34,160.25,1174.00,954.67
1674,1047.07,3187.73,348.60,1170.33,935.00
1676,1047.33,3190.12,376.12,1181.00,943.67
1678,1047.59,3192.51,238.54,1170.33,943.67
1680,1047.85,3194.90,91.65,1177.33,964.33
1682,1048.11,3197.29,96.24,1167.67,954.00
1684,1048.38,3199.67,121.73,1165.00,947.33
1686,1048.64,3202.05,30.74,1170.33,962.67
1688,1048.90,3204.43,72.02,1160.67,949.00
1690,1049.16,3206.80,60.01,1148.00,938.67
1692,1049.42,3209.17,114.86,1159.67,946.67
1694,1049.68,3211.54,188.03,1157.67,939.00
1696,1049.94,3213.91,91.89,1150.33,938.67
1698,1050.20,3216.27,93.76,1158.67,946.33
1700,1050.46,3218.63,161.74,1176.67,958.33
1702,1050.72,3220.99,18.00,1155.67,951.33
1704,1050.98,3223.35,256.54,1179.67,956.33
1706,1051.24,3225.70,317.03,1168.67,941.00
1708,1051.50,3228.05,181.86,1156.33,939.00
1710,1051.76,3230.40,171.66,1175.33,959.33
1712,1052.02,3232.75,523.64,1182.33,940.33
1714,1052.28,3235.09,427.26,1184.33,952.33
1716,1052.54,3237.43,501.35,1182.00,944.33
1718,1052.80,3239.77,458.69,1174.67,939.67
1720,1053.06,3242.11,444.72,1182.67,949.00
1722,1053.32,3244.44,649.66,1180.67,932.00
1724,1053.58,3246.77,490.57,1199.67,965.00
1726,1053.84,3249.10,689.05,1196.33,949.00
1728,1054.10,3251.42,628.20,1189.00,946.67
1730,1054.35,3253.75,559.15,1182.00,944.33
1732,1054.61,3256.07,610.04,1197.33,957.00
1734,1054.87,3258.39,795.63,1202.00,950.67
1736,1055.13,3260.70,691.92,1184.33,941.67
1738,1055.38,3263.01,741.25,1189.33,943.67
1740,1055.64,3265.32,809.99,1191.33,941.00
1742,1055.90,3267.63,628.25,1172.67,935.67
1744,1056.16,3269.94,673.66,1203.67,965.33
1746,1056.41,3272.24,704.42,1204.67,967.00
1748,1056.67,3274.54,855.77,1190.67,944.33
1750,1056.93,3276.84,637.41,1181.67,949.33
1752,1057.18,3279.13,656.26,1174.67,942.67
1754,1057.44,3281.42,662.15,1166.00,936.33
1756,1057.69,3283.71,820.29,1174.67,934.33
1758,1057.95,3286.00,381.56,1183.00,969.00
1760,1058.21,3288.28,573.18,1169.00,941.67
1762,1058.46,3290.57,632.70,1183.00,956.00
1764,1058.72,3292.85,724.71,1177.33,949.67
1766,1058.97,3295.12,615.00,1150.67,931.00
1768,1059.23,3297.40,594.21,1160.67,941.00
1770,1059.48,3299.67,540.64,1170.33,953.00
1772,1059.74,3301.94,486.85,1148.33,935.67
1774,1059.99,3304.21,547.80,1168.33,954.33
1776,1060.25,3306.47,593.60,1185.33,970.67
1778,1060.50,3308.73,433.16,1145.33,941.00
1780,1060.76,3310.99,531.92,1157.00,948.00
1782,1061.01,3313.25,336.73,1149.33,951.00
1784,1061.26,3315.50,280.92,1145.33,949.67
1786,1061.52,3317.76,425.68,1162.00,956.67
1788,1061.77,3320.01,221.32,1148.67,958.00
1790,1062.02,3322.25,628.78,1142.67,933.00
1792,1062.28,3324.50,527.68,1145.33,946.33
1794,1062.53,3326.74,667.09,1139.33,936.00
1796,1062.78,3328.98,636.27,1142.67,942.33
1798,1063.04,3331.22,658.56,1138.67,939.00
1800,1063.29,3333.45,675.50,1137.00,937.67
1802,1063.54,3335.68,611.32,1135.00,939.33
1804,1063.79,3337.91,478.19,1142.00,955.00
1806,1064.05,3340.14,700.11,1162.67,966.67
1808,1064.30,3342.36,729.07,1130.33,937.33
1810,1064.55,3344.59,973.05,1153.67,953.00
1812,1064.80,3346.81,998.11,1135.33,936.67
1814,1065.05,3349.02,907.56,1136.00,943.33
1816,1065.30,3351.24,988.24,1146.33,951.00
1818,1065.55,3353.45,897.17,1129.67,939.67
1820,1065.81,3355.66,1019.77,1164.33,969.67
1822,1066.06,3357.87,1136.15,1138.67,941.00
1824,1066.31,3360.07,1235.21,1137.00,939.33
1826,1066.56,3362.27,1539.00,1156.67,950.00
1828,1066.81,3364.47,1306.61,1132.67,937.33
1830,1067.06,3366.67,1356.65,1143.00,945.00
1832,1067.31,3368.87,1464.94,1139.33,938.33
1834,1067.56,3371.06,1575.25,1123.33,922.00
1836,1067.81,3373.25,1635.61,1129.67,929.00
1838,1068.06,3375.44,1272.24,1122.00,938.00
1840,1068.31,3377.62,1307.40,1125.67,942.00
1842,1068.56,3379.81,1761.77,1126.67,926.67
1844,1068.80,3381.99,1801.29,1161.67,962.00
1846,1069.05,3384.16,1890.69,1145.67,943.67
1848,1069.30,3386.34,1900.96,1140.33,940.33
1850,1069.55,3388.51,1642.23,1130.00,943.67
1852,1069.80,3390.68,1883.95,1140.00,947.00
1854,1070.05,3392.85,1858.64,1160.00,970.33
1856,1070.30,3395.02,1978.43,1137.33,945.00
1858,1070.54,3397.18,2010.51,1122.67,931.33
1860,1070.79,3399.34,2224.38,1137.33,940.00
1862,1071.04,3401.50,2130.12,1128.00,935.67
1864,1071.29,3403.66,1978.98,1111.67,926.67
1866,1071.53,3405.81,2090.63,1133.00,946.33
1868,1071.78,3407.96,2420.74,1136.00,939.67
1870,1072.03,3410.11,2037.60,1135.33,954.67
1872,1072.27,3412.26,2334.58,1137.33,947.33
1874,1072.52,3414.40,2250.39,1126.00,941.67
1876,1072.77,3416.54,2419.05,1123.00,936.67
1878,1073.01,3418.68,2861.13,1149.00,951.67
1880,1073.26,3420.82,2479.99,1100.67,918.33
1882,1073.51,3422.96,2761.14,1128.67,937.00
1884,1073.75,3425.09,2350.69,1118.33,939.67
1886,1074.00,3427.22,2138.11,1106.33,935.33
1888,1074.24,3429.35,2298.04,1125.33,952.00
1890,1074.49,3431.47,2903.55,1122.00,933.67
1892,1074.73,3433.59,2964.95,1112.67,926.00
1894,1074.98,3435.71,2706.81,1134.67,957.33
1896,1075.22,3437.83,2603.60,1114.67,941.67
1898,1075.47,3439.95,2989.04,1122.67,939.67
1900,1075.71,3442.06,2813.94,1124.00,949.00
1902,1075.96,3444.17,3006.10,1118.33,939.00
1904,1076.20,3446.28,2660.86,1077.33,909.67
1906,1076.44,3448.38,2590.61,1124.67,961.33
1908,1076.69,3450.49,2678.71,1118.00,955.33
1910,1076.93,3452.59,3034.43,1112.00,941.00
1912,1077.17,3454.69,2718.74,1096.33,934.67
1914,1077.42,3456.79,2465.21,1098.33,945.00
1916,1077.66,3458.88,2985.62,1100.00,934.33
1918,1077.90,3460.97,2782.40,1090.33,933.67
1920,1078.15,3463.06,2762.26,1105.67,951.67
1922,1078.39,3465.15,2560.23,1094.67,947.67
1924,1078.63,3467.23,2678.22,1072.00,922.67
1926,1078.87,3469.32,2664.32,1097.00,948.67
1928,1079.12,3471.40,2180.23,1076.00,942.33
1930,1079.36,3473.47,2597.48,1110.00,967.33
1932,1079.60,3475.55,2731.95,1070.33,926.67
1934,1079.84,3477.62,2238.89,1077.67,948.33
1936,1080.08,3479.69,2258.80,1066.33,937.33
1938,1080.33,3481.76,1842.98,1045.33,928.67
1940,1080.57,3483.83,2399.65,1066.33,937.67
1942,1080.81,3485.89,2000.86,1063.67,946.33
1944,1081.05,3487.95,1874.42,1067.67,953.67
1946,1081.29,3490.01,1782.55,1056.33,945.00
1948,1081.53,3492.07,1865.43,1048.00,936.00
1950,1081.77,3494.12,1749.11,1046.00,939.00
1952,1082.01,3496.18,1704.12,1054.00,950.00
1954,1082.25,3498.23,1924.65,1040.00,932.33
1956,1082.49,3500.27,1743.93,1041.67,939.67
1958,1082.73,3502.32,1467.08,1026.67,932.67
1960,1082.97,3504.36,1480.57,1039.33,946.33
1962,1083.21,3506.40,1781.22,1034.00,933.67
1964,1083.45,3508.44,1102.68,1010.67,924.67
1966,1083.69,3510.48,960.56,1047.00,964.67
1968,1083.93,3512.51,1385.31,1032.00,942.00
1970,1084.16,3514.54,1291.01,1019.67,935.33
1972,1084.40,3516.57,1097.88,1019.00,940.67
1974,1084.64,3518.60,1171.02,1010.33,931.33
1976,1084.88,3520.62,1263.47,1029.33,948.33
1978,1085.12,3522.65,1013.43,1029.67,953.33
1980,1085.36,3524.67,638.78,1010.67,943.00
1982,1085.59,3526.68,1004.97,1008.00,934.00
1984,1085.83,3528.70,1111.71,1022.67,949.00
1986,1086.07,3530.71,612.27,996.00,933.00
1988,1086.31,3532.72,854.65,1014.33,946.33
1990,1086.54,3534.73,653.70,992.67,928.67
1992,1086.78,3536.74,1224.06,1027.00,951.33
1994,1087.02,3538.74,602.78,1009.33,948.33
1996,1087.25,3540.74,787.17,992.00,929.33
1998,1087.49,3542.74,569.85,999.33,942.33
2000,1087.73,3544.74,859.18,996.00,934.33
2002,1087.96,3546.74,233.60,992.00,941.00
2004,1088.20,3548.73,20.33,1000.67,954.67
2006,1088.43,3550.72,403.51,994.33,939.67
2008,1088.67,3552.71,102.26,989.33,943.00
2010,1088.90,3554.69,859.35,979.00,919.67
2012,1089.14,3556.68,419.72,991.67,941.67
2014,1089.38,3558.66,771.81,981.00,926.67
2016,1089.61,3560.64,632.09,982.33,931.00
2018,1089.84,3562.62,780.06,996.33,942.33
2020,1090.08,3564.59,414.96,980.00,931.67
2022,1090.31,3566.56,666.65,980.33,926.67
2024,1090.55,3568.53,422.85,977.33,929.33
2026,1090.78,3570.50,0.00,965.67,928.00
2028,1091.02,3572.47,979.54,971.33,918.33
2030,1091.25,3574.43,281.75,970.00,928.00
2032,1091.48,3576.39,495.37,956.33,910.33
2034,1091.72,3578.35,137.11,956.33,916.33
2036,1091.95,3580.31,132.32,970.67,931.00
2038,1092.18,3582.26,74.18,950.67,913.00
2040,1092.42,3584.22,296.43,955.00,915.00
2042,1092.65,3586.17,318.57,954.33,915.33
2044,1092.88,3588.12,658.93,955.00,911.33
2046,1093.11,3590.06,33.50,945.67,909.67
2047,1093.23,3591.03,114.57,945.00,903.00