File: plugins/Raman/MatchingLibrary/785X/methanol.csv
ENLIGHTEN Version,4.1.22
Measurement ID,20250220-200205-954211-WP-01977
Serial Number,WP-01977
Model,WP-785X-F13-R-ILC
Detector,S16011-1106
Label,methanol
Declared Match,
Declared Score,0
Scan Averaging,3
Boxcar,0
Technique,Raman
Baseline Correction Algo,AirPLS
ROI Pixel Start,47
ROI Pixel End,2047
ROI Start Line,0
ROI Stop Line,63
CCD C4,1.38617e-12
Slit Width,25
Cropped,True
Interpolated,False
Wavenumber Correction,-0.100481
Raman Intensity Corrected,True
Deconvolved,True
Region,
High Gain Mode,False
Laser Power mW,
Electrical Dark Correction,False
Battery %,
Device ID,<DeviceID USB:0x24aa:0x1000:0:1>
FW Version,10.0.0.10
FPGA Version,035-001
BLE Version,
Prefix,enlighten
Suffix,
Preset,
Auto-Raman,True
Session Count,0
Plugin Name,
Integration Time,479
Timestamp,2025-02-20 20:02:05.954211
Note,
Temperature,0
CCD C0,793.274
CCD C1,0.153259
CCD C2,1.40788e-05
CCD C3,-1.132e-08
CCD Offset,0
CCD Gain,1.9
CCD Offset Odd,0
CCD Gain Odd,1.9
Laser Wavelength,785.032
Laser Enable,False
Laser Power %,0
Laser Temperature,0
Pixel Count,2048

Pixel,Wavelength,Wavenumber,Processed,Raw,Dark
0,793.27,132.25,NA,962.67,951.33
2,793.58,137.12,NA,985.67,974.67
4,793.89,141.99,NA,974.67,956.00
6,794.19,146.86,NA,974.00,959.67
8,794.50,151.72,NA,991.67,978.00
10,794.81,156.58,NA,988.67,973.33
12,795.12,161.44,NA,964.67,953.33
14,795.42,166.30,NA,966.00,955.67
16,795.73,171.16,NA,977.00,957.00
18,796.04,176.01,NA,996.00,970.00
20,796.35,180.86,NA,999.33,978.33
22,796.65,185.71,NA,1014.33,1003.67
24,796.96,190.56,NA,1000.00,978.00
26,797.27,195.41,NA,1011.00,983.33
28,797.58,200.25,NA,1013.33,987.33
30,797.88,205.09,NA,993.00,967.33
32,798.19,209.93,NA,996.00,973.33
34,798.50,214.77,NA,1001.67,973.67
36,798.81,219.60,NA,1008.67,969.33
38,799.12,224.43,NA,1040.67,969.67
40,799.43,229.27,NA,1232.00,987.33
42,799.74,234.09,NA,1911.33,985.67
44,800.04,238.92,NA,2939.67,1007.00
46,800.35,243.75,NA,3344.00,978.33
48,800.66,248.57,469.91,3368.67,986.00
50,800.97,253.39,393.88,3329.33,995.67
52,801.28,258.21,327.55,3260.00,996.67
54,801.59,263.02,347.41,3213.00,992.67
56,801.90,267.83,280.06,3101.67,991.67
58,802.21,272.65,271.08,3041.33,991.67
60,802.52,277.46,256.24,2976.00,990.33
62,802.83,282.26,209.60,2896.67,1013.33
64,803.14,287.07,154.47,2794.33,1013.67
66,803.45,291.87,141.58,2717.00,1005.00
68,803.76,296.67,119.16,2642.67,1010.00
70,804.07,301.47,96.62,2541.67,987.67
72,804.38,306.26,31.21,2424.33,986.67
74,804.69,311.06,23.86,2369.33,992.33
76,805.00,315.85,11.24,2292.33,978.33
78,805.31,320.64,0.00,2222.00,988.00
80,805.62,325.42,0.00,2167.00,993.00
82,805.93,330.21,0.00,2137.67,991.67
84,806.24,334.99,0.00,2053.67,968.00
86,806.55,339.77,0.00,2054.00,983.00
88,806.86,344.55,0.00,2034.00,1002.00
90,807.17,349.32,0.00,1985.33,979.67
92,807.48,354.10,0.00,1972.67,985.00
94,807.80,358.87,0.00,1974.33,1006.00
96,808.11,363.63,0.00,1949.33,987.00
98,808.42,368.40,0.46,1932.67,976.33
100,808.73,373.16,0.00,1916.33,981.67
102,809.04,377.93,3.10,1910.67,975.00
104,809.35,382.68,0.00,1886.67,978.00
106,809.66,387.44,0.00,1898.00,985.67
108,809.98,392.19,0.00,1862.33,967.00
110,810.29,396.95,13.29,1906.33,992.00
112,810.60,401.70,0.10,1870.00,977.33
114,810.91,406.44,7.44,1882.33,981.67
116,811.22,411.19,11.74,1885.33,994.67
118,811.54,415.93,2.37,1874.67,995.33
120,811.85,420.67,10.43,1867.33,976.67
122,812.16,425.41,27.89,1873.67,977.33
124,812.47,430.14,42.72,1900.33,987.33
126,812.79,434.87,37.47,1877.33,974.67
128,813.10,439.60,39.38,1860.67,959.33
130,813.41,444.33,45.34,1879.00,981.00
132,813.72,449.06,50.79,1871.33,968.00
134,814.04,453.78,60.11,1882.00,974.00
136,814.35,458.50,58.66,1861.67,962.33
138,814.66,463.22,51.66,1853.67,967.67
140,814.98,467.93,60.32,1858.33,969.00
142,815.29,472.65,68.30,1867.67,975.33
144,815.60,477.36,69.65,1868.33,981.00
146,815.92,482.06,66.65,1841.67,962.00
148,816.23,486.77,74.31,1867.67,988.33
150,816.54,491.47,70.18,1868.67,1002.67
152,816.86,496.17,53.85,1797.33,963.00
154,817.17,500.87,45.55,1796.67,982.33
156,817.48,505.57,19.93,1738.33,965.33
158,817.80,510.26,17.15,1725.33,966.00
160,818.11,514.95,11.73,1722.67,983.67
162,818.42,519.64,0.00,1698.00,983.67
164,818.74,524.32,0.00,1671.33,975.33
166,819.05,529.00,0.00,1685.33,990.67
168,819.37,533.68,2.61,1671.00,972.33
170,819.68,538.36,0.48,1673.67,980.33
172,819.99,543.04,0.28,1678.67,990.00
174,820.31,547.71,2.55,1656.00,969.00
176,820.62,552.38,0.00,1639.00,965.00
178,820.94,557.05,6.39,1662.67,974.67
180,821.25,561.71,0.24,1633.33,955.67
182,821.57,566.37,0.00,1641.00,967.33
184,821.88,571.03,17.04,1664.00,968.67
186,822.20,575.69,2.81,1649.00,971.00
188,822.51,580.34,7.72,1654.00,971.00
190,822.83,584.99,12.32,1671.33,981.33
192,823.14,589.64,24.82,1688.00,980.33
194,823.46,594.29,33.57,1689.67,974.00
196,823.77,598.93,26.24,1681.33,973.33
198,824.09,603.57,26.48,1665.00,957.33
200,824.40,608.21,29.04,1691.00,980.67
202,824.72,612.85,27.61,1691.00,985.33
204,825.03,617.48,43.45,1700.67,973.00
206,825.35,622.11,29.72,1697.00,984.00
208,825.66,626.74,53.17,1707.00,973.33
210,825.98,631.36,39.41,1685.00,962.00
212,826.29,635.99,36.25,1686.00,973.00
214,826.61,640.61,38.74,1687.00,972.67
216,826.92,645.22,24.79,1664.67,966.33
218,827.24,649.84,43.16,1664.67,952.67
220,827.56,654.45,37.54,1686.67,979.00
222,827.87,659.06,20.23,1675.67,989.67
224,828.19,663.67,48.42,1692.33,976.33
226,828.50,668.27,22.75,1697.33,1015.67
228,828.82,672.87,32.53,1684.00,990.33
230,829.13,677.47,42.05,1678.33,972.67
232,829.45,682.06,41.15,1688.67,979.67
234,829.77,686.66,40.01,1721.00,1021.67
236,830.08,691.25,45.01,1677.00,972.00
238,830.40,695.83,22.32,1647.33,973.67
240,830.72,700.42,47.08,1669.33,968.00
242,831.03,705.00,27.27,1619.67,943.00
244,831.35,709.58,35.09,1656.33,976.00
246,831.66,714.15,22.91,1608.33,943.00
248,831.98,718.73,28.30,1648.33,979.00
250,832.30,723.30,25.12,1625.33,965.00
252,832.61,727.87,31.31,1650.33,983.00
254,832.93,732.43,17.11,1587.33,939.33
256,833.25,736.99,19.65,1628.33,977.67
258,833.56,741.55,23.80,1616.00,969.00
260,833.88,746.11,25.12,1617.67,967.67
262,834.20,750.66,12.92,1603.67,967.67
264,834.51,755.22,20.47,1617.33,978.00
266,834.83,759.76,32.01,1625.67,974.33
268,835.15,764.31,19.03,1617.00,983.67
270,835.47,768.85,10.93,1579.00,960.67
272,835.78,773.39,16.34,1589.33,962.67
274,836.10,777.93,13.34,1588.00,968.67
276,836.42,782.46,29.80,1605.00,966.67
278,836.73,787.00,24.32,1585.33,954.67
280,837.05,791.52,34.55,1598.00,955.67
282,837.37,796.05,15.35,1597.33,982.33
284,837.69,800.57,23.51,1580.00,956.67
286,838.00,805.09,32.66,1587.00,955.00
288,838.32,809.61,16.63,1581.00,973.67
290,838.64,814.13,32.06,1608.67,983.00
292,838.95,818.64,12.24,1564.33,967.00
294,839.27,823.15,0.00,1537.33,968.33
296,839.59,827.65,2.50,1548.67,973.33
298,839.91,832.15,3.63,1536.00,960.67
300,840.22,836.65,8.51,1574.67,995.33
302,840.54,841.15,0.00,1518.33,956.67
304,840.86,845.65,0.00,1544.00,990.33
306,841.18,850.14,0.00,1533.33,977.67
308,841.50,854.63,0.00,1565.33,1021.00
310,841.81,859.11,0.00,1522.33,971.67
312,842.13,863.60,0.00,1544.00,969.67
314,842.45,868.07,0.00,1539.33,966.67
316,842.77,872.55,0.00,1575.33,983.00
318,843.08,877.03,0.00,1598.33,1005.00
320,843.40,881.50,2.50,1581.00,951.33
322,843.72,885.97,0.00,1623.33,983.67
324,844.04,890.43,0.00,1598.67,963.00
326,844.36,894.89,0.00,1629.67,972.67
328,844.67,899.35,0.00,1679.67,983.33
330,844.99,903.81,0.00,1679.67,959.67
332,845.31,908.26,0.00,1733.00,984.00
334,845.63,912.71,0.00,1750.67,977.00
336,845.95,917.16,0.98,1806.67,974.00
338,846.27,921.61,0.00,2005.67,1152.00
340,846.58,926.05,0.00,1852.33,960.33
342,846.90,930.49,0.00,1887.00,977.67
344,847.22,934.92,0.00,1938.00,969.67
346,847.54,939.36,0.00,1974.00,952.00
348,847.86,943.79,0.00,2039.00,954.67
350,848.18,948.21,0.12,2106.33,962.33
352,848.49,952.64,0.27,2165.00,966.33
354,848.81,957.06,10.89,2233.00,952.00
356,849.13,961.48,52.29,2373.67,990.33
358,849.45,965.89,53.14,2434.67,987.33
360,849.77,970.31,129.09,2567.00,967.00
362,850.09,974.71,208.81,2700.33,967.00
364,850.40,979.12,308.47,2920.67,984.00
366,850.72,983.52,466.63,3206.33,995.00
368,851.04,987.92,636.08,3499.67,954.00
370,851.36,992.32,913.95,4033.00,958.33
372,851.68,996.72,1343.96,4820.33,973.33
374,852.00,1001.11,1971.64,5964.33,963.33
376,852.32,1005.50,2977.77,7740.67,954.00
378,852.63,1009.88,4427.28,10334.67,998.33
380,852.95,1014.26,6365.42,13877.33,976.00
382,853.27,1018.64,9233.62,19040.00,991.67
384,853.59,1023.02,13760.69,26332.00,971.00
386,853.91,1027.39,18906.57,34163.33,960.00
388,854.23,1031.76,22801.86,39952.67,970.33
390,854.55,1036.13,23968.68,41294.00,970.33
392,854.87,1040.49,20903.97,36612.67,970.00
394,855.18,1044.86,14626.09,27637.67,978.67
396,855.50,1049.21,8727.62,18595.67,979.00
398,855.82,1053.57,5194.33,12388.00,979.67
400,856.14,1057.92,3483.37,8997.00,973.33
402,856.46,1062.27,2616.65,7255.33,969.00
404,856.78,1066.62,2096.16,6283.33,960.00
406,857.10,1070.96,1865.63,5831.33,957.33
408,857.42,1075.30,1732.80,5617.67,984.33
410,857.74,1079.64,1643.84,5462.67,964.67
412,858.06,1083.97,1648.05,5470.00,966.67
414,858.37,1088.30,1717.22,5606.33,960.00
416,858.69,1092.63,1891.36,5902.33,958.00
418,859.01,1096.95,2125.15,6260.67,951.33
420,859.33,1101.27,2348.04,6649.33,968.33
422,859.65,1105.59,2561.42,6990.67,970.33
424,859.97,1109.91,2661.89,7127.33,960.33
426,860.29,1114.22,2619.06,7080.33,967.67
428,860.61,1118.53,2469.96,6844.33,955.33
430,860.93,1122.84,2200.14,6439.67,967.33
432,861.25,1127.14,1922.62,6022.00,982.00
434,861.56,1131.44,1629.21,5536.00,957.67
436,861.88,1135.74,1424.39,5212.67,962.00
438,862.20,1140.03,1292.07,5015.67,971.67
440,862.52,1144.32,1249.03,4944.33,967.00
442,862.84,1148.61,1288.35,5009.67,978.00
444,863.16,1152.89,1388.00,5121.00,961.33
446,863.48,1157.17,1441.01,5169.67,961.33
448,863.80,1161.45,1313.94,4985.33,963.33
450,864.12,1165.73,1129.54,4727.00,974.00
452,864.44,1170.00,887.74,4354.67,962.00
454,864.76,1174.27,650.98,4000.33,972.67
456,865.07,1178.53,506.33,3737.67,953.00
458,865.39,1182.80,375.06,3540.67,971.67
460,865.71,1187.06,284.04,3394.67,971.67
462,866.03,1191.31,222.73,3296.67,970.33
464,866.35,1195.57,163.39,3188.00,955.00
466,866.67,1199.82,109.43,3120.00,972.00
468,866.99,1204.06,55.03,3051.00,966.67
470,867.31,1208.31,10.18,2985.00,974.00
472,867.63,1212.55,1.11,2965.00,965.33
474,867.95,1216.79,0.00,2920.33,941.67
476,868.27,1221.02,0.00,2934.33,959.67
478,868.58,1225.25,0.00,2893.67,945.00
480,868.90,1229.48,0.00,2952.00,968.33
482,869.22,1233.71,0.00,2976.33,974.67
484,869.54,1237.93,0.00,3018.00,985.33
486,869.86,1242.15,0.00,3005.67,967.00
488,870.18,1246.36,0.00,3031.67,954.67
490,870.50,1250.58,0.00,3067.00,966.00
492,870.82,1254.79,0.00,3155.67,998.67
494,871.14,1258.99,0.00,3185.67,971.00
496,871.46,1263.20,0.00,3251.00,977.00
498,871.78,1267.40,0.00,3299.67,959.00
500,872.10,1271.59,0.00,3393.67,960.67
502,872.41,1275.79,0.00,3472.33,957.00
504,872.73,1279.98,0.00,3548.33,966.67
506,873.05,1284.17,12.49,3664.33,966.67
508,873.37,1288.35,16.47,3711.00,938.33
510,873.69,1292.53,26.05,3820.00,951.00
512,874.01,1296.71,26.57,3903.33,961.33
514,874.33,1300.88,46.35,3978.00,941.67
516,874.65,1305.06,66.85,4083.67,960.33
518,874.97,1309.22,115.13,4185.00,955.33
520,875.29,1313.39,210.20,4345.67,970.33
522,875.60,1317.55,306.86,4497.00,973.33
524,875.92,1321.71,353.03,4572.33,959.33
526,876.24,1325.87,398.65,4678.00,974.00
528,876.56,1330.02,446.01,4741.00,960.67
530,876.88,1334.17,510.09,4873.33,981.67
532,877.20,1338.32,564.89,4940.00,953.00
534,877.52,1342.46,636.51,5062.00,955.33
536,877.84,1346.60,703.70,5189.00,962.00
538,878.16,1350.73,811.49,5345.33,959.00
540,878.47,1354.87,863.33,5442.00,958.67
542,878.79,1359.00,972.63,5624.00,963.33
544,879.11,1363.13,1067.29,5770.00,965.33
546,879.43,1367.25,1151.64,5902.33,954.00
548,879.75,1371.37,1202.03,5996.67,959.67
550,880.07,1375.49,1290.93,6128.33,955.33
552,880.39,1379.60,1317.50,6209.33,965.33
554,880.71,1383.71,1413.89,6360.00,959.00
556,881.03,1387.82,1557.06,6548.33,950.33
558,881.34,1391.93,1670.85,6727.67,942.33
560,881.66,1396.03,1761.67,6899.00,951.67
562,881.98,1400.13,1915.31,7148.33,974.67
564,882.30,1404.22,2028.80,7312.67,969.67
566,882.62,1408.31,2106.12,7426.33,958.33
568,882.94,1412.40,2167.67,7565.00,972.33
570,883.26,1416.49,2282.07,7735.00,960.00
572,883.57,1420.57,2434.74,7996.00,982.00
574,883.89,1424.65,2586.58,8231.00,950.00
576,884.21,1428.73,2862.47,8719.67,987.67
578,884.53,1432.80,3220.19,9348.00,987.33
580,884.85,1436.87,3888.91,10499.00,961.33
582,885.17,1440.93,4988.83,12306.33,948.00
584,885.49,1445.00,7001.26,15066.00,949.67
586,885.80,1449.06,9332.36,17884.00,951.33
588,886.12,1453.11,10120.06,19137.00,988.33
590,886.44,1457.17,9431.71,18693.33,976.00
592,886.76,1461.22,9014.14,18213.33,973.00
594,887.08,1465.26,8953.47,17946.67,984.00
596,887.40,1469.31,8738.86,17490.33,951.33
598,887.71,1473.35,8398.77,16961.33,960.00
600,888.03,1477.38,7853.23,16130.67,966.00
602,888.35,1481.42,7206.30,15177.00,979.67
604,888.67,1485.45,6444.67,14045.33,971.00
606,888.99,1489.48,5735.09,12965.33,956.33
608,889.31,1493.50,5032.13,11944.33,975.67
610,889.62,1497.52,4455.02,11048.67,964.67
612,889.94,1501.54,4019.44,10345.00,950.33
614,890.26,1505.56,3591.39,9724.00,959.67
616,890.58,1509.57,3233.47,9175.33,962.00
618,890.90,1513.57,3044.17,8855.33,953.00
620,891.21,1517.58,2862.04,8590.67,966.33
622,891.53,1521.58,2701.22,8337.33,968.33
624,891.85,1525.58,2594.50,8157.00,956.67
626,892.17,1529.57,2441.54,7937.67,968.33
628,892.49,1533.57,2380.71,7823.00,967.67
630,892.80,1537.56,2230.83,7604.67,956.33
632,893.12,1541.54,2117.55,7439.33,953.00
634,893.44,1545.52,2010.34,7293.33,976.67
636,893.76,1549.50,1914.25,7116.33,949.00
638,894.07,1553.48,1819.21,6985.00,966.67
640,894.39,1557.45,1675.13,6768.33,952.33
642,894.71,1561.42,1583.43,6656.33,967.33
644,895.03,1565.39,1479.97,6470.67,943.00
646,895.34,1569.35,1395.32,6365.33,974.33
648,895.66,1573.31,1297.72,6209.33,961.00
650,895.98,1577.26,1137.80,5982.00,954.33
652,896.30,1581.22,1021.13,5803.67,944.33
654,896.61,1585.17,901.78,5648.00,963.33
656,896.93,1589.11,802.91,5516.33,974.00
658,897.25,1593.06,708.45,5346.67,949.67
660,897.57,1597.00,578.97,5185.00,966.00
662,897.88,1600.93,447.96,5008.67,965.33
664,898.20,1604.87,380.77,4911.00,967.33
666,898.52,1608.80,312.10,4789.67,953.33
668,898.84,1612.72,251.99,4696.00,942.33
670,899.15,1616.65,172.81,4604.00,970.33
672,899.47,1620.57,117.93,4475.67,939.33
674,899.79,1624.49,69.06,4378.67,952.33
676,900.10,1628.40,70.79,4318.67,947.00
678,900.42,1632.31,20.26,4216.33,966.67
680,900.74,1636.22,3.39,4092.67,939.67
682,901.05,1640.12,0.01,4071.33,992.33
684,901.37,1644.02,0.00,3951.33,956.67
686,901.69,1647.92,0.00,3885.67,964.00
688,902.00,1651.82,0.00,3818.67,948.67
690,902.32,1655.71,5.55,3800.33,949.00
692,902.64,1659.60,19.80,3742.00,944.33
694,902.95,1663.48,26.38,3713.00,969.67
696,903.27,1667.36,12.43,3635.00,952.00
698,903.59,1671.24,0.00,3572.00,982.00
700,903.90,1675.11,0.00,3505.33,963.33
702,904.22,1678.99,0.00,3432.33,945.00
704,904.54,1682.85,0.00,3435.00,992.00
706,904.85,1686.72,0.00,3334.00,951.33
708,905.17,1690.58,0.00,3297.67,961.33
710,905.49,1694.44,0.00,3251.00,945.00
712,905.80,1698.29,7.61,3259.67,963.33
714,906.12,1702.15,4.12,3204.33,964.67
716,906.43,1706.00,4.87,3168.00,968.33
718,906.75,1709.84,2.82,3139.00,980.67
720,907.07,1713.68,9.83,3075.00,949.00
722,907.38,1717.52,0.00,3021.33,966.00
724,907.70,1721.36,4.39,3003.33,958.67
726,908.01,1725.19,0.00,2959.67,972.00
728,908.33,1729.02,0.00,2926.00,965.00
730,908.65,1732.85,14.94,2902.00,955.00
732,908.96,1736.67,0.18,2862.33,965.33
734,909.28,1740.49,0.24,2826.33,958.00
736,909.59,1744.30,0.00,2803.33,970.00
738,909.91,1748.12,16.59,2787.33,954.00
740,910.22,1751.93,0.00,2739.67,972.67
742,910.54,1755.73,18.85,2773.67,993.67
744,910.85,1759.54,0.00,2683.33,978.33
746,911.17,1763.34,0.00,2627.00,947.33
748,911.49,1767.13,0.00,2617.67,957.67
750,911.80,1770.93,0.00,2591.67,951.67
752,912.12,1774.72,0.00,2570.67,966.00
754,912.43,1778.50,0.02,2543.33,942.33
756,912.75,1782.29,6.86,2547.33,948.67
758,913.06,1786.07,6.75,2512.33,941.00
760,913.38,1789.84,14.53,2516.67,956.67
762,913.69,1793.62,21.07,2525.67,973.00
764,914.01,1797.39,16.77,2485.33,956.33
766,914.32,1801.15,25.17,2467.00,949.67
768,914.64,1804.92,0.00,2415.67,949.67
770,914.95,1808.68,9.25,2433.33,961.33
772,915.26,1812.44,0.00,2397.00,969.33
774,915.58,1816.19,5.97,2386.33,945.67
776,915.89,1819.94,36.03,2397.00,956.33
778,916.21,1823.69,31.48,2391.67,970.33
780,916.52,1827.43,27.73,2392.67,983.67
782,916.84,1831.17,40.60,2351.00,942.33
784,917.15,1834.91,40.69,2331.33,944.67
786,917.47,1838.64,50.82,2348.00,966.00
788,917.78,1842.38,59.89,2336.33,956.00
790,918.09,1846.10,57.73,2309.00,951.33
792,918.41,1849.83,82.97,2329.67,963.33
794,918.72,1853.55,48.81,2252.67,930.00
796,919.04,1857.27,42.97,2261.67,957.33
798,919.35,1860.98,50.38,2235.67,949.00
800,919.66,1864.69,83.87,2256.00,953.67
802,919.98,1868.40,73.56,2247.33,962.00
804,920.29,1872.11,75.29,2226.33,951.00
806,920.60,1875.81,96.19,2229.67,951.33
808,920.92,1879.51,102.96,2224.33,954.33
810,921.23,1883.20,99.26,2211.33,961.33
812,921.55,1886.90,97.24,2176.33,945.67
814,921.86,1890.58,106.23,2197.00,970.00
816,922.17,1894.27,93.93,2167.00,971.00
818,922.49,1897.95,91.49,2141.00,960.67
820,922.80,1901.63,69.73,2100.33,955.00
822,923.11,1905.31,83.13,2094.67,953.33
824,923.42,1908.98,86.70,2073.67,962.67
826,923.74,1912.65,97.39,2092.67,968.33
828,924.05,1916.31,0.00,2062.00,1071.00
830,924.36,1919.98,38.54,2033.00,978.67
832,924.68,1923.64,117.17,2030.33,949.67
834,924.99,1927.29,98.71,2012.33,951.33
836,925.30,1930.94,95.54,1988.67,933.33
838,925.61,1934.59,96.45,1987.00,953.67
840,925.93,1938.24,106.19,1976.67,951.00
842,926.24,1941.88,91.84,1953.67,954.67
844,926.55,1945.52,67.18,1914.67,947.67
846,926.86,1949.16,49.32,1892.67,964.00
848,927.18,1952.79,94.35,1898.67,946.67
850,927.49,1956.42,59.06,1855.33,947.33
852,927.80,1960.05,52.37,1902.00,1012.00
854,928.11,1963.67,83.66,1860.67,956.33
856,928.42,1967.29,62.32,1836.67,967.33
858,928.74,1970.91,69.71,1815.67,954.33
860,929.05,1974.52,62.74,1791.67,950.33
862,929.36,1978.13,50.81,1763.33,947.67
864,929.67,1981.74,53.07,1756.67,953.33
866,929.98,1985.35,48.83,1743.67,956.67
868,930.29,1988.95,44.07,1722.00,959.33
870,930.61,1992.54,39.61,1693.00,944.33
872,930.92,1996.14,16.95,1669.67,951.33
874,931.23,1999.73,14.01,1662.33,964.67
876,931.54,2003.32,12.27,1646.00,967.00
878,931.85,2006.90,24.07,1635.00,954.33
880,932.16,2010.48,29.54,1618.33,948.33
882,932.47,2014.06,42.60,1614.67,946.33
884,932.78,2017.63,25.25,1602.33,956.33
886,933.09,2021.21,29.61,1589.00,950.67
888,933.41,2024.77,42.18,1599.33,967.00
890,933.72,2028.34,41.19,1598.67,981.00
892,934.03,2031.90,59.65,1589.00,962.67
894,934.34,2035.46,45.43,1569.00,965.33
896,934.65,2039.01,43.19,1536.00,947.67
898,934.96,2042.57,82.23,1569.00,961.33
900,935.27,2046.11,61.21,1551.00,975.33
902,935.58,2049.66,53.79,1490.33,932.00
904,935.89,2053.20,40.50,1493.00,960.67
906,936.20,2056.74,31.81,1474.33,960.67
908,936.51,2060.28,24.00,1450.00,956.67
910,936.82,2063.81,18.92,1440.33,965.33
912,937.13,2067.34,9.77,1410.67,958.67
914,937.44,2070.86,27.08,1412.00,954.00
916,937.75,2074.39,0.78,1365.33,945.00
918,938.06,2077.91,4.74,1365.67,950.67
920,938.37,2081.42,4.07,1354.67,954.33
922,938.68,2084.94,5.54,1338.67,949.33
924,938.99,2088.45,3.42,1329.33,952.33
926,939.30,2091.95,0.00,1327.33,970.33
928,939.60,2095.46,4.49,1306.33,949.67
930,939.91,2098.96,0.00,1315.00,976.67
932,940.22,2102.45,0.00,1283.33,956.67
934,940.53,2105.95,10.14,1273.33,938.00
936,940.84,2109.44,8.44,1271.00,945.67
938,941.15,2112.92,0.00,1264.67,958.33
940,941.46,2116.41,9.90,1260.67,943.67
942,941.77,2119.89,6.93,1267.00,962.67
944,942.07,2123.37,10.11,1260.33,951.33
946,942.38,2126.84,0.06,1256.00,966.67
948,942.69,2130.31,0.00,1242.00,969.00
950,943.00,2133.78,13.15,1242.00,951.00
952,943.31,2137.24,0.00,1236.00,964.00
954,943.62,2140.70,6.06,1239.33,961.33
956,943.92,2144.16,0.00,1218.33,953.33
958,944.23,2147.62,3.95,1235.33,965.33
960,944.54,2151.07,0.00,1231.00,976.00
962,944.85,2154.52,6.09,1248.67,983.00
964,945.16,2157.96,0.00,1234.67,978.00
966,945.46,2161.40,12.77,1229.00,962.33
968,945.77,2164.84,4.39,1196.67,937.67
970,946.08,2168.28,0.00,1206.33,955.00
972,946.39,2171.71,0.00,1201.33,953.67
974,946.69,2175.14,9.58,1212.67,955.00
976,947.00,2178.57,10.26,1210.00,954.67
978,947.31,2181.99,9.76,1196.33,942.67
980,947.61,2185.41,6.27,1209.33,960.00
982,947.92,2188.82,6.66,1217.00,966.67
984,948.23,2192.24,5.45,1190.33,942.67
986,948.53,2195.65,18.65,1213.67,957.67
988,948.84,2199.05,19.84,1189.33,933.00
990,949.15,2202.46,36.03,1231.00,960.00
992,949.45,2205.86,46.81,1228.00,953.33
994,949.76,2209.25,46.67,1212.00,939.00
996,950.07,2212.65,49.94,1225.33,945.67
998,950.37,2216.04,52.77,1219.33,940.33
1000,950.68,2219.43,75.94,1243.00,949.00
1002,950.98,2222.81,75.60,1253.33,959.67
1004,951.29,2226.19,88.26,1249.67,948.67
1006,951.60,2229.57,96.84,1243.00,936.67
1008,951.90,2232.94,86.68,1239.67,939.00
1010,952.21,2236.32,95.71,1253.67,948.33
1012,952.51,2239.68,101.43,1265.67,960.33
1014,952.82,2243.05,89.14,1232.67,936.67
1016,953.12,2246.41,87.33,1268.67,977.67
1018,953.43,2249.77,98.27,1285.00,989.00
1020,953.73,2253.12,77.63,1248.00,965.67
1022,954.04,2256.48,78.30,1215.33,934.67
1024,954.34,2259.83,77.03,1243.67,967.67
1026,954.65,2263.17,73.64,1218.00,945.00
1028,954.95,2266.51,74.71,1223.33,952.33
1030,955.26,2269.85,72.59,1238.00,973.00
1032,955.56,2273.19,92.91,1240.33,961.33
1034,955.87,2276.52,61.96,1231.00,974.00
1036,956.17,2279.85,75.32,1238.67,972.33
1038,956.48,2283.18,85.45,1204.00,935.00
1040,956.78,2286.50,67.85,1205.67,948.33
1042,957.08,2289.82,62.62,1193.67,941.00
1044,957.39,2293.14,102.23,1237.00,958.67
1046,957.69,2296.45,106.07,1223.00,944.33
1048,957.99,2299.76,118.46,1259.33,970.33
1050,958.30,2303.07,136.14,1255.67,956.33
1052,958.60,2306.38,140.39,1256.00,957.67
1054,958.91,2309.68,132.51,1252.00,961.33
1056,959.21,2312.98,128.81,1225.67,937.00
1058,959.51,2316.27,89.03,1216.00,956.33
1060,959.82,2319.56,75.01,1217.00,970.00
1062,960.12,2322.85,68.43,1187.33,949.00
1064,960.42,2326.14,69.96,1175.00,940.33
1066,960.72,2329.42,80.75,1187.67,950.67
1068,961.03,2332.70,34.76,1168.00,961.33
1070,961.33,2335.97,22.11,1159.33,960.00
1072,961.63,2339.25,11.42,1136.00,949.67
1074,961.93,2342.52,14.10,1134.67,950.00
1076,962.24,2345.78,8.64,1134.33,953.67
1078,962.54,2349.05,4.49,1135.33,956.67
1080,962.84,2352.31,0.00,1132.33,962.00
1082,963.14,2355.56,0.00,1117.33,948.67
1084,963.45,2358.82,0.00,1115.00,950.33
1086,963.75,2362.07,4.45,1129.00,957.33
1088,964.05,2365.32,0.00,1145.33,979.00
1090,964.35,2368.56,6.16,1123.33,952.00
1092,964.65,2371.80,0.08,1133.33,967.00
1094,964.95,2375.04,0.00,1118.67,955.67
1096,965.25,2378.27,0.49,1118.00,948.67
1098,965.56,2381.51,19.18,1135.33,955.00
1100,965.86,2384.73,12.61,1134.00,959.00
1102,966.16,2387.96,5.66,1118.33,942.33
1104,966.46,2391.18,0.60,1140.00,969.00
1106,966.76,2394.40,8.16,1129.67,951.00
1108,967.06,2397.62,0.00,1143.67,975.33
1110,967.36,2400.83,13.12,1127.00,944.33
1112,967.66,2404.04,6.20,1155.67,973.33
1114,967.96,2407.25,0.93,1120.33,939.00
1116,968.26,2410.45,0.00,1140.00,958.67
1118,968.56,2413.65,0.00,1129.67,950.67
1120,968.86,2416.85,0.82,1171.33,983.00
1122,969.16,2420.04,0.00,1146.67,963.00
1124,969.46,2423.23,11.12,1147.67,946.33
1126,969.76,2426.42,21.63,1164.67,956.67
1128,970.06,2429.60,6.87,1139.00,935.00
1130,970.36,2432.79,33.65,1173.67,949.67
1132,970.66,2435.96,5.54,1157.67,949.00
1134,970.96,2439.14,21.04,1176.00,950.67
1136,971.26,2442.31,28.49,1196.00,967.67
1138,971.56,2445.48,24.95,1183.00,955.00
1140,971.86,2448.65,25.10,1182.33,947.67
1142,972.16,2451.81,23.63,1201.33,964.00
1144,972.45,2454.97,47.08,1212.67,959.33
1146,972.75,2458.13,72.04,1222.00,953.00
1148,973.05,2461.28,61.25,1213.67,947.00
1150,973.35,2464.43,86.65,1251.33,964.00
1152,973.65,2467.58,96.61,1246.67,951.33
1154,973.95,2470.72,126.81,1265.67,951.33
1156,974.24,2473.86,128.08,1267.33,951.00
1158,974.54,2477.00,136.93,1269.33,945.00
1160,974.84,2480.13,141.06,1287.33,958.00
1162,975.14,2483.27,136.14,1279.67,949.67
1164,975.43,2486.40,125.65,1269.00,943.00
1166,975.73,2489.52,121.93,1274.00,948.67
1168,976.03,2492.64,122.66,1272.00,945.00
1170,976.33,2495.76,114.77,1284.33,960.00
1172,976.62,2498.88,107.90,1271.33,947.67
1174,976.92,2501.99,107.24,1299.33,974.33
1176,977.22,2505.10,130.12,1299.33,958.67
1178,977.51,2508.21,115.03,1291.67,959.33
1180,977.81,2511.31,146.21,1303.33,952.00
1182,978.11,2514.41,126.75,1297.00,953.00
1184,978.40,2517.51,161.48,1319.67,951.67
1186,978.70,2520.61,167.00,1331.67,960.67
1188,979.00,2523.70,177.54,1344.67,968.33
1190,979.29,2526.79,230.24,1350.00,943.00
1192,979.59,2529.87,203.93,1355.67,958.67
1194,979.88,2532.95,220.57,1354.67,942.33
1196,980.18,2536.03,255.03,1395.00,965.67
1198,980.48,2539.11,305.02,1424.67,974.00
1200,980.77,2542.18,328.43,1419.00,951.33
1202,981.07,2545.25,309.83,1433.33,969.67
1204,981.36,2548.32,330.69,1427.67,953.33
1206,981.66,2551.38,331.06,1440.67,968.67
1208,981.95,2554.44,363.60,1454.33,963.33
1210,982.25,2557.50,349.83,1468.33,980.33
1212,982.54,2560.56,343.19,1471.00,985.33
1214,982.84,2563.61,367.98,1484.33,985.33
1216,983.13,2566.66,350.65,1466.33,976.33
1218,983.43,2569.70,376.50,1475.00,972.67
1220,983.72,2572.74,397.53,1479.00,966.67
1222,984.01,2575.78,413.52,1485.33,963.33
1224,984.31,2578.82,386.02,1456.00,947.00
1226,984.60,2581.85,409.12,1484.00,961.33
1228,984.90,2584.88,376.28,1455.00,949.00
1230,985.19,2587.91,401.15,1481.00,962.00
1232,985.48,2590.93,389.67,1485.67,972.67
1234,985.78,2593.96,408.61,1486.33,966.67
1236,986.07,2596.97,431.72,1491.67,962.00
1238,986.36,2599.99,395.13,1497.33,984.67
1240,986.66,2603.00,409.10,1503.00,980.00
1242,986.95,2606.01,330.56,1469.67,985.00
1244,987.24,2609.01,396.18,1479.67,968.00
1246,987.54,2612.02,363.07,1429.67,935.67
1248,987.83,2615.02,280.69,1430.33,972.00
1250,988.12,2618.01,278.68,1435.33,978.67
1252,988.41,2621.01,273.47,1422.67,968.67
1254,988.71,2624.00,222.30,1389.33,956.00
1256,989.00,2626.99,167.22,1382.00,975.00
1258,989.29,2629.97,152.72,1365.67,969.33
1260,989.58,2632.95,146.87,1365.33,974.67
1262,989.87,2635.93,118.14,1350.00,970.33
1264,990.16,2638.91,96.54,1331.67,957.67
1266,990.46,2641.88,66.58,1334.33,973.67
1268,990.75,2644.85,49.50,1343.00,991.00
1270,991.04,2647.81,37.63,1314.00,967.33
1272,991.33,2650.78,23.59,1310.67,972.00
1274,991.62,2653.74,43.71,1315.67,969.33
1276,991.91,2656.70,25.97,1312.33,965.33
1278,992.20,2659.65,0.00,1302.00,972.67
1280,992.49,2662.60,0.00,1284.67,960.67
1282,992.78,2665.55,0.00,1320.33,992.33
1284,993.07,2668.50,1.63,1320.67,984.67
1286,993.36,2671.44,0.05,1316.67,980.33
1288,993.65,2674.38,0.00,1324.67,988.00
1290,993.94,2677.31,0.32,1313.00,972.33
1292,994.23,2680.25,0.00,1314.33,974.67
1294,994.52,2683.18,0.16,1316.67,971.00
1296,994.81,2686.10,0.00,1310.00,973.00
1298,995.10,2689.03,28.72,1329.33,967.33
1300,995.39,2691.95,0.00,1323.33,970.67
1302,995.68,2694.87,0.82,1345.33,983.33
1304,995.97,2697.78,0.00,1346.33,989.33
1306,996.26,2700.70,0.00,1324.00,957.00
1308,996.55,2703.61,0.00,1353.33,974.00
1310,996.84,2706.51,0.00,1366.33,986.33
1312,997.13,2709.42,0.00,1371.33,976.67
1314,997.41,2712.32,26.74,1403.33,980.33
1316,997.70,2715.21,0.00,1393.67,967.33
1318,997.99,2718.11,0.79,1418.33,976.00
1320,998.28,2721.00,0.00,1409.00,957.67
1322,998.57,2723.89,0.00,1455.67,987.00
1324,998.86,2726.77,0.00,1437.33,957.33
1326,999.14,2729.66,23.10,1482.00,968.33
1328,999.43,2732.54,1.76,1490.00,964.00
1330,999.72,2735.41,0.00,1516.33,972.33
1332,1000.01,2738.29,0.00,1548.67,992.67
1334,1000.29,2741.16,0.00,1549.00,971.33
1336,1000.58,2744.03,0.00,1561.33,960.67
1338,1000.87,2746.89,0.00,1615.00,985.67
1340,1001.15,2749.75,0.00,1625.67,975.33
1342,1001.44,2752.61,0.00,1666.67,974.00
1344,1001.73,2755.47,0.00,1701.67,969.33
1346,1002.01,2758.32,0.00,1740.00,970.33
1348,1002.30,2761.17,0.00,1803.67,989.33
1350,1002.59,2764.02,0.00,1843.33,988.67
1352,1002.87,2766.86,0.00,1895.33,966.00
1354,1003.16,2769.70,0.00,1951.00,961.67
1356,1003.44,2772.54,0.00,1991.33,959.33
1358,1003.73,2775.38,0.00,2101.33,977.33
1360,1004.01,2778.21,1.72,2156.67,965.00
1362,1004.30,2781.04,76.55,2272.33,967.67
1364,1004.58,2783.87,258.14,2377.00,964.67
1366,1004.87,2786.69,602.11,2495.33,949.00
1368,1005.15,2789.51,1031.89,2663.33,977.00
1370,1005.44,2792.33,1522.19,2833.67,984.33
1372,1005.72,2795.14,2002.89,3013.67,981.00
1374,1006.01,2797.95,2630.95,3261.67,989.33
1376,1006.29,2800.76,3490.19,3534.33,962.00
1378,1006.58,2803.57,4549.92,3937.33,1004.00
1380,1006.86,2806.37,5891.21,4370.33,971.67
1382,1007.14,2809.17,7645.01,4971.00,969.33
1384,1007.43,2811.97,10011.31,5770.00,967.33
1386,1007.71,2814.77,12919.61,6741.00,964.67
1388,1008.00,2817.56,16974.50,8084.33,962.00
1390,1008.28,2820.35,22207.28,9829.00,986.67
1392,1008.56,2823.13,29131.14,12009.33,969.00
1394,1008.85,2825.91,37876.90,14565.00,988.00
1396,1009.13,2828.69,49253.12,17464.67,981.00
1398,1009.41,2831.47,60762.33,19998.00,988.67
1400,1009.69,2834.24,67352.66,21212.67,962.67
1402,1009.98,2837.02,64443.81,20509.67,981.67
1404,1010.26,2839.78,53914.10,18142.00,988.33
1406,1010.54,2842.55,42285.65,15276.33,963.33
1408,1010.82,2845.31,32478.69,12578.33,974.33
1410,1011.11,2848.07,25278.81,10382.00,987.33
1412,1011.39,2850.83,20431.59,8774.67,979.33
1414,1011.67,2853.58,16953.55,7600.33,979.33
1416,1011.95,2856.33,14342.44,6742.33,981.67
1418,1012.23,2859.08,12281.97,6081.33,976.33
1420,1012.51,2861.83,10892.07,5631.67,967.00
1422,1012.80,2864.57,9744.26,5305.67,1002.67
1424,1013.08,2867.31,9003.59,5053.33,989.00
1426,1013.36,2870.04,8323.17,4835.33,985.00
1428,1013.64,2872.78,7951.75,4704.00,976.00
1430,1013.92,2875.51,7859.19,4689.67,1004.00
1432,1014.20,2878.24,7773.66,4632.67,982.33
1434,1014.48,2880.96,7805.28,4623.00,975.00
1436,1014.76,2883.68,8119.73,4677.33,958.67
1438,1015.04,2886.40,8498.97,4774.00,971.00
1440,1015.32,2889.12,9100.43,4934.67,988.00
1442,1015.60,2891.83,9786.28,5084.33,972.33
1444,1015.88,2894.54,10731.78,5319.67,979.00
1446,1016.16,2897.25,11787.23,5555.33,959.00
1448,1016.44,2899.96,12858.98,5842.00,985.67
1450,1016.72,2902.66,14296.78,6177.67,975.67
1452,1017.00,2905.36,15899.61,6567.33,998.67
1454,1017.28,2908.06,17960.17,6986.00,961.33
1456,1017.55,2910.75,19892.01,7426.67,986.67
1458,1017.83,2913.44,21637.73,7793.33,970.33
1460,1018.11,2916.13,23200.07,8155.67,975.00
1462,1018.39,2918.81,24784.74,8540.67,983.00
1464,1018.67,2921.49,26419.18,8910.00,973.33
1466,1018.95,2924.17,28477.78,9370.33,974.67
1468,1019.22,2926.85,30709.48,9876.00,986.00
1470,1019.50,2929.52,33521.03,10476.00,961.33
1472,1019.78,2932.20,36652.06,11121.00,963.67
1474,1020.06,2934.86,40939.17,11953.33,978.00
1476,1020.33,2937.53,44853.77,12652.00,999.33
1478,1020.61,2940.19,47781.78,13098.33,984.00
1480,1020.89,2942.85,49727.98,13376.00,988.67
1482,1021.17,2945.51,49144.39,13147.33,982.33
1484,1021.44,2948.16,46634.98,12590.33,983.33
1486,1021.72,2950.81,42556.10,11742.67,970.00
1488,1022.00,2953.46,37399.86,10713.00,998.67
1490,1022.27,2956.11,32684.21,9686.67,978.00
1492,1022.55,2958.75,28907.72,8850.00,985.33
1494,1022.82,2961.39,25371.47,8041.00,981.00
1496,1023.10,2964.03,22447.73,7373.33,994.00
1498,1023.38,2966.66,20642.72,6909.67,973.00
1500,1023.65,2969.29,18806.66,6491.67,987.00
1502,1023.93,2971.92,17135.94,6115.67,994.67
1504,1024.20,2974.55,15986.18,5832.33,991.33
1506,1024.48,2977.17,15292.31,5636.33,986.00
1508,1024.75,2979.79,14465.27,5403.00,961.33
1510,1025.03,2982.41,13584.22,5210.00,979.67
1512,1025.30,2985.02,12777.14,5000.67,964.00
1514,1025.58,2987.63,11956.39,4835.67,984.33
1516,1025.85,2990.24,10856.29,4597.33,973.00
1518,1026.13,2992.85,9703.73,4380.33,991.00
1520,1026.40,2995.45,8794.35,4186.00,985.00
1522,1026.68,2998.05,7626.69,3939.67,973.00
1524,1026.95,3000.65,6763.88,3780.67,988.33
1526,1027.22,3003.25,5733.42,3562.33,976.33
1528,1027.50,3005.84,4935.96,3385.67,961.33
1530,1027.77,3008.43,4116.84,3244.00,980.33
1532,1028.04,3011.02,3295.97,3090.67,984.00
1534,1028.32,3013.60,2636.54,2954.67,978.67
1536,1028.59,3016.18,1970.28,2826.33,978.33
1538,1028.86,3018.76,1414.24,2699.00,943.67
1540,1029.14,3021.34,674.12,2603.33,976.00
1542,1029.41,3023.91,284.26,2502.33,965.00
1544,1029.68,3026.48,113.69,2423.33,954.33
1546,1029.95,3029.05,19.44,2364.00,980.33
1548,1030.22,3031.61,0.00,2283.33,968.67
1550,1030.50,3034.17,26.53,2238.67,958.67
1552,1030.77,3036.73,0.00,2169.67,964.67
1554,1031.04,3039.29,0.00,2143.00,981.67
1556,1031.31,3041.84,0.00,2071.33,953.33
1558,1031.58,3044.39,0.00,2084.33,994.00
1560,1031.85,3046.94,0.00,2050.33,986.67
1562,1032.13,3049.49,0.00,1993.33,966.00
1564,1032.40,3052.03,0.00,1978.33,982.67
1566,1032.67,3054.57,0.00,1913.00,964.33
1568,1032.94,3057.11,31.69,1938.00,995.00
1570,1033.21,3059.64,0.00,1866.00,958.67
1572,1033.48,3062.18,0.00,1857.33,985.67
1574,1033.75,3064.70,7.27,1842.33,983.67
1576,1034.02,3067.23,0.02,1817.00,984.33
1578,1034.29,3069.75,0.00,1758.67,958.00
1580,1034.56,3072.28,0.00,1752.67,978.00
1582,1034.83,3074.79,0.00,1722.67,956.33
1584,1035.10,3077.31,22.63,1727.33,976.00
1586,1035.37,3079.82,79.42,1703.00,962.67
1588,1035.64,3082.33,0.00,1703.67,994.00
1590,1035.91,3084.84,0.00,1666.00,981.00
1592,1036.17,3087.34,0.00,1639.33,970.67
1594,1036.44,3089.85,27.63,1667.67,1001.33
1596,1036.71,3092.35,111.86,1620.00,962.33
1598,1036.98,3094.84,0.00,1583.00,962.67
1600,1037.25,3097.34,1.97,1575.33,955.67
1602,1037.52,3099.83,0.00,1566.67,970.00
1604,1037.78,3102.32,63.54,1579.00,972.33
1606,1038.05,3104.80,1.21,1573.00,989.33
1608,1038.32,3107.29,35.48,1547.33,971.00
1610,1038.59,3109.77,149.31,1549.67,970.67
1612,1038.85,3112.24,0.00,1522.00,971.33
1614,1039.12,3114.72,8.36,1531.67,989.00
1616,1039.39,3117.19,0.00,1481.00,949.67
1618,1039.66,3119.66,0.00,1509.67,985.33
1620,1039.92,3122.13,0.00,1505.67,990.33
1622,1040.19,3124.59,0.00,1487.67,980.33
1624,1040.45,3127.05,9.95,1468.00,962.67
1626,1040.72,3129.51,61.62,1479.00,976.33
1628,1040.99,3131.97,73.31,1486.00,988.00
1630,1041.25,3134.42,0.00,1482.00,1007.00
1632,1041.52,3136.87,36.03,1439.67,953.33
1634,1041.78,3139.32,0.00,1445.00,974.67
1636,1042.05,3141.77,44.53,1499.67,1026.33
1638,1042.32,3144.21,109.73,1447.33,970.67
1640,1042.58,3146.65,0.00,1457.33,1002.67
1642,1042.85,3149.09,121.71,1461.33,985.67
1644,1043.11,3151.52,54.16,1437.67,978.33
1646,1043.38,3153.96,160.27,1455.67,989.00
1648,1043.64,3156.39,223.43,1437.00,970.67
1650,1043.90,3158.81,337.42,1441.00,969.67
1652,1044.17,3161.24,260.14,1440.00,982.33
1654,1044.43,3163.66,446.40,1429.67,958.33
1656,1044.70,3166.08,429.91,1472.00,1005.00
1658,1044.96,3168.49,404.04,1442.00,979.67
1660,1045.22,3170.91,352.11,1422.00,970.33
1662,1045.49,3173.32,630.09,1450.67,978.00
1664,1045.75,3175.73,616.36,1452.33,986.67
1666,1046.01,3178.13,547.76,1422.67,966.33
1668,1046.28,3180.54,611.09,1448.00,990.00
1670,1046.54,3182.94,824.51,1464.00,992.33
1672,1046.80,3185.34,962.68,1461.33,983.00
1674,1047.07,3187.73,846.95,1435.33,972.33
1676,1047.33,3190.12,1041.92,1460.67,982.33
1678,1047.59,3192.51,920.25,1446.67,984.00
1680,1047.85,3194.90,1246.06,1487.00,998.33
1682,1048.11,3197.29,1192.18,1468.33,990.67
1684,1048.38,3199.67,1460.11,1481.33,986.33
1686,1048.64,3202.05,1424.21,1482.67,999.00
1688,1048.90,3204.43,1831.69,1490.33,974.67
1690,1049.16,3206.80,1649.02,1473.67,975.33
1692,1049.42,3209.17,1746.80,1496.67,994.67
1694,1049.68,3211.54,1820.67,1475.00,975.33
1696,1049.94,3213.91,2136.30,1500.67,980.00
1698,1050.20,3216.27,2066.62,1502.33,990.00
1700,1050.46,3218.63,2109.00,1518.00,1006.33
1702,1050.72,3220.99,2257.98,1502.00,985.67
1704,1050.98,3223.35,2503.17,1523.33,993.67
1706,1051.24,3225.70,2476.92,1500.00,976.67
1708,1051.50,3228.05,2635.86,1499.33,967.67
1710,1051.76,3230.40,2780.11,1529.00,992.67
1712,1052.02,3232.75,2944.65,1525.33,982.67
1714,1052.28,3235.09,2962.97,1543.00,1003.33
1716,1052.54,3237.43,2865.98,1512.67,984.33
1718,1052.80,3239.77,3015.42,1509.33,974.67
1720,1053.06,3242.11,3122.82,1514.67,979.67
1722,1053.32,3244.44,3400.28,1507.67,960.33
1724,1053.58,3246.77,3589.42,1560.00,1004.33
1726,1053.84,3249.10,3461.83,1530.67,987.00
1728,1054.10,3251.42,3366.74,1520.33,988.00
1730,1054.35,3253.75,3719.75,1527.67,976.67
1732,1054.61,3256.07,3709.62,1539.67,995.67
1734,1054.87,3258.39,3637.73,1518.33,984.00
1736,1055.13,3260.70,3718.22,1514.67,981.00
1738,1055.38,3263.01,3943.45,1517.00,975.33
1740,1055.64,3265.32,4185.62,1537.67,985.00
1742,1055.90,3267.63,3918.53,1497.00,966.67
1744,1056.16,3269.94,4187.07,1535.33,991.67
1746,1056.41,3272.24,4203.33,1542.00,1004.67
1748,1056.67,3274.54,4660.91,1545.33,984.33
1750,1056.93,3276.84,4155.94,1517.00,994.67
1752,1057.18,3279.13,4287.51,1502.33,976.33
1754,1057.44,3281.42,4275.54,1492.67,972.67
1756,1057.69,3283.71,4182.04,1487.33,977.67
1758,1057.95,3286.00,4358.78,1516.67,999.00
1760,1058.21,3288.28,4126.44,1474.33,976.67
1762,1058.46,3290.57,4368.13,1500.00,996.00
1764,1058.72,3292.85,4529.77,1491.67,987.33
1766,1058.97,3295.12,4449.82,1463.00,968.33
1768,1059.23,3297.40,4413.22,1465.33,974.00
1770,1059.48,3299.67,4462.86,1488.33,996.33
1772,1059.74,3301.94,4469.49,1453.67,967.33
1774,1059.99,3304.21,4464.19,1474.00,996.33
1776,1060.25,3306.47,4799.59,1484.67,994.67
1778,1060.50,3308.73,4555.32,1450.67,979.00
1780,1060.76,3310.99,4615.59,1441.00,969.67
1782,1061.01,3313.25,4512.24,1443.00,982.33
1784,1061.26,3315.50,4576.19,1443.00,982.33
1786,1061.52,3317.76,4512.86,1446.33,992.33
1788,1061.77,3320.01,4820.59,1462.00,997.33
1790,1062.02,3322.25,5125.90,1445.33,973.33
1792,1062.28,3324.50,4922.56,1435.67,981.67
1794,1062.53,3326.74,5003.15,1419.33,964.67
1796,1062.78,3328.98,4746.37,1419.33,980.33
1798,1063.04,3331.22,4822.24,1415.33,975.00
1800,1063.29,3333.45,4698.53,1405.00,975.33
1802,1063.54,3335.68,4539.73,1394.33,978.33
1804,1063.79,3337.91,4752.77,1412.00,990.67
1806,1064.05,3340.14,4875.17,1429.67,1007.00
1808,1064.30,3342.36,4889.57,1381.67,963.00
1810,1064.55,3344.59,4854.86,1404.00,992.67
1812,1064.80,3346.81,4923.80,1391.00,982.33
1814,1065.05,3349.02,4908.46,1379.67,976.33
1816,1065.30,3351.24,4869.19,1393.33,993.67
1818,1065.55,3353.45,4673.53,1367.00,977.00
1820,1065.81,3355.66,4556.88,1393.33,1012.00
1822,1066.06,3357.87,4564.23,1362.67,989.00
1824,1066.31,3360.07,5264.86,1355.33,958.67
1826,1066.56,3362.27,5219.27,1381.67,991.00
1828,1066.81,3364.47,4760.82,1337.33,967.33
1830,1067.06,3366.67,4961.71,1358.67,981.67
1832,1067.31,3368.87,4875.47,1344.33,976.67
1834,1067.56,3371.06,4896.17,1314.00,951.67
1836,1067.81,3373.25,5092.63,1323.33,956.67
1838,1068.06,3375.44,4679.35,1311.33,964.00
1840,1068.31,3377.62,4783.74,1319.00,969.67
1842,1068.56,3379.81,4607.57,1304.33,968.33
1844,1068.80,3381.99,5114.82,1350.00,1000.00
1846,1069.05,3384.16,4955.26,1323.33,983.67
1848,1069.30,3386.34,4727.42,1305.67,976.00
1850,1069.55,3388.51,4648.51,1295.00,969.00
1852,1069.80,3390.68,4632.03,1300.67,977.33
1854,1070.05,3392.85,4352.35,1318.00,1010.67
1856,1070.30,3395.02,4698.82,1292.67,978.33
1858,1070.54,3397.18,4632.08,1272.33,966.33
1860,1070.79,3399.34,4828.23,1282.00,972.33
1862,1071.04,3401.50,4646.46,1269.33,969.67
1864,1071.29,3403.66,4716.70,1248.33,949.00
1866,1071.53,3405.81,4871.89,1283.00,979.00
1868,1071.78,3407.96,4281.29,1255.67,973.00
1870,1072.03,3410.11,3882.44,1252.33,985.67
1872,1072.27,3412.26,4210.59,1255.67,981.67
1874,1072.52,3414.40,4584.93,1255.67,975.33
1876,1072.77,3416.54,4674.58,1247.00,969.00
1878,1073.01,3418.68,4382.86,1257.33,991.67
1880,1073.26,3420.82,4190.59,1203.67,945.67
1882,1073.51,3422.96,4413.69,1247.33,983.33
1884,1073.75,3425.09,4373.50,1231.00,971.00
1886,1074.00,3427.22,4130.48,1212.00,963.33
1888,1074.24,3429.35,4372.79,1251.67,998.33
1890,1074.49,3431.47,3895.78,1206.67,972.67
1892,1074.73,3433.59,4036.54,1198.00,962.67
1894,1074.98,3435.71,3936.49,1223.67,993.00
1896,1075.22,3437.83,4078.65,1214.33,979.00
1898,1075.47,3439.95,3252.96,1196.33,989.00
1900,1075.71,3442.06,4013.34,1218.00,990.33
1902,1075.96,3444.17,4052.68,1194.00,970.33
1904,1076.20,3446.28,3637.73,1144.33,937.33
1906,1076.44,3448.38,4179.74,1221.33,1000.67
1908,1076.69,3450.49,3773.72,1200.67,991.67
1910,1076.93,3452.59,3403.52,1181.33,982.00
1912,1077.17,3454.69,3244.53,1169.00,975.67
1914,1077.42,3456.79,3625.31,1179.00,979.33
1916,1077.66,3458.88,3985.97,1166.67,963.33
1918,1077.90,3460.97,4367.21,1173.00,963.33
1920,1078.15,3463.06,3936.85,1187.33,989.33
1922,1078.39,3465.15,3417.55,1167.33,982.33
1924,1078.63,3467.23,3474.73,1138.67,953.00
1926,1078.87,3469.32,3486.69,1165.00,983.00
1928,1079.12,3471.40,3471.39,1143.33,965.67
1930,1079.36,3473.47,3522.65,1190.00,1012.33
1932,1079.60,3475.55,2980.42,1123.33,960.00
1934,1079.84,3477.62,2926.95,1144.33,983.33
1936,1080.08,3479.69,3183.36,1133.00,967.67
1938,1080.33,3481.76,3346.02,1119.67,953.00
1940,1080.57,3483.83,3216.17,1136.00,975.33
1942,1080.81,3485.89,3046.81,1130.33,976.67
1944,1081.05,3487.95,3302.11,1141.00,983.00
1946,1081.29,3490.01,3073.61,1127.67,975.00
1948,1081.53,3492.07,2669.02,1110.00,966.67
1950,1081.77,3494.12,2626.03,1109.33,968.67
1952,1082.01,3496.18,2906.68,1127.33,984.00
1954,1082.25,3498.23,3061.50,1109.33,966.33
1956,1082.49,3500.27,3381.64,1123.00,973.67
1958,1082.73,3502.32,2649.37,1091.67,958.33
1960,1082.97,3504.36,2342.46,1112.67,986.67
1962,1083.21,3506.40,2256.96,1092.33,969.67
1964,1083.45,3508.44,2386.07,1080.67,956.33
1966,1083.69,3510.48,2363.09,1124.67,1002.67
1968,1083.93,3512.51,2571.24,1107.00,983.67
1970,1084.16,3514.54,3353.81,1100.67,964.00
1972,1084.40,3516.57,2557.54,1088.67,969.00
1974,1084.64,3518.60,1892.94,1076.00,969.67
1976,1084.88,3520.62,1885.40,1098.00,992.67
1978,1085.12,3522.65,2162.12,1105.33,997.00
1980,1085.36,3524.67,1909.96,1074.67,974.00
1982,1085.59,3526.68,2165.41,1067.67,962.00
1984,1085.83,3528.70,1384.50,1084.33,993.67
1986,1086.07,3530.71,1395.33,1060.00,969.00
1988,1086.31,3532.72,1458.79,1076.67,986.67
1990,1086.54,3534.73,1937.80,1058.33,962.67
1992,1086.78,3536.74,1825.08,1085.67,994.33
1994,1087.02,3538.74,1578.59,1065.33,977.67
1996,1087.25,3540.74,1557.54,1045.67,956.00
1998,1087.49,3542.74,924.03,1053.67,977.33
2000,1087.73,3544.74,1465.23,1058.00,973.00
2002,1087.96,3546.74,1441.92,1056.33,976.00
2004,1088.20,3548.73,1624.88,1081.00,999.33
2006,1088.43,3550.72,2010.46,1061.33,971.00
2008,1088.67,3552.71,764.88,1040.33,972.00
2010,1088.90,3554.69,1141.79,1030.33,955.00
2012,1089.14,3556.68,1286.80,1053.67,978.33
2014,1089.38,3558.66,1548.36,1030.33,953.00
2016,1089.61,3560.64,1407.13,1031.67,957.67
2018,1089.84,3562.62,1312.43,1047.00,974.67
2020,1090.08,3564.59,992.77,1031.33,964.67
2022,1090.31,3566.56,1300.41,1028.33,956.67
2024,1090.55,3568.53,592.58,1027.33,969.00
2026,1090.78,3570.50,860.50,1017.33,955.67
2028,1091.02,3572.47,789.99,1013.00,953.33
2030,1091.25,3574.43,717.68,1014.67,956.33
2032,1091.48,3576.39,544.56,988.33,933.00
2034,1091.72,3578.35,930.56,998.67,937.33
2036,1091.95,3580.31,239.11,1009.33,960.67
2038,1092.18,3582.26,810.81,995.67,940.00
2040,1092.42,3584.22,771.53,988.00,934.33
2042,1092.65,3586.17,581.37,999.33,947.67
2044,1092.88,3588.12,220.16,983.33,934.67
2046,1093.11,3590.06,0.00,981.33,940.33
2047,1093.23,3591.03,0.55,976.67,934.67