File: plugins/Raman/MatchingLibrary/785X/methyl ethyl ketone.csv
ENLIGHTEN Version,4.1.22
Measurement ID,20250220-200339-486237-WP-01977
Serial Number,WP-01977
Model,WP-785X-F13-R-ILC
Detector,S16011-1106
Label,methyl ethyl ketone
Declared Match,
Declared Score,0
Scan Averaging,4
Boxcar,0
Technique,Raman
Baseline Correction Algo,AirPLS
ROI Pixel Start,47
ROI Pixel End,2047
ROI Start Line,0
ROI Stop Line,63
CCD C4,1.38617e-12
Slit Width,25
Cropped,True
Interpolated,False
Wavenumber Correction,-0.100481
Raman Intensity Corrected,True
Deconvolved,True
Region,
High Gain Mode,False
Laser Power mW,
Electrical Dark Correction,False
Battery %,
Device ID,<DeviceID USB:0x24aa:0x1000:0:1>
FW Version,10.0.0.10
FPGA Version,035-001
BLE Version,
Prefix,enlighten
Suffix,
Preset,
Auto-Raman,True
Session Count,0
Plugin Name,
Integration Time,333
Timestamp,2025-02-20 20:03:39.4862
Note,
Temperature,0
CCD C0,793.274
CCD C1,0.153259
CCD C2,1.40788e-05
CCD C3,-1.132e-08
CCD Offset,0
CCD Gain,1.9
CCD Offset Odd,0
CCD Gain Odd,1.9
Laser Wavelength,785.032
Laser Enable,False
Laser Power %,0
Laser Temperature,0
Pixel Count,2048

Pixel,Wavelength,Wavenumber,Processed,Raw,Dark
0,793.27,132.25,NA,931.50,919.50
2,793.58,137.12,NA,947.50,928.50
4,793.89,141.99,NA,945.50,925.50
6,794.19,146.86,NA,941.75,927.75
8,794.50,151.72,NA,956.75,933.00
10,794.81,156.58,NA,953.75,934.25
12,795.12,161.44,NA,943.50,923.50
14,795.42,166.30,NA,944.00,915.25
16,795.73,171.16,NA,947.00,924.00
18,796.04,176.01,NA,961.50,936.50
20,796.35,180.86,NA,958.25,936.00
22,796.65,185.71,NA,978.50,951.50
24,796.96,190.56,NA,964.50,932.00
26,797.27,195.41,NA,980.25,947.75
28,797.58,200.25,NA,973.00,947.50
30,797.88,205.09,NA,963.50,929.00
32,798.19,209.93,NA,973.00,932.50
34,798.50,214.77,NA,979.50,927.50
36,798.81,219.60,NA,976.50,928.00
38,799.12,224.43,NA,1009.75,932.50
40,799.43,229.27,NA,1174.25,945.25
42,799.74,234.09,NA,1752.75,935.75
44,800.04,238.92,NA,2698.50,956.25
46,800.35,243.75,NA,3206.00,937.25
48,800.66,248.57,541.07,3557.50,949.50
50,800.97,253.39,1094.10,4035.50,953.00
52,801.28,258.21,1498.64,4497.00,955.25
54,801.59,263.02,1551.95,4478.00,952.00
56,801.90,267.83,1070.67,3948.50,940.25
58,802.21,272.65,612.47,3378.00,945.25
60,802.52,277.46,326.51,2927.25,943.50
62,802.83,282.26,191.54,2684.00,965.25
64,803.14,287.07,66.58,2475.00,954.50
66,803.45,291.87,2.91,2332.00,960.00
68,803.76,296.67,0.00,2241.00,954.50
70,804.07,301.47,0.00,2141.75,949.25
72,804.38,306.26,0.00,2102.50,942.75
74,804.69,311.06,0.00,2049.25,942.50
76,805.00,315.85,0.00,2006.00,945.00
78,805.31,320.64,0.00,1984.00,945.00
80,805.62,325.42,0.00,1966.25,949.25
82,805.93,330.21,0.00,1948.25,944.00
84,806.24,334.99,0.00,1934.25,931.75
86,806.55,339.77,0.00,1951.00,947.50
88,806.86,344.55,0.00,1960.00,949.25
90,807.17,349.32,2.08,1969.00,939.50
92,807.48,354.10,24.42,1997.50,945.50
94,807.80,358.87,58.84,2034.25,950.25
96,808.11,363.63,81.87,2059.50,941.50
98,808.42,368.40,108.00,2105.00,942.50
100,808.73,373.16,178.74,2192.25,932.75
102,809.04,377.93,271.42,2327.50,935.25
104,809.35,382.68,417.98,2545.25,935.50
106,809.66,387.44,629.03,2895.25,944.50
108,809.98,392.19,1022.90,3539.75,932.50
110,810.29,396.95,1778.24,4789.75,948.50
112,810.60,401.70,3451.87,6908.75,938.75
114,810.91,406.44,5284.44,8753.25,938.50
116,811.22,411.19,4725.44,8269.25,954.00
118,811.54,415.93,2685.91,6045.75,947.00
120,811.85,420.67,1399.42,4205.00,939.25
122,812.16,425.41,844.95,3241.75,937.75
124,812.47,430.14,566.43,2764.50,946.50
126,812.79,434.87,403.23,2495.50,936.25
128,813.10,439.60,310.85,2330.50,929.75
130,813.41,444.33,283.74,2282.00,936.25
132,813.72,449.06,248.60,2232.00,933.25
134,814.04,453.78,264.01,2254.75,942.00
136,814.35,458.50,311.50,2312.75,927.75
138,814.66,463.22,398.32,2435.75,926.50
140,814.98,467.93,533.22,2601.50,930.00
142,815.29,472.65,620.43,2710.25,935.50
144,815.60,477.36,558.40,2648.25,941.25
146,815.92,482.06,479.25,2527.25,927.00
148,816.23,486.77,393.51,2424.00,944.00
150,816.54,491.47,358.16,2377.25,958.00
152,816.86,496.17,358.57,2344.75,926.25
154,817.17,500.87,387.71,2418.75,942.50
156,817.48,505.57,492.69,2591.25,934.00
158,817.80,510.26,768.31,2968.50,928.25
160,818.11,514.95,1121.47,3383.00,941.25
162,818.42,519.64,1144.91,3411.50,948.00
164,818.74,524.32,835.09,3048.00,934.25
166,819.05,529.00,554.62,2667.75,944.50
168,819.37,533.68,410.39,2413.00,935.00
170,819.68,538.36,349.25,2298.00,937.00
172,819.99,543.04,351.76,2301.00,950.50
174,820.31,547.71,376.91,2324.50,936.50
176,820.62,552.38,445.97,2424.25,932.00
178,820.94,557.05,570.74,2618.75,932.25
180,821.25,561.71,736.90,2879.25,922.00
182,821.57,566.37,981.63,3300.25,928.75
184,821.88,571.03,1394.12,4024.25,941.50
186,822.20,575.69,2070.59,5205.50,936.25
188,822.51,580.34,3236.78,7117.25,936.25
190,822.83,584.99,5199.93,9772.50,940.50
192,823.14,589.64,6771.74,11529.00,941.00
194,823.46,594.29,5859.74,10478.50,937.25
196,823.77,598.93,3545.28,7575.00,939.25
198,824.09,603.57,1943.21,5079.25,926.50
200,824.40,608.21,1132.61,3631.75,935.00
202,824.72,612.85,702.38,2833.75,943.00
204,825.03,617.48,440.95,2362.50,941.75
206,825.35,622.11,278.53,2081.25,947.00
208,825.66,626.74,205.09,1928.50,938.25
210,825.98,631.36,116.01,1767.50,929.00
212,826.29,635.99,74.48,1692.00,938.75
214,826.61,640.61,40.95,1623.25,935.75
216,826.92,645.22,2.63,1562.00,930.75
218,827.24,649.84,0.00,1520.50,918.50
220,827.56,654.45,0.00,1521.50,940.50
222,827.87,659.06,0.00,1502.00,937.75
224,828.19,663.67,0.00,1476.25,928.75
226,828.50,668.27,0.00,1505.25,964.00
228,828.82,672.87,0.00,1508.00,939.25
230,829.13,677.47,0.00,1502.00,930.25
232,829.45,682.06,0.00,1531.00,934.75
234,829.77,686.66,1.46,1586.25,964.00
236,830.08,691.25,3.36,1579.50,933.50
238,830.40,695.83,25.60,1620.50,931.25
240,830.72,700.42,64.27,1682.25,929.75
242,831.03,705.00,105.18,1745.25,914.75
244,831.35,709.58,165.79,1865.75,929.25
246,831.66,714.15,247.09,1998.25,918.00
248,831.98,718.73,353.55,2219.25,940.00
250,832.30,723.30,533.91,2531.00,930.00
252,832.61,727.87,829.48,3081.00,947.00
254,832.93,732.43,1284.55,3868.50,907.25
256,833.25,736.99,2022.42,5265.25,944.75
258,833.56,741.55,3290.41,7571.50,935.75
260,833.88,746.11,5555.67,11563.50,934.25
262,834.20,750.66,8861.76,17805.75,939.00
264,834.51,755.22,14429.34,27298.00,949.00
266,834.83,759.76,24746.63,39566.00,937.25
268,835.15,764.31,26619.58,40793.25,941.75
270,835.47,768.85,13976.38,26543.50,934.00
272,835.78,773.39,5609.74,13515.75,936.50
274,836.10,777.93,2914.31,7559.00,934.75
276,836.42,782.46,1855.30,5047.25,930.50
278,836.73,787.00,1277.16,3885.00,927.25
280,837.05,791.52,907.98,3225.00,925.00
282,837.37,796.05,698.66,2855.25,937.75
284,837.69,800.57,531.12,2548.75,922.00
286,838.00,805.09,393.96,2320.00,929.75
288,838.32,809.61,312.65,2183.25,937.00
290,838.64,814.13,232.85,2053.00,935.25
292,838.95,818.64,195.68,1975.00,932.00
294,839.27,823.15,141.73,1882.25,927.00
296,839.59,827.65,94.48,1815.25,937.00
298,839.91,832.15,49.74,1736.75,929.75
300,840.22,836.65,12.17,1697.00,949.50
302,840.54,841.15,0.00,1634.25,930.00
304,840.86,845.65,0.00,1644.00,949.25
306,841.18,850.14,0.00,1616.00,934.75
308,841.50,854.63,0.00,1625.00,963.50
310,841.81,859.11,0.00,1591.00,932.00
312,842.13,863.60,3.31,1672.50,933.25
314,842.45,868.07,79.55,1767.50,928.50
316,842.77,872.55,139.63,1824.50,938.50
318,843.08,877.03,53.30,1780.25,948.75
320,843.40,881.50,0.75,1667.25,919.25
322,843.72,885.97,0.00,1655.00,936.25
324,844.04,890.43,0.00,1647.00,924.50
326,844.36,894.89,0.00,1679.25,926.50
328,844.67,899.35,20.31,1764.00,943.00
330,844.99,903.81,70.42,1823.00,921.00
332,845.31,908.26,114.90,1935.75,941.50
334,845.63,912.71,193.29,2087.75,936.50
336,845.95,917.16,297.57,2291.00,941.00
338,846.27,921.61,465.69,2714.75,1058.75
340,846.58,926.05,679.60,2971.75,935.50
342,846.90,930.49,976.14,3460.25,938.75
344,847.22,934.92,1265.69,3941.25,936.50
346,847.54,939.36,1481.14,4313.25,914.00
348,847.86,943.79,1699.64,4666.25,921.00
350,848.18,948.21,1831.22,4848.00,927.00
352,848.49,952.64,1700.77,4683.00,931.50
354,848.81,957.06,1426.74,4284.25,917.50
356,849.13,961.48,1153.79,3909.50,950.50
358,849.45,965.89,1010.62,3685.25,941.00
360,849.77,970.31,975.20,3639.25,938.50
362,850.09,974.71,1088.72,3852.50,931.50
364,850.40,979.12,1378.47,4387.50,947.00
366,850.72,983.52,1833.65,5155.25,953.00
368,851.04,987.92,2444.44,6084.75,923.00
370,851.36,992.32,3028.63,6887.25,928.50
372,851.68,996.72,3167.92,7029.75,935.50
374,852.00,1001.11,2524.00,6187.50,929.25
376,852.32,1005.50,1732.01,5028.75,913.25
378,852.63,1009.88,1168.91,4124.00,946.00
380,852.95,1014.26,828.88,3498.75,937.75
382,853.27,1018.64,617.73,3113.25,937.25
384,853.59,1023.02,473.30,2846.75,924.00
386,853.91,1027.39,384.03,2690.00,922.00
388,854.23,1031.76,288.47,2548.00,927.25
390,854.55,1036.13,226.50,2454.25,924.00
392,854.87,1040.49,181.89,2387.75,924.50
394,855.18,1044.86,188.30,2406.75,928.75
396,855.50,1049.21,176.89,2412.50,937.00
398,855.82,1053.57,203.24,2477.00,940.75
400,856.14,1057.92,266.16,2593.75,926.00
402,856.46,1062.27,376.73,2815.75,927.00
404,856.78,1066.62,613.61,3252.50,921.75
406,857.10,1070.96,964.75,3997.75,917.00
408,857.42,1075.30,1637.54,5649.25,940.50
410,857.74,1079.64,3449.50,9194.50,930.25
412,858.06,1083.97,8336.54,15329.00,929.00
414,858.37,1088.30,11534.77,18280.00,927.00
416,858.69,1092.63,6151.82,12963.00,924.75
418,859.01,1096.95,2357.68,7393.50,920.50
420,859.33,1101.27,1331.58,4960.25,936.75
422,859.65,1105.59,941.81,3909.75,928.50
424,859.97,1109.91,610.24,3306.00,924.00
426,860.29,1114.22,347.56,2886.00,926.50
428,860.61,1118.53,199.18,2610.75,916.75
430,860.93,1122.84,87.57,2453.00,926.50
432,861.25,1127.14,5.05,2340.75,940.50
434,861.56,1131.44,0.00,2260.00,927.00
436,861.88,1135.74,0.00,2282.75,925.25
438,862.20,1140.03,0.00,2301.75,924.50
440,862.52,1144.32,0.00,2355.25,929.75
442,862.84,1148.61,29.30,2504.50,935.25
444,863.16,1152.89,154.71,2700.25,924.75
446,863.48,1157.17,323.24,3041.25,927.50
448,863.80,1161.45,604.63,3564.75,927.25
450,864.12,1165.73,1067.62,4272.75,934.50
452,864.44,1170.00,1482.97,4807.75,925.00
454,864.76,1174.27,1499.51,4870.25,930.75
456,865.07,1178.53,1130.16,4410.50,917.75
458,865.39,1182.80,664.48,3785.75,928.00
460,865.71,1187.06,366.55,3324.50,924.50
462,866.03,1191.31,197.45,3054.25,928.75
464,866.35,1195.57,133.35,2946.50,921.00
466,866.67,1199.82,138.59,2974.00,934.75
468,866.99,1204.06,186.25,3045.75,931.75
470,867.31,1208.31,206.19,3075.75,935.75
472,867.63,1212.55,145.05,3024.25,930.00
474,867.95,1216.79,14.83,2885.25,917.50
476,868.27,1221.02,0.00,2845.75,930.25
478,868.58,1225.25,0.00,2831.75,917.75
480,868.90,1229.48,0.07,2939.00,937.00
482,869.22,1233.71,27.97,3086.75,936.50
484,869.54,1237.93,176.02,3356.00,944.00
486,869.86,1242.15,379.30,3739.25,932.75
488,870.18,1246.36,719.28,4358.50,917.25
490,870.50,1250.58,1269.86,5199.50,930.00
492,870.82,1254.79,1813.25,5910.50,954.50
494,871.14,1258.99,1873.01,6008.25,932.25
496,871.46,1263.20,1338.77,5423.75,936.50
498,871.78,1267.40,821.64,4709.00,921.75
500,872.10,1271.59,485.25,4184.00,921.25
502,872.41,1275.79,273.20,3846.00,928.75
504,872.73,1279.98,146.26,3657.75,930.25
506,873.05,1284.17,47.06,3561.50,940.25
508,873.37,1288.35,1.28,3484.25,911.25
510,873.69,1292.53,0.00,3481.00,924.00
512,874.01,1296.71,0.11,3550.50,921.75
514,874.33,1300.88,8.57,3605.25,913.50
516,874.65,1305.06,45.81,3706.00,927.00
518,874.97,1309.22,111.20,3814.50,917.00
520,875.29,1313.39,210.33,3966.00,928.00
522,875.60,1317.55,277.63,4092.25,932.25
524,875.92,1321.71,361.13,4239.25,925.25
526,876.24,1325.87,447.17,4406.50,932.75
528,876.56,1330.02,597.44,4667.75,922.50
530,876.88,1334.17,835.71,5080.25,941.00
532,877.20,1338.32,1224.55,5611.25,914.75
534,877.52,1342.46,1621.88,6110.25,919.75
536,877.84,1346.60,1748.93,6313.00,933.00
538,878.16,1350.73,1456.56,5998.00,928.00
540,878.47,1354.87,1273.83,5764.00,926.50
542,878.79,1359.00,1156.86,5579.00,927.50
544,879.11,1363.13,1120.18,5515.00,929.75
546,879.43,1367.25,1157.00,5581.50,922.25
548,879.75,1371.37,1274.52,5773.50,918.50
550,880.07,1375.49,1542.54,6124.75,920.00
552,880.39,1379.60,1773.96,6422.25,922.50
554,880.71,1383.71,1798.30,6529.75,921.50
556,881.03,1387.82,1791.97,6619.50,918.75
558,881.34,1391.93,1973.55,6930.25,916.00
560,881.66,1396.03,2349.73,7560.50,927.25
562,881.98,1400.13,2943.24,8549.00,935.00
564,882.30,1404.22,3907.45,10059.75,935.75
566,882.62,1408.31,5199.22,11970.25,920.00
568,882.94,1412.40,6763.33,14111.25,932.75
570,883.26,1416.49,7920.12,15579.50,926.00
572,883.57,1420.57,8023.11,15854.75,936.75
574,883.89,1424.65,7296.08,15080.50,923.00
576,884.21,1428.73,6652.26,14231.75,938.50
578,884.53,1432.80,6249.43,13578.00,943.00
580,884.85,1436.87,5996.92,13130.50,921.25
582,885.17,1440.93,5912.21,13022.50,920.00
584,885.49,1445.00,5946.92,13117.00,920.25
586,885.80,1449.06,6418.63,13670.25,925.50
588,886.12,1453.11,6925.75,14203.00,941.50
590,886.44,1457.17,6827.33,13994.75,932.00
592,886.76,1461.22,6297.33,13213.50,934.00
594,887.08,1465.26,5301.91,11824.50,938.50
596,887.40,1469.31,4069.80,10124.50,917.75
598,887.71,1473.35,3119.60,8730.50,923.25
600,888.03,1477.38,2539.94,7781.75,926.00
602,888.35,1481.42,2136.89,7121.50,938.75
604,888.67,1485.45,1819.72,6618.75,934.25
606,888.99,1489.48,1596.45,6249.00,920.50
608,889.31,1493.50,1432.42,5996.75,933.25
610,889.62,1497.52,1290.03,5771.00,928.75
612,889.94,1501.54,1170.43,5566.00,916.50
614,890.26,1505.56,1053.75,5397.75,923.25
616,890.58,1509.57,938.20,5231.75,922.75
618,890.90,1513.57,830.33,5060.75,917.50
620,891.21,1517.58,733.62,4926.25,930.25
622,891.53,1521.58,647.79,4796.00,929.75
624,891.85,1525.58,564.67,4668.75,924.50
626,892.17,1529.57,456.73,4526.75,932.00
628,892.49,1533.57,413.84,4446.00,930.50
630,892.80,1537.56,348.92,4330.50,916.25
632,893.12,1541.54,240.70,4191.50,919.50
634,893.44,1545.52,160.67,4086.50,930.75
636,893.76,1549.50,100.83,3986.75,913.25
638,894.07,1553.48,47.72,3902.00,928.00
640,894.39,1557.45,38.05,3839.25,921.00
642,894.71,1561.42,15.13,3765.75,928.50
644,895.03,1565.39,13.25,3689.25,915.75
646,895.34,1569.35,2.15,3642.00,933.00
648,895.66,1573.31,0.00,3546.25,920.00
650,895.98,1577.26,0.00,3508.00,921.00
652,896.30,1581.22,0.00,3441.50,917.00
654,896.61,1585.17,0.00,3387.75,921.50
656,896.93,1589.11,0.00,3355.75,936.50
658,897.25,1593.06,0.00,3283.50,917.00
660,897.57,1597.00,0.00,3257.50,921.00
662,897.88,1600.93,0.00,3236.75,924.75
664,898.20,1604.87,0.00,3182.25,928.50
666,898.52,1608.80,0.00,3170.25,923.50
668,898.84,1612.72,0.11,3166.50,908.00
670,899.15,1616.65,0.00,3167.50,929.00
672,899.47,1620.57,16.55,3164.00,915.25
674,899.79,1624.49,0.40,3144.00,927.00
676,900.10,1628.40,0.00,3120.25,919.25
678,900.42,1632.31,4.26,3128.75,930.00
680,900.74,1636.22,0.00,3087.75,912.25
682,901.05,1640.12,3.05,3116.50,943.50
684,901.37,1644.02,23.03,3111.00,923.25
686,901.69,1647.92,71.20,3143.00,930.25
688,902.00,1651.82,71.04,3128.75,925.50
690,902.32,1655.71,118.23,3163.50,918.25
692,902.64,1659.60,136.05,3165.75,917.25
694,902.95,1663.48,204.59,3250.50,929.25
696,903.27,1667.36,246.91,3290.00,923.50
698,903.59,1671.24,343.10,3402.00,931.75
700,903.90,1675.11,471.63,3523.50,928.50
702,904.22,1678.99,510.58,3555.75,914.25
704,904.54,1682.85,573.92,3686.50,946.50
706,904.85,1686.72,688.72,3829.75,917.00
708,905.17,1690.58,946.35,4229.75,928.00
710,905.49,1694.44,1379.45,4928.75,918.25
712,905.80,1698.29,2274.32,6349.75,922.75
714,906.12,1702.15,4102.14,8818.00,925.00
716,906.43,1706.00,7107.04,12192.25,929.00
718,906.75,1709.84,9721.35,14877.75,938.50
720,907.07,1713.68,10075.23,15394.00,925.50
722,907.38,1717.52,8725.23,14039.00,927.50
724,907.70,1721.36,6716.25,11664.25,927.00
726,908.01,1725.19,4645.47,9083.75,929.00
728,908.33,1729.02,3031.66,6956.50,935.00
730,908.65,1732.85,1986.30,5450.50,925.50
732,908.96,1736.67,1372.99,4523.50,933.50
734,909.28,1740.49,1014.67,3934.75,915.75
736,909.59,1744.30,773.78,3574.25,932.50
738,909.91,1748.12,610.35,3311.25,922.50
740,910.22,1751.93,520.82,3150.50,929.75
742,910.54,1755.73,445.23,3037.50,954.25
744,910.85,1759.54,343.71,2873.75,935.25
746,911.17,1763.34,252.41,2719.50,919.25
748,911.49,1767.13,171.83,2606.00,932.25
750,911.80,1770.93,107.16,2489.50,919.50
752,912.12,1774.72,81.23,2438.25,929.50
754,912.43,1778.50,51.86,2359.25,912.25
756,912.75,1782.29,21.50,2307.50,919.00
758,913.06,1786.07,8.20,2263.50,912.50
760,913.38,1789.84,1.01,2231.00,923.00
762,913.69,1793.62,0.00,2193.00,932.50
764,914.01,1797.39,0.00,2166.25,921.25
766,914.32,1801.15,0.00,2126.75,916.50
768,914.64,1804.92,0.00,2106.75,917.00
770,914.95,1808.68,0.00,2094.25,928.00
772,915.26,1812.44,0.00,2086.50,933.50
774,915.58,1816.19,0.00,2048.25,910.50
776,915.89,1819.94,0.00,2055.00,927.00
778,916.21,1823.69,0.00,2041.75,924.50
780,916.52,1827.43,9.45,2053.25,937.50
782,916.84,1831.17,12.42,2030.25,921.00
784,917.15,1834.91,25.72,2024.50,911.50
786,917.47,1838.64,62.16,2057.25,923.25
788,917.78,1842.38,57.87,2046.25,926.25
790,918.09,1846.10,45.48,2021.25,921.25
792,918.41,1849.83,58.82,2027.50,929.00
794,918.72,1853.55,66.94,2001.75,908.75
796,919.04,1857.27,60.21,2000.00,925.00
798,919.35,1860.98,74.50,1994.25,917.50
800,919.66,1864.69,74.32,1984.50,917.25
802,919.98,1868.40,79.40,1987.50,923.25
804,920.29,1872.11,82.65,1974.00,923.75
806,920.60,1875.81,107.72,1981.00,918.25
808,920.92,1879.51,103.90,1969.50,917.25
810,921.23,1883.20,99.92,1961.75,927.50
812,921.55,1886.90,137.94,1967.25,911.75
814,921.86,1890.58,115.68,1952.00,929.00
816,922.17,1894.27,104.79,1939.00,934.75
818,922.49,1897.95,100.47,1907.25,926.50
820,922.80,1901.63,104.56,1889.75,920.50
822,923.11,1905.31,79.76,1852.75,916.25
824,923.42,1908.98,68.29,1841.75,929.25
826,923.74,1912.65,81.00,1835.50,927.00
828,924.05,1916.31,82.83,1813.50,918.75
830,924.36,1919.98,69.46,1785.75,915.50
832,924.68,1923.64,58.24,1760.75,914.50
834,924.99,1927.29,64.92,1757.50,916.75
836,925.30,1930.94,65.61,1738.50,907.50
838,925.61,1934.59,56.01,1731.25,923.50
840,925.93,1938.24,59.04,1723.25,926.75
842,926.24,1941.88,55.70,1699.50,918.25
844,926.55,1945.52,55.39,1686.75,916.00
846,926.86,1949.16,58.37,1683.50,922.00
848,927.18,1952.79,38.46,1642.25,913.00
850,927.49,1956.42,38.78,1636.00,919.00
852,927.80,1960.05,53.87,1647.25,928.50
854,928.11,1963.67,38.56,1619.50,925.50
856,928.42,1967.29,34.04,1607.50,930.00
858,928.74,1970.91,27.57,1579.00,921.00
860,929.05,1974.52,35.79,1572.75,916.75
862,929.36,1978.13,36.37,1557.25,914.00
864,929.67,1981.74,40.44,1556.00,919.75
866,929.98,1985.35,40.64,1550.00,923.50
868,930.29,1988.95,37.43,1533.25,919.50
870,930.61,1992.54,21.93,1497.25,911.75
872,930.92,1996.14,31.06,1506.50,924.75
874,931.23,1999.73,22.65,1492.50,929.00
876,931.54,2003.32,22.28,1476.50,924.00
878,931.85,2006.90,20.63,1460.25,920.00
880,932.16,2010.48,12.99,1437.50,918.00
882,932.47,2014.06,19.32,1435.25,920.25
884,932.78,2017.63,3.90,1416.25,927.00
886,933.09,2021.21,6.32,1404.00,923.00
888,933.41,2024.77,3.21,1395.75,927.00
890,933.72,2028.34,8.31,1403.25,938.75
892,934.03,2031.90,18.21,1382.00,923.50
894,934.34,2035.46,1.93,1364.75,928.50
896,934.65,2039.01,0.97,1339.00,914.00
898,934.96,2042.57,16.73,1354.00,926.00
900,935.27,2046.11,15.21,1356.25,937.75
902,935.58,2049.66,0.06,1302.50,908.50
904,935.89,2053.20,2.73,1313.75,926.00
906,936.20,2056.74,8.01,1299.50,915.25
908,936.51,2060.28,0.27,1291.25,923.75
910,936.82,2063.81,5.11,1286.00,923.00
912,937.13,2067.34,9.10,1281.00,922.00
914,937.44,2070.86,0.00,1252.00,921.75
916,937.75,2074.39,0.00,1245.50,918.00
918,938.06,2077.91,4.51,1250.00,915.50
920,938.37,2081.42,0.00,1245.75,929.00
922,938.68,2084.94,0.00,1233.50,914.75
924,938.99,2088.45,0.73,1236.75,918.50
926,939.30,2091.95,0.11,1237.00,923.50
928,939.60,2095.46,1.28,1228.50,915.25
930,939.91,2098.96,30.02,1262.75,927.50
932,940.22,2102.45,7.26,1240.25,928.75
934,940.53,2105.95,25.38,1244.75,916.75
936,940.84,2109.44,39.54,1250.50,914.25
938,941.15,2112.92,31.85,1251.00,924.00
940,941.46,2116.41,35.01,1243.75,915.00
942,941.77,2119.89,37.88,1251.00,923.50
944,942.07,2123.37,44.33,1246.75,918.75
946,942.38,2126.84,29.06,1241.75,929.00
948,942.69,2130.31,28.05,1235.50,926.00
950,943.00,2133.78,25.91,1229.00,924.00
952,943.31,2137.24,27.39,1229.00,924.50
954,943.62,2140.70,19.94,1220.75,926.75
956,943.92,2144.16,22.15,1209.25,917.75
958,944.23,2147.62,28.68,1217.75,923.50
960,944.54,2151.07,22.62,1224.75,935.00
962,944.85,2154.52,28.06,1229.50,936.50
964,945.16,2157.96,37.04,1227.25,931.75
966,945.46,2161.40,49.24,1229.00,926.50
968,945.77,2164.84,48.59,1207.00,909.00
970,946.08,2168.28,42.26,1209.25,919.75
972,946.39,2171.71,48.81,1213.50,918.25
974,946.69,2175.14,48.35,1213.50,920.00
976,947.00,2178.57,38.24,1198.75,916.25
978,947.31,2181.99,38.01,1192.50,913.25
980,947.61,2185.41,61.28,1215.25,922.25
982,947.92,2188.82,58.91,1211.50,922.50
984,948.23,2192.24,51.90,1196.00,912.25
986,948.53,2195.65,57.74,1211.00,926.50
988,948.84,2199.05,74.45,1192.75,898.00
990,949.15,2202.46,69.37,1213.75,926.50
992,949.45,2205.86,64.11,1201.75,921.00
994,949.76,2209.25,66.45,1197.00,914.25
996,950.07,2212.65,64.01,1195.00,920.25
998,950.37,2216.04,64.79,1178.50,908.00
1000,950.68,2219.43,45.10,1174.50,918.75
1002,950.98,2222.81,37.70,1172.75,927.25
1004,951.29,2226.19,32.63,1150.50,913.00
1006,951.60,2229.57,21.75,1142.00,915.25
1008,951.90,2232.94,18.78,1132.25,910.50
1010,952.21,2236.32,25.91,1138.00,915.25
1012,952.51,2239.68,24.00,1135.75,919.25
1014,952.82,2243.05,4.70,1110.50,909.00
1016,953.12,2246.41,2.13,1135.00,936.00
1018,953.43,2249.77,0.00,1134.25,945.00
1020,953.73,2253.12,0.00,1116.25,931.25
1022,954.04,2256.48,2.63,1099.75,909.25
1024,954.34,2259.83,0.00,1119.50,933.25
1026,954.65,2263.17,0.00,1102.75,917.50
1028,954.95,2266.51,0.00,1113.00,927.50
1030,955.26,2269.85,2.34,1125.00,934.00
1032,955.56,2273.19,19.89,1123.25,923.00
1034,955.87,2276.52,16.41,1125.50,927.50
1036,956.17,2279.85,14.00,1130.50,931.25
1038,956.48,2283.18,13.11,1105.50,906.00
1040,956.78,2286.50,25.54,1119.25,912.50
1042,957.08,2289.82,38.93,1120.00,905.50
1044,957.39,2293.14,25.36,1133.75,926.50
1046,957.69,2296.45,34.01,1126.00,910.75
1048,957.99,2299.76,45.75,1152.25,930.25
1050,958.30,2303.07,43.37,1147.25,927.25
1052,958.60,2306.38,44.05,1141.25,922.00
1054,958.91,2309.68,49.90,1142.75,919.75
1056,959.21,2312.98,42.80,1134.50,912.75
1058,959.51,2316.27,31.05,1129.25,916.25
1060,959.82,2319.56,54.82,1159.75,931.25
1062,960.12,2322.85,67.94,1148.50,913.00
1064,960.42,2326.14,65.95,1149.00,912.50
1066,960.72,2329.42,74.78,1163.00,920.25
1068,961.03,2332.70,70.16,1165.25,928.25
1070,961.33,2335.97,79.61,1164.50,922.00
1072,961.63,2339.25,81.50,1162.00,915.75
1074,961.93,2342.52,56.55,1153.25,925.00
1076,962.24,2345.78,69.79,1153.25,917.75
1078,962.54,2349.05,41.32,1141.25,925.50
1080,962.84,2352.31,40.21,1140.00,923.50
1082,963.14,2355.56,48.32,1132.25,912.75
1084,963.45,2358.82,63.36,1142.50,914.25
1086,963.75,2362.07,50.43,1151.25,932.00
1088,964.05,2365.32,67.23,1164.00,934.50
1090,964.35,2368.56,46.89,1140.25,924.00
1092,964.65,2371.80,35.56,1141.25,932.25
1094,964.95,2375.04,43.82,1134.75,921.50
1096,965.25,2378.27,37.07,1122.00,913.25
1098,965.56,2381.51,18.18,1118.50,923.50
1100,965.86,2384.73,41.10,1132.25,922.50
1102,966.16,2387.96,15.27,1111.00,919.75
1104,966.46,2391.18,23.74,1131.00,933.75
1106,966.76,2394.40,26.49,1116.75,916.75
1108,967.06,2397.62,16.52,1124.25,932.00
1110,967.36,2400.83,35.71,1110.50,910.00
1112,967.66,2404.04,23.04,1128.50,935.75
1114,967.96,2407.25,5.85,1094.50,909.00
1116,968.26,2410.45,0.00,1103.00,927.50
1118,968.56,2413.65,1.49,1098.00,916.25
1120,968.86,2416.85,19.55,1128.00,936.00
1122,969.16,2420.04,3.52,1106.75,925.00
1124,969.46,2423.23,7.81,1099.75,913.50
1126,969.76,2426.42,2.73,1109.00,926.00
1128,970.06,2429.60,7.30,1097.50,910.25
1130,970.36,2432.79,14.07,1109.50,917.75
1132,970.66,2435.96,25.08,1116.50,917.25
1134,970.96,2439.14,7.33,1115.25,926.25
1136,971.26,2442.31,59.71,1149.25,922.50
1138,971.56,2445.48,57.12,1140.50,918.25
1140,971.86,2448.65,67.22,1143.25,914.50
1142,972.16,2451.81,85.06,1166.00,925.50
1144,972.45,2454.97,91.11,1170.50,925.00
1146,972.75,2458.13,97.32,1172.25,922.25
1148,973.05,2461.28,102.30,1172.00,918.75
1150,973.35,2464.43,121.55,1187.00,922.00
1152,973.65,2467.58,116.14,1183.50,920.75
1154,973.95,2470.72,116.30,1186.50,921.00
1156,974.24,2473.86,114.68,1187.75,922.50
1158,974.54,2477.00,133.68,1185.00,910.50
1160,974.84,2480.13,156.10,1207.75,922.50
1162,975.14,2483.27,169.00,1217.00,923.50
1164,975.43,2486.40,164.43,1205.00,912.00
1166,975.73,2489.52,163.13,1213.75,919.25
1168,976.03,2492.64,155.98,1215.50,922.00
1170,976.33,2495.76,176.67,1228.25,922.50
1172,976.62,2498.88,214.28,1239.00,916.25
1174,976.92,2501.99,242.19,1269.00,931.75
1176,977.22,2505.10,272.39,1280.00,925.25
1178,977.51,2508.21,268.66,1276.25,924.50
1180,977.81,2511.31,262.90,1267.50,920.25
1182,978.11,2514.41,266.52,1264.25,916.00
1184,978.40,2517.51,229.30,1251.50,921.50
1186,978.70,2520.61,213.57,1243.50,919.50
1188,979.00,2523.70,193.42,1243.50,932.75
1190,979.29,2526.79,170.25,1214.00,919.00
1192,979.59,2529.87,173.89,1215.50,920.50
1194,979.88,2532.95,175.88,1206.50,911.50
1196,980.18,2536.03,152.51,1212.00,929.75
1198,980.48,2539.11,133.82,1205.50,933.00
1200,980.77,2542.18,101.83,1180.25,924.50
1202,981.07,2545.25,96.68,1185.00,932.50
1204,981.36,2548.32,88.60,1168.00,922.25
1206,981.66,2551.38,59.96,1166.00,936.75
1208,981.95,2554.44,57.96,1151.25,923.00
1210,982.25,2557.50,52.57,1167.00,939.75
1212,982.54,2560.56,13.66,1146.25,941.00
1214,982.84,2563.61,25.19,1149.75,937.75
1216,983.13,2566.66,6.90,1142.75,940.75
1218,983.43,2569.70,0.00,1130.50,935.75
1220,983.72,2572.74,11.62,1140.75,937.00
1222,984.01,2575.78,0.19,1125.75,927.50
1224,984.31,2578.82,0.00,1117.00,918.75
1226,984.60,2581.85,0.00,1119.75,930.25
1228,984.90,2584.88,7.32,1123.00,917.25
1230,985.19,2587.91,0.00,1133.25,929.00
1232,985.48,2590.93,0.00,1136.75,934.50
1234,985.78,2593.96,0.00,1138.25,929.50
1236,986.07,2596.97,8.00,1144.50,927.25
1238,986.36,2599.99,5.70,1161.75,944.00
1240,986.66,2603.00,4.50,1158.25,938.75
1242,986.95,2606.01,16.90,1168.50,941.50
1244,987.24,2609.01,20.81,1171.00,937.75
1246,987.54,2612.02,2.48,1136.50,909.25
1248,987.83,2615.02,1.00,1162.75,933.75
1250,988.12,2618.01,14.80,1167.50,929.00
1252,988.41,2621.01,0.91,1165.25,930.50
1254,988.71,2624.00,0.00,1158.00,924.00
1256,989.00,2626.99,0.17,1171.00,931.25
1258,989.29,2629.97,0.00,1163.50,933.25
1260,989.58,2632.95,0.50,1178.25,930.50
1262,989.87,2635.93,0.00,1184.50,939.25
1264,990.16,2638.91,0.00,1170.50,921.25
1266,990.46,2641.88,0.00,1196.50,935.50
1268,990.75,2644.85,0.00,1211.00,941.25
1270,991.04,2647.81,0.00,1211.50,932.00
1272,991.33,2650.78,5.14,1236.25,932.25
1274,991.62,2653.74,52.00,1261.50,924.50
1276,991.91,2656.70,100.92,1291.25,932.75
1278,992.20,2659.65,191.62,1339.25,931.50
1280,992.49,2662.60,284.70,1380.25,922.00
1282,992.78,2665.55,415.99,1470.75,947.50
1284,993.07,2668.50,563.16,1532.25,942.25
1286,993.36,2671.44,647.35,1565.00,935.75
1288,993.65,2674.38,758.67,1621.00,942.50
1290,993.94,2677.31,846.30,1655.75,938.00
1292,994.23,2680.25,795.96,1642.25,936.25
1294,994.52,2683.18,797.34,1648.75,931.75
1296,994.81,2686.10,686.27,1613.50,933.00
1298,995.10,2689.03,594.87,1587.00,937.00
1300,995.39,2691.95,554.68,1568.25,930.25
1302,995.68,2694.87,493.93,1563.25,945.50
1304,995.97,2697.78,473.24,1555.50,940.00
1306,996.26,2700.70,413.54,1516.75,919.25
1308,996.55,2703.61,374.41,1522.75,934.50
1310,996.84,2706.51,379.34,1532.50,937.75
1312,997.13,2709.42,427.26,1555.25,936.50
1314,997.41,2712.32,436.91,1570.00,939.00
1316,997.70,2715.21,475.15,1585.25,930.75
1318,997.99,2718.11,587.75,1639.50,932.75
1320,998.28,2721.00,699.94,1688.25,924.50
1322,998.57,2723.89,859.20,1783.75,943.50
1324,998.86,2726.77,1155.13,1886.50,928.75
1326,999.14,2729.66,1589.61,2043.75,935.25
1328,999.43,2732.54,1986.42,2157.75,934.25
1330,999.72,2735.41,2314.64,2240.50,933.00
1332,1000.01,2738.29,2307.93,2250.50,946.25
1334,1000.29,2741.16,1853.17,2118.25,937.75
1336,1000.58,2744.03,1377.60,1973.00,927.00
1338,1000.87,2746.89,907.10,1827.25,941.25
1340,1001.15,2749.75,653.00,1720.75,933.50
1342,1001.44,2752.61,484.18,1643.50,930.75
1344,1001.73,2755.47,308.11,1577.25,929.25
1346,1002.01,2758.32,151.03,1533.75,930.25
1348,1002.30,2761.17,30.76,1503.50,941.25
1350,1002.59,2764.02,4.04,1497.00,941.50
1352,1002.87,2766.86,0.00,1469.25,932.75
1354,1003.16,2769.70,0.00,1476.00,932.50
1356,1003.44,2772.54,0.00,1459.50,919.75
1358,1003.73,2775.38,0.00,1473.50,934.50
1360,1004.01,2778.21,0.00,1477.00,923.00
1362,1004.30,2781.04,0.00,1493.50,931.75
1364,1004.58,2783.87,0.00,1516.25,927.50
1366,1004.87,2786.69,0.00,1528.50,915.00
1368,1005.15,2789.51,0.00,1582.25,935.25
1370,1005.44,2792.33,0.00,1625.00,942.00
1372,1005.72,2795.14,0.00,1689.75,934.50
1374,1006.01,2797.95,0.00,1757.00,945.50
1376,1006.29,2800.76,0.00,1827.25,934.00
1378,1006.58,2803.57,0.08,1931.75,949.25
1380,1006.86,2806.37,12.36,1998.50,933.25
1382,1007.14,2809.17,61.49,2065.50,933.50
1384,1007.43,2811.97,251.47,2160.50,927.00
1386,1007.71,2814.77,95.59,2196.00,924.00
1388,1008.00,2817.56,32.48,2242.25,923.75
1390,1008.28,2820.35,34.44,2316.25,938.25
1392,1008.56,2823.13,76.15,2372.75,925.50
1394,1008.85,2825.91,222.86,2477.75,931.75
1396,1009.13,2828.69,458.47,2570.75,934.50
1398,1009.41,2831.47,918.71,2691.25,941.75
1400,1009.69,2834.24,1442.72,2787.25,918.50
1402,1009.98,2837.02,1832.57,2895.00,927.75
1404,1010.26,2839.78,2076.39,2980.75,940.00
1406,1010.54,2842.55,2265.72,3027.50,926.50
1408,1010.82,2845.31,2495.23,3101.50,937.50
1410,1011.11,2848.07,2796.09,3179.75,940.00
1412,1011.39,2850.83,3045.47,3244.50,940.00
1414,1011.67,2853.58,3399.02,3338.25,933.75
1416,1011.95,2856.33,3837.87,3464.25,941.50
1418,1012.23,2859.08,4438.00,3616.50,935.50
1420,1012.51,2861.83,5165.00,3810.75,929.75
1422,1012.80,2864.57,6067.65,4108.00,960.00
1424,1013.08,2867.31,7247.64,4462.75,944.00
1426,1013.36,2870.04,8887.52,4978.75,941.75
1428,1013.64,2872.78,11526.71,5741.75,942.50
1430,1013.92,2875.51,15754.68,6810.25,954.50
1432,1014.20,2878.24,21674.43,8099.25,943.75
1434,1014.48,2880.96,27418.66,9277.25,930.75
1436,1014.76,2883.68,30492.59,10006.25,925.00
1438,1015.04,2886.40,30995.59,10328.50,930.00
1440,1015.32,2889.12,31194.37,10574.50,947.00
1442,1015.60,2891.83,32630.39,10936.50,933.50
1444,1015.88,2894.54,35270.92,11459.25,939.75
1446,1016.16,2897.25,38287.14,11994.00,925.00
1448,1016.44,2899.96,40794.38,12496.25,949.75
1450,1016.72,2902.66,42304.28,12820.00,939.00
1452,1017.00,2905.36,43191.03,13114.50,952.50
1454,1017.28,2908.06,44195.30,13479.75,938.00
1456,1017.55,2910.75,46116.98,14079.50,945.50
1458,1017.83,2913.44,50685.78,15136.00,929.75
1460,1018.11,2916.13,58546.24,16646.75,943.00
1462,1018.39,2918.81,68880.32,18321.75,941.75
1464,1018.67,2921.49,76873.96,19428.50,939.50
1466,1018.95,2924.17,77242.94,19393.75,937.00
1468,1019.22,2926.85,68875.87,18063.50,947.50
1470,1019.50,2929.52,58867.30,16380.75,927.75
1472,1019.78,2932.20,52460.95,15074.25,929.00
1474,1020.06,2934.86,51884.89,14561.50,933.75
1476,1020.33,2937.53,55135.36,14589.50,956.25
1478,1020.61,2940.19,56881.70,14360.25,935.50
1480,1020.89,2942.85,52886.76,13433.00,942.50
1482,1021.17,2945.51,44540.13,11899.75,932.75
1484,1021.44,2948.16,36572.10,10403.50,934.25
1486,1021.72,2950.81,30120.90,9037.00,942.25
1488,1022.00,2953.46,26022.48,8048.75,949.75
1490,1022.27,2956.11,23655.80,7375.25,932.75
1492,1022.55,2958.75,21930.52,6895.50,955.50
1494,1022.82,2961.39,21059.32,6587.50,929.75
1496,1023.10,2964.03,20148.48,6351.75,951.25
1498,1023.38,2966.66,19485.86,6153.00,934.25
1500,1023.65,2969.29,18921.71,6007.00,943.75
1502,1023.93,2971.92,18851.13,5948.25,945.25
1504,1024.20,2974.55,18664.35,5843.50,941.00
1506,1024.48,2977.17,18922.04,5823.50,944.00
1508,1024.75,2979.79,18904.43,5738.75,932.75
1510,1025.03,2982.41,18441.63,5600.50,935.00
1512,1025.30,2985.02,17375.48,5360.25,929.25
1514,1025.58,2987.63,16191.41,5136.25,936.75
1516,1025.85,2990.24,14435.62,4801.25,933.00
1518,1026.13,2992.85,13254.83,4577.00,945.50
1520,1026.40,2995.45,12298.42,4350.50,938.50
1522,1026.68,2998.05,11568.13,4166.50,938.25
1524,1026.95,3000.65,10872.97,4001.25,943.75
1526,1027.22,3003.25,10159.56,3822.50,934.75
1528,1027.50,3005.84,9464.92,3648.00,921.50
1530,1027.77,3008.43,8434.81,3456.50,938.25
1532,1028.04,3011.02,7435.73,3272.25,941.00
1534,1028.32,3013.60,6227.30,3047.50,936.50
1536,1028.59,3016.18,5212.10,2861.75,940.75
1538,1028.86,3018.76,4296.86,2660.25,914.50
1540,1029.14,3021.34,3496.82,2524.50,933.25
1542,1029.41,3023.91,2839.42,2381.50,922.00
1544,1029.68,3026.48,2283.67,2267.00,921.50
1546,1029.95,3029.05,1686.59,2172.50,938.25
1548,1030.22,3031.61,1183.42,2071.00,924.50
1550,1030.50,3034.17,628.93,1974.50,931.00
1552,1030.77,3036.73,394.74,1920.25,932.75
1554,1031.04,3039.29,105.94,1848.75,937.75
1556,1031.31,3041.84,27.33,1781.50,916.00
1558,1031.58,3044.39,0.70,1764.75,948.25
1560,1031.85,3046.94,0.00,1719.75,945.00
1562,1032.13,3049.49,0.00,1672.25,930.50
1564,1032.40,3052.03,0.00,1649.25,942.00
1566,1032.67,3054.57,0.00,1596.75,925.50
1568,1032.94,3057.11,0.00,1592.50,943.50
1570,1033.21,3059.64,0.00,1548.25,924.50
1572,1033.48,3062.18,52.91,1552.75,942.00
1574,1033.75,3064.70,0.00,1499.75,945.50
1576,1034.02,3067.23,54.20,1497.25,936.25
1578,1034.29,3069.75,0.00,1446.00,922.50
1580,1034.56,3072.28,0.00,1449.25,943.00
1582,1034.83,3074.79,0.00,1410.50,921.50
1584,1035.10,3077.31,21.59,1411.25,936.50
1586,1035.37,3079.82,0.00,1381.00,929.00
1588,1035.64,3082.33,0.00,1367.50,950.50
1590,1035.91,3084.84,0.00,1350.25,937.75
1592,1036.17,3087.34,33.81,1334.75,923.75
1594,1036.44,3089.85,0.00,1340.00,951.25
1596,1036.71,3092.35,0.00,1310.75,934.75
1598,1036.98,3094.84,9.96,1292.00,921.50
1600,1037.25,3097.34,0.00,1278.50,926.50
1602,1037.52,3099.83,38.08,1281.75,929.00
1604,1037.78,3102.32,11.86,1273.50,934.25
1606,1038.05,3104.80,0.00,1266.00,945.00
1608,1038.32,3107.29,61.45,1257.75,931.25
1610,1038.59,3109.77,0.00,1243.00,935.00
1612,1038.85,3112.24,0.00,1227.25,927.50
1614,1039.12,3114.72,0.00,1234.50,942.25
1616,1039.39,3117.19,0.00,1198.25,918.25
1618,1039.66,3119.66,58.83,1227.25,941.50
1620,1039.92,3122.13,0.00,1210.50,941.50
1622,1040.19,3124.59,0.00,1195.00,934.00
1624,1040.45,3127.05,0.00,1189.00,930.25
1626,1040.72,3129.51,12.81,1199.25,941.25
1628,1040.99,3131.97,0.00,1187.75,937.50
1630,1041.25,3134.42,29.87,1202.75,949.50
1632,1041.52,3136.87,0.00,1167.00,926.50
1634,1041.78,3139.32,80.63,1176.00,931.00
1636,1042.05,3141.77,0.00,1202.00,969.75
1638,1042.32,3144.21,49.96,1162.50,927.50
1640,1042.58,3146.65,65.09,1180.75,945.25
1642,1042.85,3149.09,14.41,1162.25,936.50
1644,1043.11,3151.52,23.91,1159.00,935.00
1646,1043.38,3153.96,118.48,1166.75,937.25
1648,1043.64,3156.39,104.24,1159.00,935.50
1650,1043.90,3158.81,134.61,1153.75,928.25
1652,1044.17,3161.24,47.31,1155.00,939.75
1654,1044.43,3163.66,97.11,1140.00,920.00
1656,1044.70,3166.08,0.59,1160.00,955.50
1658,1044.96,3168.49,139.35,1154.75,935.75
1660,1045.22,3170.91,39.56,1136.50,933.00
1662,1045.49,3173.32,151.97,1147.50,937.75
1664,1045.75,3175.73,127.21,1141.00,935.00
1666,1046.01,3178.13,60.86,1131.50,932.00
1668,1046.28,3180.54,10.26,1141.25,950.00
1670,1046.54,3182.94,129.98,1145.00,944.50
1672,1046.80,3185.34,0.00,1134.25,949.25
1674,1047.07,3187.73,157.85,1126.75,928.00
1676,1047.33,3190.12,0.00,1123.25,943.50
1678,1047.59,3192.51,43.32,1127.00,943.00
1680,1047.85,3194.90,75.63,1141.00,956.75
1682,1048.11,3197.29,117.60,1136.25,951.75
1684,1048.38,3199.67,132.89,1124.50,941.50
1686,1048.64,3202.05,222.18,1141.25,951.50
1688,1048.90,3204.43,100.43,1121.25,942.00
1690,1049.16,3206.80,72.35,1113.00,938.25
1692,1049.42,3209.17,79.96,1123.25,950.75
1694,1049.68,3211.54,245.52,1113.25,928.50
1696,1049.94,3213.91,78.85,1104.00,935.50
1698,1050.20,3216.27,213.37,1115.25,936.25
1700,1050.46,3218.63,215.86,1128.00,953.50
1702,1050.72,3220.99,191.29,1109.00,939.75
1704,1050.98,3223.35,317.87,1120.75,942.00
1706,1051.24,3225.70,203.52,1108.75,937.50
1708,1051.50,3228.05,133.51,1095.25,932.00
1710,1051.76,3230.40,348.32,1125.00,947.00
1712,1052.02,3232.75,303.14,1109.25,940.00
1714,1052.28,3235.09,383.77,1122.00,949.00
1716,1052.54,3237.43,354.69,1102.25,931.50
1718,1052.80,3239.77,227.92,1095.50,935.50
1720,1053.06,3242.11,412.04,1109.25,936.75
1722,1053.32,3244.44,362.98,1096.75,930.75
1724,1053.58,3246.77,324.87,1118.50,957.25
1726,1053.84,3249.10,473.84,1107.25,936.75
1728,1054.10,3251.42,412.98,1110.50,946.75
1730,1054.35,3253.75,545.32,1105.00,933.25
1732,1054.61,3256.07,402.18,1109.75,950.25
1734,1054.87,3258.39,544.05,1103.25,936.25
1736,1055.13,3260.70,497.03,1095.25,934.50
1738,1055.38,3263.01,579.45,1096.75,931.75
1740,1055.64,3265.32,447.44,1093.00,937.25
1742,1055.90,3267.63,375.52,1082.50,933.25
1744,1056.16,3269.94,518.33,1106.75,949.50
1746,1056.41,3272.24,399.81,1105.75,957.75
1748,1056.67,3274.54,407.26,1090.75,944.00
1750,1056.93,3276.84,533.35,1092.50,941.50
1752,1057.18,3279.13,658.85,1088.50,933.25
1754,1057.44,3281.42,532.63,1076.50,928.75
1756,1057.69,3283.71,363.68,1078.75,941.50
1758,1057.95,3286.00,487.36,1098.50,954.25
1760,1058.21,3288.28,322.40,1073.00,942.25
1762,1058.46,3290.57,528.55,1090.50,949.50
1764,1058.72,3292.85,500.72,1081.25,944.00
1766,1058.97,3295.12,447.29,1067.25,933.75
1768,1059.23,3297.40,476.51,1071.75,936.25
1770,1059.48,3299.67,502.43,1079.50,943.50
1772,1059.74,3301.94,419.28,1057.00,929.75
1774,1059.99,3304.21,683.50,1081.25,943.00
1776,1060.25,3306.47,638.90,1086.50,951.75
1778,1060.50,3308.73,462.75,1057.25,931.75
1780,1060.76,3310.99,462.57,1062.75,938.00
1782,1061.01,3313.25,554.77,1069.25,940.50
1784,1061.26,3315.50,599.08,1062.75,932.50
1786,1061.52,3317.76,453.39,1063.00,943.50
1788,1061.77,3320.01,801.81,1083.25,948.50
1790,1062.02,3322.25,689.59,1056.00,929.50
1792,1062.28,3324.50,495.41,1057.50,941.25
1794,1062.53,3326.74,547.04,1047.25,928.25
1796,1062.78,3328.98,420.35,1049.00,937.75
1798,1063.04,3331.22,399.11,1048.75,940.25
1800,1063.29,3333.45,419.50,1045.75,937.75
1802,1063.54,3335.68,307.44,1038.00,937.00
1804,1063.79,3337.91,484.58,1053.50,944.50
1806,1064.05,3340.14,444.84,1060.75,955.25
1808,1064.30,3342.36,485.11,1033.75,928.00
1810,1064.55,3344.59,585.91,1054.25,946.25
1812,1064.80,3346.81,524.77,1036.75,933.25
1814,1065.05,3349.02,495.50,1031.75,928.75
1816,1065.30,3351.24,284.21,1044.00,950.75
1818,1065.55,3353.45,309.79,1032.75,939.25
1820,1065.81,3355.66,375.02,1058.50,964.50
1822,1066.06,3357.87,523.30,1034.25,936.00
1824,1066.31,3360.07,520.74,1022.75,925.75
1826,1066.56,3362.27,531.30,1042.25,945.50
1828,1066.81,3364.47,434.08,1021.75,930.25
1830,1067.06,3366.67,572.51,1034.25,937.00
1832,1067.31,3368.87,303.75,1017.25,932.50
1834,1067.56,3371.06,387.24,1011.75,924.00
1836,1067.81,3373.25,513.23,1010.25,919.00
1838,1068.06,3375.44,601.72,1018.00,926.00
1840,1068.31,3377.62,559.86,1020.25,931.75
1842,1068.56,3379.81,583.07,1015.75,926.25
1844,1068.80,3381.99,613.32,1043.25,951.25
1846,1069.05,3384.16,398.69,1026.00,943.50
1848,1069.30,3386.34,417.84,1016.25,934.50
1850,1069.55,3388.51,627.62,1016.50,928.50
1852,1069.80,3390.68,583.22,1021.25,936.75
1854,1070.05,3392.85,413.32,1033.75,956.25
1856,1070.30,3395.02,487.74,1018.00,937.75
1858,1070.54,3397.18,505.67,1004.50,924.50
1860,1070.79,3399.34,530.01,1015.50,936.25
1862,1071.04,3401.50,661.70,1012.75,930.25
1864,1071.29,3403.66,303.13,994.50,926.00
1866,1071.53,3405.81,711.78,1015.75,933.00
1868,1071.78,3407.96,527.86,1010.50,934.25
1870,1072.03,3410.11,400.17,1010.50,939.75
1872,1072.27,3412.26,578.18,1016.00,940.75
1874,1072.52,3414.40,448.40,1003.25,934.00
1876,1072.77,3416.54,540.93,1002.00,929.00
1878,1073.01,3418.68,292.14,1011.75,947.25
1880,1073.26,3420.82,444.07,988.75,919.00
1882,1073.51,3422.96,558.60,1012.25,941.25
1884,1073.75,3425.09,729.73,1006.25,933.00
1886,1074.00,3427.22,938.31,996.00,918.50
1888,1074.24,3429.35,640.89,1015.00,946.00
1890,1074.49,3431.47,477.86,993.25,928.00
1892,1074.73,3433.59,266.97,984.50,926.00
1894,1074.98,3435.71,210.35,1005.75,950.00
1896,1075.22,3437.83,411.23,998.50,937.25
1898,1075.47,3439.95,581.99,1002.50,938.25
1900,1075.71,3442.06,560.29,1001.75,939.75
1902,1075.96,3444.17,635.47,999.50,935.50
1904,1076.20,3446.28,386.23,964.25,907.25
1906,1076.44,3448.38,297.63,1010.25,956.25
1908,1076.69,3450.49,576.29,1005.50,944.00
1910,1076.93,3452.59,380.39,994.25,940.50
1912,1077.17,3454.69,388.88,979.75,926.75
1914,1077.42,3456.79,142.44,985.50,939.50
1916,1077.66,3458.88,372.13,981.00,928.75
1918,1077.90,3460.97,429.90,977.75,924.50
1920,1078.15,3463.06,183.77,997.25,951.50
1922,1078.39,3465.15,331.59,987.00,936.50
1924,1078.63,3467.23,272.56,971.25,922.00
1926,1078.87,3469.32,263.11,989.00,940.75
1928,1079.12,3471.40,560.79,984.50,929.50
1930,1079.36,3473.47,660.82,1011.25,957.25
1932,1079.60,3475.55,691.81,977.50,924.50
1934,1079.84,3477.62,684.45,991.75,938.75
1936,1080.08,3479.69,207.27,974.25,932.50
1938,1080.33,3481.76,404.34,970.25,923.50
1940,1080.57,3483.83,324.53,981.00,936.00
1942,1080.81,3485.89,131.17,974.50,935.00
1944,1081.05,3487.95,180.55,991.00,950.25
1946,1081.29,3490.01,349.15,979.00,935.25
1948,1081.53,3492.07,702.81,976.00,927.50
1950,1081.77,3494.12,794.86,973.75,924.50
1952,1082.01,3496.18,539.79,985.25,938.50
1954,1082.25,3498.23,76.18,969.25,934.00
1956,1082.49,3500.27,221.83,975.50,935.50
1958,1082.73,3502.32,205.60,959.75,922.50
1960,1082.97,3504.36,520.69,983.25,941.50
1962,1083.21,3506.40,901.09,978.00,929.50
1964,1083.45,3508.44,115.53,957.00,923.50
1966,1083.69,3510.48,103.34,986.25,952.75
1968,1083.93,3512.51,255.01,975.25,937.75
1970,1084.16,3514.54,337.95,967.25,930.00
1972,1084.40,3516.57,408.25,968.75,932.00
1974,1084.64,3518.60,710.44,964.50,922.50
1976,1084.88,3520.62,818.27,989.50,943.50
1978,1085.12,3522.65,406.89,987.75,950.00
1980,1085.36,3524.67,425.87,977.75,940.50
1982,1085.59,3526.68,433.94,962.50,926.50
1984,1085.83,3528.70,998.60,987.00,940.25
1986,1086.07,3530.71,133.13,962.75,933.25
1988,1086.31,3532.72,137.15,973.25,944.00
1990,1086.54,3534.73,599.63,963.50,925.50
1992,1086.78,3536.74,321.59,981.50,949.25
1994,1087.02,3538.74,340.62,968.25,935.25
1996,1087.25,3540.74,283.58,953.00,921.50
1998,1087.49,3542.74,304.49,965.75,935.00
2000,1087.73,3544.74,462.56,965.50,933.50
2002,1087.96,3546.74,736.52,967.00,931.50
2004,1088.20,3548.73,742.67,980.75,943.75
2006,1088.43,3550.72,9.46,963.75,940.00
2008,1088.67,3552.71,0.00,958.50,935.50
2010,1088.90,3554.69,473.29,954.75,919.50
2012,1089.14,3556.68,53.59,963.50,939.50
2014,1089.38,3558.66,286.94,952.50,924.00
2016,1089.61,3560.64,471.61,954.75,924.75
2018,1089.84,3562.62,760.46,971.75,939.00
2020,1090.08,3564.59,689.15,956.50,924.75
2022,1090.31,3566.56,241.06,951.50,926.25
2024,1090.55,3568.53,564.66,956.75,926.25
2026,1090.78,3570.50,422.65,947.00,919.25
2028,1091.02,3572.47,395.21,947.25,919.50
2030,1091.25,3574.43,188.70,946.75,922.00
2032,1091.48,3576.39,160.53,932.75,908.00
2034,1091.72,3578.35,110.49,933.75,911.00
2036,1091.95,3580.31,0.00,945.50,926.00
2038,1092.18,3582.26,602.62,933.50,906.50
2040,1092.42,3584.22,642.34,933.25,906.75
2042,1092.65,3586.17,644.36,939.50,911.75
2044,1092.88,3588.12,0.00,926.75,908.25
2046,1093.11,3590.06,61.80,927.25,905.50
2047,1093.23,3591.03,43.43,924.50,902.00