File: plugins/Raman/MatchingLibrary/785X/polyethylene glycol.csv
ENLIGHTEN Version,4.1.22
Measurement ID,20250220-203344-882014-WP-01977
Serial Number,WP-01977
Model,WP-785X-F13-R-ILC
Detector,S16011-1106
Label,polyethylene glycol
Declared Match,
Declared Score,0
Scan Averaging,1
Boxcar,0
Technique,Raman
Baseline Correction Algo,AirPLS
ROI Pixel Start,47
ROI Pixel End,2047
ROI Start Line,0
ROI Stop Line,63
CCD C4,1.38617e-12
Slit Width,25
Cropped,True
Interpolated,False
Wavenumber Correction,-0.100481
Raman Intensity Corrected,True
Deconvolved,True
Region,
High Gain Mode,False
Laser Power mW,
Electrical Dark Correction,False
Battery %,
Device ID,<DeviceID USB:0x24aa:0x1000:0:1>
FW Version,10.0.0.10
FPGA Version,035-001
BLE Version,
Prefix,enlighten
Suffix,
Preset,
Auto-Raman,True
Session Count,0
Plugin Name,
Integration Time,2000
Timestamp,2025-02-20 20:33:44.882
Note,
Temperature,0
CCD C0,793.274
CCD C1,0.153259
CCD C2,1.40788e-05
CCD C3,-1.132e-08
CCD Offset,0
CCD Gain,1.9
CCD Offset Odd,0
CCD Gain Odd,1.9
Laser Wavelength,785.032
Laser Enable,False
Laser Power %,0
Laser Temperature,0
Pixel Count,2048

Pixel,Wavelength,Wavenumber,Processed,Raw,Dark
0,793.27,132.25,NA,1340.00,1309.00
2,793.58,137.12,NA,1437.00,1366.00
4,793.89,141.99,NA,1376.00,1313.00
6,794.19,146.86,NA,1404.00,1334.00
8,794.50,151.72,NA,1448.00,1393.00
10,794.81,156.58,NA,1425.00,1421.00
12,795.12,161.44,NA,1353.00,1328.00
14,795.42,166.30,NA,1378.00,1315.00
16,795.73,171.16,NA,1391.00,1338.00
18,796.04,176.01,NA,1488.00,1406.00
20,796.35,180.86,NA,1446.00,1414.00
22,796.65,185.71,NA,1560.00,1492.00
24,796.96,190.56,NA,1450.00,1399.00
26,797.27,195.41,NA,1535.00,1488.00
28,797.58,200.25,NA,1518.00,1456.00
30,797.88,205.09,NA,1433.00,1366.00
32,798.19,209.93,NA,1442.00,1374.00
34,798.50,214.77,NA,1478.00,1382.00
36,798.81,219.60,NA,1471.00,1364.00
38,799.12,224.43,NA,1564.00,1404.00
40,799.43,229.27,NA,1934.00,1480.00
42,799.74,234.09,NA,3067.00,1439.00
44,800.04,238.92,NA,5013.00,1585.00
46,800.35,243.75,NA,5549.00,1439.00
48,800.66,248.57,217.02,5617.00,1509.00
50,800.97,253.39,192.08,5609.00,1516.00
52,801.28,258.21,174.03,5670.00,1539.00
54,801.59,263.02,248.94,5835.00,1539.00
56,801.90,267.83,603.06,6251.00,1492.00
58,802.21,272.65,1254.83,7020.00,1528.00
60,802.52,277.46,1964.30,7682.00,1513.00
62,802.83,282.26,1868.49,7650.00,1573.00
64,803.14,287.07,923.36,6771.00,1604.00
66,803.45,291.87,401.42,6035.00,1543.00
68,803.76,296.67,115.83,5655.00,1581.00
70,804.07,301.47,33.87,5404.00,1494.00
72,804.38,306.26,90.94,5410.00,1469.00
74,804.69,311.06,27.97,5353.00,1463.00
76,805.00,315.85,10.53,5344.00,1492.00
78,805.31,320.64,16.51,5355.00,1516.00
80,805.62,325.42,10.62,5364.00,1532.00
82,805.93,330.21,16.44,5364.00,1514.00
84,806.24,334.99,85.91,5327.00,1412.00
86,806.55,339.77,92.99,5393.00,1486.00
88,806.86,344.55,185.68,5575.00,1511.00
90,807.17,349.32,339.40,5748.00,1459.00
92,807.48,354.10,706.02,6281.00,1465.00
94,807.80,358.87,1432.17,7202.00,1566.00
96,808.11,363.63,1915.99,7551.00,1520.00
98,808.42,368.40,1328.34,6957.00,1454.00
100,808.73,373.16,510.86,6027.00,1469.00
102,809.04,377.93,292.68,5554.00,1402.00
104,809.35,382.68,215.46,5389.00,1425.00
106,809.66,387.44,201.77,5387.00,1484.00
108,809.98,392.19,158.34,5262.00,1421.00
110,810.29,396.95,146.06,5309.00,1501.00
112,810.60,401.70,268.06,5359.00,1435.00
114,810.91,406.44,197.70,5298.00,1442.00
116,811.22,411.19,261.55,5399.00,1494.00
118,811.54,415.93,324.00,5467.00,1497.00
120,811.85,420.67,282.21,5366.00,1435.00
122,812.16,425.41,371.41,5440.00,1444.00
124,812.47,430.14,369.80,5476.00,1490.00
126,812.79,434.87,311.71,5363.00,1454.00
128,813.10,439.60,382.38,5357.00,1385.00
130,813.41,444.33,387.63,5427.00,1450.00
132,813.72,449.06,447.09,5427.00,1401.00
134,814.04,453.78,465.37,5492.00,1461.00
136,814.35,458.50,417.13,5351.00,1383.00
138,814.66,463.22,417.78,5321.00,1376.00
140,814.98,467.93,410.10,5334.00,1431.00
142,815.29,472.65,500.71,5435.00,1435.00
144,815.60,477.36,434.28,5372.00,1456.00
146,815.92,482.06,439.26,5266.00,1387.00
148,816.23,486.77,455.32,5401.00,1511.00
150,816.54,491.47,435.31,5380.00,1562.00
152,816.86,496.17,399.25,5137.00,1404.00
154,817.17,500.87,264.62,5008.00,1461.00
156,817.48,505.57,196.39,4844.00,1425.00
158,817.80,510.26,139.22,4696.00,1391.00
160,818.11,514.95,168.55,4763.00,1456.00
162,818.42,519.64,129.56,4761.00,1492.00
164,818.74,524.32,181.82,4820.00,1437.00
166,819.05,529.00,495.68,5317.00,1499.00
168,819.37,533.68,1068.29,5828.00,1435.00
170,819.68,538.36,936.25,5714.00,1475.00
172,819.99,543.04,469.87,5188.00,1514.00
174,820.31,547.71,150.62,4658.00,1454.00
176,820.62,552.38,11.82,4288.00,1393.00
178,820.94,557.05,0.58,4261.00,1439.00
180,821.25,561.71,10.10,4167.00,1355.00
182,821.57,566.37,21.23,4168.00,1382.00
184,821.88,571.03,20.50,4199.00,1416.00
186,822.20,575.69,141.55,4436.00,1450.00
188,822.51,580.34,541.77,4774.00,1416.00
190,822.83,584.99,510.07,4753.00,1440.00
192,823.14,589.64,126.24,4301.00,1448.00
194,823.46,594.29,43.71,4085.00,1431.00
196,823.77,598.93,3.39,3965.00,1431.00
198,824.09,603.57,0.00,3836.00,1366.00
200,824.40,608.21,0.00,3850.00,1439.00
202,824.72,612.85,1.94,3876.00,1458.00
204,825.03,617.48,0.00,3779.00,1440.00
206,825.35,622.11,0.00,3800.00,1495.00
208,825.66,626.74,37.94,3857.00,1465.00
210,825.98,631.36,0.87,3726.00,1397.00
212,826.29,635.99,6.62,3764.00,1440.00
214,826.61,640.61,0.00,3707.00,1446.00
216,826.92,645.22,0.00,3656.00,1391.00
218,827.24,649.84,9.12,3648.00,1357.00
220,827.56,654.45,0.00,3703.00,1463.00
222,827.87,659.06,34.27,3745.00,1440.00
224,828.19,663.67,0.00,3682.00,1437.00
226,828.50,668.27,23.92,3884.00,1585.00
228,828.82,672.87,47.13,3785.00,1478.00
230,829.13,677.47,18.20,3701.00,1420.00
232,829.45,682.06,55.66,3774.00,1459.00
234,829.77,686.66,12.42,3903.00,1651.00
236,830.08,691.25,0.00,3673.00,1452.00
238,830.40,695.83,37.38,3690.00,1418.00
240,830.72,700.42,15.12,3648.00,1404.00
242,831.03,705.00,34.95,3567.00,1294.00
244,831.35,709.58,12.42,3626.00,1402.00
246,831.66,714.15,0.00,3498.00,1304.00
248,831.98,718.73,0.00,3597.00,1433.00
250,832.30,723.30,25.45,3597.00,1363.00
252,832.61,727.87,0.00,3673.00,1476.00
254,832.93,732.43,0.00,3436.00,1289.00
256,833.25,736.99,0.00,3643.00,1452.00
258,833.56,741.55,0.00,3614.00,1393.00
260,833.88,746.11,0.00,3595.00,1389.00
262,834.20,750.66,0.00,3635.00,1402.00
264,834.51,755.22,0.00,3738.00,1448.00
266,834.83,759.76,0.00,3755.00,1448.00
268,835.15,764.31,0.00,3760.00,1444.00
270,835.47,768.85,0.00,3772.00,1363.00
272,835.78,773.39,0.08,3870.00,1402.00
274,836.10,777.93,20.77,3965.00,1397.00
276,836.42,782.46,116.46,4093.00,1380.00
278,836.73,787.00,69.43,4072.00,1355.00
280,837.05,791.52,96.78,4172.00,1363.00
282,837.37,796.05,192.87,4404.00,1452.00
284,837.69,800.57,296.65,4510.00,1370.00
286,838.00,805.09,396.61,4679.00,1372.00
288,838.32,809.61,471.70,4850.00,1395.00
290,838.64,814.13,521.38,5061.00,1475.00
292,838.95,818.64,742.10,5330.00,1364.00
294,839.27,823.15,959.87,5740.00,1382.00
296,839.59,827.65,1379.92,6524.00,1429.00
298,839.91,832.15,1791.95,7407.00,1366.00
300,840.22,836.65,2826.95,9402.00,1533.00
302,840.54,841.15,4922.22,11815.00,1372.00
304,840.86,845.65,5601.79,12687.00,1461.00
306,841.18,850.14,3557.67,10623.00,1456.00
308,841.50,854.63,2682.61,9416.00,1611.00
310,841.81,859.11,3140.82,9080.00,1391.00
312,842.13,863.60,2468.98,8100.00,1429.00
314,842.45,868.07,1004.92,6143.00,1374.00
316,842.77,872.55,470.01,5205.00,1452.00
318,843.08,877.03,302.69,4871.00,1526.00
320,843.40,881.50,221.70,4463.00,1306.00
322,843.72,885.97,175.40,4503.00,1440.00
324,844.04,890.43,110.44,4309.00,1347.00
326,844.36,894.89,64.75,4244.00,1345.00
328,844.67,899.35,16.47,4260.00,1442.00
330,844.99,903.81,8.25,4112.00,1345.00
332,845.31,908.26,0.00,4104.00,1439.00
334,845.63,912.71,0.00,4100.00,1421.00
336,845.95,917.16,35.71,4218.00,1414.00
338,846.27,921.61,102.92,5133.00,2262.00
340,846.58,926.05,223.01,4468.00,1402.00
342,846.90,930.49,389.51,4662.00,1408.00
344,847.22,934.92,421.46,4681.00,1402.00
346,847.54,939.36,302.96,4449.00,1306.00
348,847.86,943.79,187.01,4288.00,1330.00
350,848.18,948.21,216.77,4279.00,1344.00
352,848.49,952.64,182.48,4220.00,1364.00
354,848.81,957.06,49.11,3929.00,1281.00
356,849.13,961.48,11.04,4055.00,1482.00
358,849.45,965.89,0.00,3939.00,1442.00
360,849.77,970.31,0.00,3827.00,1380.00
362,850.09,974.71,0.00,3804.00,1370.00
364,850.40,979.12,0.00,3880.00,1459.00
366,850.72,983.52,0.00,3994.00,1509.00
368,851.04,987.92,0.00,3867.00,1332.00
370,851.36,992.32,0.00,3886.00,1327.00
372,851.68,996.72,5.34,4037.00,1393.00
374,852.00,1001.11,0.00,4005.00,1345.00
376,852.32,1005.50,14.45,4064.00,1302.00
378,852.63,1009.88,44.67,4320.00,1484.00
380,852.95,1014.26,97.98,4394.00,1429.00
382,853.27,1018.64,125.89,4499.00,1452.00
384,853.59,1023.02,204.16,4560.00,1364.00
386,853.91,1027.39,225.27,4596.00,1321.00
388,854.23,1031.76,248.15,4713.00,1357.00
390,854.55,1036.13,295.59,4803.00,1342.00
392,854.87,1040.49,362.26,4949.00,1359.00
394,855.18,1044.86,415.83,5129.00,1397.00
396,855.50,1049.21,376.29,5233.00,1412.00
398,855.82,1053.57,623.16,5797.00,1433.00
400,856.14,1057.92,1312.54,6699.00,1359.00
402,856.46,1062.27,2118.15,7690.00,1378.00
404,856.78,1066.62,1798.94,7402.00,1319.00
406,857.10,1070.96,1265.19,6773.00,1344.00
408,857.42,1075.30,969.16,6359.00,1448.00
410,857.74,1079.64,645.60,5773.00,1357.00
412,858.06,1083.97,439.40,5435.00,1325.00
414,858.37,1088.30,281.38,5175.00,1315.00
416,858.69,1092.63,254.96,5135.00,1306.00
418,859.01,1096.95,247.19,5146.00,1294.00
420,859.33,1101.27,323.44,5355.00,1359.00
422,859.65,1105.59,438.01,5573.00,1366.00
424,859.97,1109.91,547.29,5805.00,1325.00
426,860.29,1114.22,761.86,6300.00,1344.00
428,860.61,1118.53,1206.07,7035.00,1319.00
430,860.93,1122.84,2120.12,8262.00,1364.00
432,861.25,1127.14,2360.71,8823.00,1452.00
434,861.56,1131.44,1944.15,8580.00,1328.00
436,861.88,1135.74,2385.26,9340.00,1347.00
438,862.20,1140.03,3625.85,10731.00,1402.00
440,862.52,1144.32,3665.41,10667.00,1395.00
442,862.84,1148.61,2475.65,9300.00,1416.00
444,863.16,1152.89,1218.69,7447.00,1347.00
446,863.48,1157.17,602.77,6386.00,1353.00
448,863.80,1161.45,267.91,5723.00,1330.00
450,864.12,1165.73,97.64,5495.00,1387.00
452,864.44,1170.00,9.05,5294.00,1330.00
454,864.76,1174.27,0.00,5271.00,1383.00
456,865.07,1178.53,0.00,5254.00,1306.00
458,865.39,1182.80,0.00,5327.00,1383.00
460,865.71,1187.06,0.00,5342.00,1361.00
462,866.03,1191.31,0.00,5437.00,1378.00
464,866.35,1195.57,0.00,5382.00,1353.00
466,866.67,1199.82,0.00,5537.00,1397.00
468,866.99,1204.06,0.00,5570.00,1372.00
470,867.31,1208.31,0.00,5754.00,1397.00
472,867.63,1212.55,0.01,5896.00,1363.00
474,867.95,1216.79,5.52,5989.00,1275.00
476,868.27,1221.02,134.60,6629.00,1359.00
478,868.58,1225.25,778.55,7823.00,1300.00
480,868.90,1229.48,2260.23,9845.00,1401.00
482,869.22,1233.71,3114.82,10997.00,1414.00
484,869.54,1237.93,2652.78,10726.00,1473.00
486,869.86,1242.15,1584.21,9433.00,1374.00
488,870.18,1246.36,806.15,8269.00,1294.00
490,870.50,1250.58,583.44,8020.00,1385.00
492,870.82,1254.79,463.49,7998.00,1509.00
494,871.14,1258.99,519.32,8081.00,1399.00
496,871.46,1263.20,703.36,8639.00,1412.00
498,871.78,1267.40,1189.17,9792.00,1345.00
500,872.10,1271.59,2767.98,12508.00,1336.00
502,872.41,1275.79,5610.54,16136.00,1325.00
504,872.73,1279.98,7325.93,18348.00,1408.00
506,873.05,1284.17,6263.88,17429.00,1439.00
508,873.37,1288.35,4341.98,14995.00,1251.00
510,873.69,1292.53,2566.01,12541.00,1325.00
512,874.01,1296.71,1732.07,11115.00,1332.00
514,874.33,1300.88,1368.81,10412.00,1270.00
516,874.65,1305.06,1072.04,10063.00,1353.00
518,874.97,1309.22,844.53,9733.00,1327.00
520,875.29,1313.39,672.28,9615.00,1370.00
522,875.60,1317.55,508.07,9503.00,1397.00
524,875.92,1321.71,341.77,9268.00,1351.00
526,876.24,1325.87,329.46,9389.00,1404.00
528,876.56,1330.02,228.34,9277.00,1334.00
530,876.88,1334.17,182.94,9302.00,1397.00
532,877.20,1338.32,197.34,9234.00,1287.00
534,877.52,1342.46,127.34,9196.00,1279.00
536,877.84,1346.60,223.70,9459.00,1380.00
538,878.16,1350.73,287.37,9541.00,1359.00
540,878.47,1354.87,403.01,9727.00,1327.00
542,878.79,1359.00,567.85,9940.00,1342.00
544,879.11,1363.13,632.70,10075.00,1368.00
546,879.43,1367.25,557.24,9985.00,1319.00
548,879.75,1371.37,428.05,9845.00,1347.00
550,880.07,1375.49,376.69,9754.00,1328.00
552,880.39,1379.60,403.08,9845.00,1372.00
554,880.71,1383.71,336.19,9818.00,1355.00
556,881.03,1387.82,432.48,10023.00,1313.00
558,881.34,1391.93,878.76,10483.00,1264.00
560,881.66,1396.03,1327.27,10898.00,1313.00
562,881.98,1400.13,792.43,10519.00,1359.00
564,882.30,1404.22,253.45,9805.00,1351.00
566,882.62,1408.31,154.45,9589.00,1328.00
568,882.94,1412.40,36.19,9414.00,1376.00
570,883.26,1416.49,0.00,9285.00,1330.00
572,883.57,1420.57,14.01,9412.00,1395.00
574,883.89,1424.65,14.20,9346.00,1311.00
576,884.21,1428.73,99.21,9619.00,1389.00
578,884.53,1432.80,346.32,10046.00,1450.00
580,884.85,1436.87,699.74,10431.00,1319.00
582,885.17,1440.93,1341.14,11231.00,1292.00
584,885.49,1445.00,1851.24,11851.00,1306.00
586,885.80,1449.06,1981.36,12051.00,1289.00
588,886.12,1453.11,1736.53,12015.00,1454.00
590,886.44,1457.17,1510.92,11827.00,1380.00
592,886.76,1461.22,1709.34,12229.00,1372.00
594,887.08,1465.26,2834.37,13792.00,1421.00
596,887.40,1469.31,4327.18,15574.00,1300.00
598,887.71,1473.35,5281.10,17019.00,1300.00
600,888.03,1477.38,6206.38,18369.00,1366.00
602,888.35,1481.42,6695.73,18688.00,1401.00
604,888.67,1485.45,6225.32,17746.00,1383.00
606,888.99,1489.48,3774.03,14881.00,1309.00
608,889.31,1493.50,1546.84,12013.00,1389.00
610,889.62,1497.52,734.69,10488.00,1351.00
612,889.94,1501.54,453.40,9720.00,1271.00
614,890.26,1505.56,368.95,9551.00,1325.00
616,890.58,1509.57,157.13,9245.00,1332.00
618,890.90,1513.57,157.89,9186.00,1323.00
620,891.21,1517.58,136.06,9123.00,1342.00
622,891.53,1521.58,117.77,9089.00,1382.00
624,891.85,1525.58,194.93,9059.00,1330.00
626,892.17,1529.57,101.29,8943.00,1366.00
628,892.49,1533.57,130.52,8935.00,1378.00
630,892.80,1537.56,120.75,8778.00,1313.00
632,893.12,1541.54,81.44,8685.00,1315.00
634,893.44,1545.52,40.55,8675.00,1401.00
636,893.76,1549.50,0.00,8421.00,1281.00
638,894.07,1553.48,0.86,8480.00,1387.00
640,894.39,1557.45,0.00,8265.00,1317.00
642,894.71,1561.42,0.00,8372.00,1387.00
644,895.03,1565.39,31.76,8267.00,1262.00
646,895.34,1569.35,2.45,8296.00,1397.00
648,895.66,1573.31,3.29,8184.00,1328.00
650,895.98,1577.26,33.52,8165.00,1315.00
652,896.30,1581.22,24.36,8077.00,1279.00
654,896.61,1585.17,0.63,8037.00,1321.00
656,896.93,1589.11,0.00,8020.00,1368.00
658,897.25,1593.06,12.11,7948.00,1309.00
660,897.57,1597.00,70.86,8000.00,1330.00
662,897.88,1600.93,22.47,7944.00,1361.00
664,898.20,1604.87,23.53,7891.00,1340.00
666,898.52,1608.80,114.16,7914.00,1311.00
668,898.84,1612.72,150.99,7882.00,1275.00
670,899.15,1616.65,165.33,7988.00,1376.00
672,899.47,1620.57,223.72,7905.00,1277.00
674,899.79,1624.49,271.47,7979.00,1332.00
676,900.10,1628.40,245.53,7908.00,1317.00
678,900.42,1632.31,227.00,7865.00,1361.00
680,900.74,1636.22,273.86,7719.00,1218.00
682,901.05,1640.12,230.97,7895.00,1463.00
684,901.37,1644.02,176.07,7694.00,1349.00
686,901.69,1647.92,294.61,7791.00,1366.00
688,902.00,1651.82,351.52,7751.00,1308.00
690,902.32,1655.71,352.20,7722.00,1281.00
692,902.64,1659.60,459.60,7768.00,1283.00
694,902.95,1663.48,454.92,7791.00,1347.00
696,903.27,1667.36,309.31,7574.00,1315.00
698,903.59,1671.24,375.38,7646.00,1380.00
700,903.90,1675.11,455.99,7671.00,1361.00
702,904.22,1678.99,341.95,7407.00,1252.00
704,904.54,1682.85,362.19,7635.00,1497.00
706,904.85,1686.72,370.43,7386.00,1285.00
708,905.17,1690.58,388.85,7405.00,1332.00
710,905.49,1694.44,423.81,7360.00,1281.00
712,905.80,1698.29,507.06,7449.00,1300.00
714,906.12,1702.15,571.92,7504.00,1323.00
716,906.43,1706.00,557.44,7487.00,1344.00
718,906.75,1709.84,627.91,7597.00,1395.00
720,907.07,1713.68,736.41,7546.00,1289.00
722,907.38,1717.52,806.89,7622.00,1328.00
724,907.70,1721.36,697.37,7468.00,1336.00
726,908.01,1725.19,748.79,7474.00,1338.00
728,908.33,1729.02,592.34,7276.00,1364.00
730,908.65,1732.85,451.93,7037.00,1327.00
732,908.96,1736.67,441.43,7003.00,1364.00
734,909.28,1740.49,382.00,6824.00,1317.00
736,909.59,1744.30,327.24,6771.00,1374.00
738,909.91,1748.12,358.94,6714.00,1323.00
740,910.22,1751.93,318.93,6646.00,1357.00
742,910.54,1755.73,278.74,6712.00,1532.00
744,910.85,1759.54,257.02,6513.00,1374.00
746,911.17,1763.34,157.76,6262.00,1292.00
748,911.49,1767.13,151.24,6257.00,1347.00
750,911.80,1770.93,40.44,6014.00,1290.00
752,912.12,1774.72,2.75,6019.00,1383.00
754,912.43,1778.50,0.00,5845.00,1266.00
756,912.75,1782.29,65.92,5923.00,1277.00
758,913.06,1786.07,34.44,5854.00,1296.00
760,913.38,1789.84,74.14,5868.00,1308.00
762,913.69,1793.62,96.71,5921.00,1382.00
764,914.01,1797.39,52.30,5803.00,1334.00
766,914.32,1801.15,61.87,5727.00,1306.00
768,914.64,1804.92,33.82,5642.00,1281.00
770,914.95,1808.68,6.06,5640.00,1357.00
772,915.26,1812.44,39.83,5672.00,1385.00
774,915.58,1816.19,69.97,5524.00,1245.00
776,915.89,1819.94,66.48,5566.00,1344.00
778,916.21,1823.69,107.33,5594.00,1366.00
780,916.52,1827.43,97.91,5609.00,1420.00
782,916.84,1831.17,96.25,5439.00,1300.00
784,917.15,1834.91,197.16,5437.00,1252.00
786,917.47,1838.64,168.14,5497.00,1347.00
788,917.78,1842.38,57.69,5325.00,1342.00
790,918.09,1846.10,125.20,5321.00,1323.00
792,918.41,1849.83,181.07,5349.00,1345.00
794,918.72,1853.55,140.68,5205.00,1262.00
796,919.04,1857.27,159.65,5243.00,1311.00
798,919.35,1860.98,166.88,5199.00,1306.00
800,919.66,1864.69,191.86,5197.00,1327.00
802,919.98,1868.40,223.64,5215.00,1340.00
804,920.29,1872.11,194.15,5148.00,1338.00
806,920.60,1875.81,260.64,5123.00,1302.00
808,920.92,1879.51,241.56,5066.00,1304.00
810,921.23,1883.20,244.69,5127.00,1376.00
812,921.55,1886.90,287.80,5008.00,1260.00
814,921.86,1890.58,299.75,5095.00,1391.00
816,922.17,1894.27,312.46,5063.00,1372.00
818,922.49,1897.95,269.18,4962.00,1361.00
820,922.80,1901.63,274.39,4871.00,1321.00
822,923.11,1905.31,227.87,4812.00,1319.00
824,923.42,1908.98,202.37,4780.00,1349.00
826,923.74,1912.65,333.19,4865.00,1366.00
828,924.05,1916.31,317.59,4753.00,1315.00
830,924.36,1919.98,293.24,4675.00,1283.00
832,924.68,1923.64,288.26,4639.00,1292.00
834,924.99,1927.29,306.39,4622.00,1294.00
836,925.30,1930.94,258.09,4491.00,1254.00
838,925.61,1934.59,332.43,4561.00,1296.00
840,925.93,1938.24,288.03,4474.00,1294.00
842,926.24,1941.88,289.61,4472.00,1321.00
844,926.55,1945.52,254.09,4366.00,1294.00
846,926.86,1949.16,210.96,4334.00,1338.00
848,927.18,1952.79,183.95,4210.00,1285.00
850,927.49,1956.42,205.17,4208.00,1306.00
852,927.80,1960.05,201.43,4425.00,1564.00
854,928.11,1963.67,247.12,4186.00,1325.00
856,928.42,1967.29,246.77,4203.00,1382.00
858,928.74,1970.91,203.55,4083.00,1323.00
860,929.05,1974.52,182.38,4000.00,1302.00
862,929.36,1978.13,200.81,3960.00,1292.00
864,929.67,1981.74,171.89,3927.00,1328.00
866,929.98,1985.35,211.19,3952.00,1342.00
868,930.29,1988.95,141.08,3808.00,1315.00
870,930.61,1992.54,162.49,3764.00,1294.00
872,930.92,1996.14,51.72,3667.00,1323.00
874,931.23,1999.73,39.87,3677.00,1374.00
876,931.54,2003.32,69.67,3610.00,1330.00
878,931.85,2006.90,187.10,3639.00,1304.00
880,932.16,2010.48,87.92,3502.00,1285.00
882,932.47,2014.06,60.47,3479.00,1315.00
884,932.78,2017.63,56.10,3470.00,1336.00
886,933.09,2021.21,62.66,3420.00,1317.00
888,933.41,2024.77,50.70,3405.00,1361.00
890,933.72,2028.34,76.87,3445.00,1416.00
892,934.03,2031.90,28.61,3314.00,1357.00
894,934.34,2035.46,13.90,3255.00,1347.00
896,934.65,2039.01,0.00,3136.00,1281.00
898,934.96,2042.57,0.00,3189.00,1378.00
900,935.27,2046.11,34.75,3248.00,1416.00
902,935.58,2049.66,13.90,3016.00,1241.00
904,935.89,2053.20,38.55,3102.00,1325.00
906,936.20,2056.74,0.00,3014.00,1311.00
908,936.51,2060.28,12.72,3026.00,1327.00
910,936.82,2063.81,7.26,3028.00,1374.00
912,937.13,2067.34,9.66,2965.00,1340.00
914,937.44,2070.86,73.10,2969.00,1313.00
916,937.75,2074.39,5.19,2851.00,1283.00
918,938.06,2077.91,30.94,2857.00,1289.00
920,938.37,2081.42,0.00,2826.00,1328.00
922,938.68,2084.94,31.85,2790.00,1287.00
924,938.99,2088.45,0.00,2724.00,1285.00
926,939.30,2091.95,0.00,2767.00,1349.00
928,939.60,2095.46,53.29,2758.00,1313.00
930,939.91,2098.96,16.71,2783.00,1399.00
932,940.22,2102.45,30.93,2716.00,1325.00
934,940.53,2105.95,0.00,2570.00,1289.00
936,940.84,2109.44,0.00,2617.00,1313.00
938,941.15,2112.92,9.27,2652.00,1344.00
940,941.46,2116.41,74.82,2623.00,1289.00
942,941.77,2119.89,24.34,2648.00,1363.00
944,942.07,2123.37,45.90,2598.00,1309.00
946,942.38,2126.84,0.00,2581.00,1370.00
948,942.69,2130.31,9.14,2602.00,1378.00
950,943.00,2133.78,36.92,2536.00,1309.00
952,943.31,2137.24,34.04,2559.00,1344.00
954,943.62,2140.70,9.20,2543.00,1351.00
956,943.92,2144.16,0.00,2467.00,1317.00
958,944.23,2147.62,0.00,2502.00,1361.00
960,944.54,2151.07,0.00,2502.00,1387.00
962,944.85,2154.52,2.42,2551.00,1431.00
964,945.16,2157.96,61.17,2532.00,1383.00
966,945.46,2161.40,6.19,2467.00,1359.00
968,945.77,2164.84,0.13,2342.00,1258.00
970,946.08,2168.28,1.70,2401.00,1323.00
972,946.39,2171.71,56.18,2405.00,1290.00
974,946.69,2175.14,26.75,2392.00,1309.00
976,947.00,2178.57,59.14,2401.00,1304.00
978,947.31,2181.99,53.51,2333.00,1252.00
980,947.61,2185.41,0.00,2338.00,1344.00
982,947.92,2188.82,35.34,2433.00,1363.00
984,948.23,2192.24,56.88,2333.00,1271.00
986,948.53,2195.65,5.39,2371.00,1353.00
988,948.84,2199.05,57.25,2255.00,1201.00
990,949.15,2202.46,64.45,2403.00,1334.00
992,949.45,2205.86,0.00,2323.00,1327.00
994,949.76,2209.25,11.97,2281.00,1275.00
996,950.07,2212.65,78.58,2338.00,1296.00
998,950.37,2216.04,18.84,2259.00,1254.00
1000,950.68,2219.43,5.96,2285.00,1298.00
1002,950.98,2222.81,45.08,2367.00,1351.00
1004,951.29,2226.19,55.30,2293.00,1283.00
1006,951.60,2229.57,69.51,2261.00,1239.00
1008,951.90,2232.94,100.84,2280.00,1235.00
1010,952.21,2236.32,52.86,2291.00,1289.00
1012,952.51,2239.68,75.65,2327.00,1309.00
1014,952.82,2243.05,83.10,2221.00,1213.00
1016,953.12,2246.41,83.85,2390.00,1378.00
1018,953.43,2249.77,46.54,2450.00,1467.00
1020,953.73,2253.12,92.67,2390.00,1383.00
1022,954.04,2256.48,60.49,2192.00,1220.00
1024,954.34,2259.83,62.82,2344.00,1372.00
1026,954.65,2263.17,58.59,2259.00,1290.00
1028,954.95,2266.51,61.35,2272.00,1304.00
1030,955.26,2269.85,129.67,2401.00,1397.00
1032,955.56,2273.19,145.04,2363.00,1353.00
1034,955.87,2276.52,60.25,2310.00,1363.00
1036,956.17,2279.85,75.11,2346.00,1387.00
1038,956.48,2283.18,71.61,2211.00,1262.00
1040,956.78,2286.50,145.01,2240.00,1256.00
1042,957.08,2289.82,107.44,2204.00,1241.00
1044,957.39,2293.14,30.54,2261.00,1359.00
1046,957.69,2296.45,60.54,2190.00,1271.00
1048,957.99,2299.76,80.38,2317.00,1395.00
1050,958.30,2303.07,74.04,2266.00,1359.00
1052,958.60,2306.38,80.76,2243.00,1321.00
1054,958.91,2309.68,10.49,2173.00,1313.00
1056,959.21,2312.98,8.08,2118.00,1268.00
1058,959.51,2316.27,22.39,2150.00,1298.00
1060,959.82,2319.56,40.48,2243.00,1374.00
1062,960.12,2322.85,9.81,2131.00,1292.00
1064,960.42,2326.14,43.74,2120.00,1264.00
1066,960.72,2329.42,116.56,2209.00,1325.00
1068,961.03,2332.70,50.30,2200.00,1347.00
1070,961.33,2335.97,29.55,2166.00,1325.00
1072,961.63,2339.25,47.12,2133.00,1294.00
1074,961.93,2342.52,84.75,2135.00,1290.00
1076,962.24,2345.78,29.54,2118.00,1302.00
1078,962.54,2349.05,0.00,2092.00,1315.00
1080,962.84,2352.31,16.00,2124.00,1321.00
1082,963.14,2355.56,88.20,2099.00,1270.00
1084,963.45,2358.82,60.29,2124.00,1313.00
1086,963.75,2362.07,2.89,2145.00,1370.00
1088,964.05,2365.32,2.82,2209.00,1435.00
1090,964.35,2368.56,26.05,2109.00,1325.00
1092,964.65,2371.80,65.52,2145.00,1347.00
1094,964.95,2375.04,1.92,2080.00,1323.00
1096,965.25,2378.27,47.62,2065.00,1277.00
1098,965.56,2381.51,30.48,2111.00,1342.00
1100,965.86,2384.73,0.00,2076.00,1336.00
1102,966.16,2387.96,0.00,2050.00,1308.00
1104,966.46,2391.18,69.40,2183.00,1387.00
1106,966.76,2394.40,37.02,2050.00,1287.00
1108,967.06,2397.62,128.29,2181.00,1366.00
1110,967.36,2400.83,96.33,2073.00,1281.00
1112,967.66,2404.04,58.67,2164.00,1389.00
1114,967.96,2407.25,1.45,1993.00,1262.00
1116,968.26,2410.45,15.64,2061.00,1313.00
1118,968.56,2413.65,12.40,2016.00,1279.00
1120,968.86,2416.85,24.35,2149.00,1410.00
1122,969.16,2420.04,57.20,2071.00,1319.00
1124,969.46,2423.23,35.90,2012.00,1275.00
1126,969.76,2426.42,54.42,2080.00,1321.00
1128,970.06,2429.60,0.00,1945.00,1252.00
1130,970.36,2432.79,23.01,2029.00,1300.00
1132,970.66,2435.96,75.16,2025.00,1277.00
1134,970.96,2439.14,8.13,2023.00,1308.00
1136,971.26,2442.31,6.15,2086.00,1368.00
1138,971.56,2445.48,0.00,2040.00,1334.00
1140,971.86,2448.65,26.03,2016.00,1287.00
1142,972.16,2451.81,74.09,2074.00,1323.00
1144,972.45,2454.97,11.13,2040.00,1327.00
1146,972.75,2458.13,95.61,2078.00,1308.00
1148,973.05,2461.28,75.39,2029.00,1283.00
1150,973.35,2464.43,148.21,2114.00,1327.00
1152,973.65,2467.58,112.74,2078.00,1313.00
1154,973.95,2470.72,175.75,2122.00,1317.00
1156,974.24,2473.86,100.87,2073.00,1315.00
1158,974.54,2477.00,160.06,2059.00,1268.00
1160,974.84,2480.13,85.23,2090.00,1347.00
1162,975.14,2483.27,163.73,2101.00,1302.00
1164,975.43,2486.40,79.65,2002.00,1266.00
1166,975.73,2489.52,199.61,2078.00,1281.00
1168,976.03,2492.64,149.44,2046.00,1279.00
1170,976.33,2495.76,165.15,2118.00,1340.00
1172,976.62,2498.88,115.59,2038.00,1285.00
1174,976.92,2501.99,101.65,2101.00,1359.00
1176,977.22,2505.10,215.99,2141.00,1345.00
1178,977.51,2508.21,119.96,2069.00,1327.00
1180,977.81,2511.31,163.72,2082.00,1311.00
1182,978.11,2514.41,198.74,2099.00,1321.00
1184,978.40,2517.51,242.73,2111.00,1317.00
1186,978.70,2520.61,231.85,2099.00,1309.00
1188,979.00,2523.70,139.88,2124.00,1376.00
1190,979.29,2526.79,137.80,2056.00,1306.00
1192,979.59,2529.87,182.97,2088.00,1327.00
1194,979.88,2532.95,143.58,1997.00,1268.00
1196,980.18,2536.03,176.69,2103.00,1353.00
1198,980.48,2539.11,155.63,2145.00,1401.00
1200,980.77,2542.18,156.33,2054.00,1315.00
1202,981.07,2545.25,183.39,2130.00,1387.00
1204,981.36,2548.32,214.83,2082.00,1321.00
1206,981.66,2551.38,234.25,2154.00,1382.00
1208,981.95,2554.44,263.79,2111.00,1323.00
1210,982.25,2557.50,214.72,2192.00,1431.00
1212,982.54,2560.56,344.42,2223.00,1402.00
1214,982.84,2563.61,394.97,2262.00,1423.00
1216,983.13,2566.66,351.07,2234.00,1414.00
1218,983.43,2569.70,433.18,2234.00,1380.00
1220,983.72,2572.74,456.38,2249.00,1399.00
1222,984.01,2575.78,398.19,2181.00,1357.00
1224,984.31,2578.82,321.30,2101.00,1309.00
1226,984.60,2581.85,280.67,2135.00,1364.00
1228,984.90,2584.88,181.74,1985.00,1271.00
1230,985.19,2587.91,193.88,2056.00,1336.00
1232,985.48,2590.93,147.85,2061.00,1374.00
1234,985.78,2593.96,246.13,2067.00,1347.00
1236,986.07,2596.97,155.74,2025.00,1344.00
1238,986.36,2599.99,66.25,2099.00,1454.00
1240,986.66,2603.00,33.06,2048.00,1425.00
1242,986.95,2606.01,85.76,2059.00,1414.00
1244,987.24,2609.01,74.75,2027.00,1397.00
1246,987.54,2612.02,78.72,1854.00,1228.00
1248,987.83,2615.02,35.17,2002.00,1397.00
1250,988.12,2618.01,0.00,1974.00,1387.00
1252,988.41,2621.01,0.00,1964.00,1382.00
1254,988.71,2624.00,0.00,1900.00,1317.00
1256,989.00,2626.99,98.53,1989.00,1357.00
1258,989.29,2629.97,61.65,1974.00,1366.00
1260,989.58,2632.95,12.33,1981.00,1391.00
1262,989.87,2635.93,18.42,1989.00,1397.00
1264,990.16,2638.91,0.00,1877.00,1317.00
1266,990.46,2641.88,25.20,1985.00,1389.00
1268,990.75,2644.85,16.11,2056.00,1459.00
1270,991.04,2647.81,0.00,1964.00,1383.00
1272,991.33,2650.78,0.00,1993.00,1402.00
1274,991.62,2653.74,0.00,1961.00,1361.00
1276,991.91,2656.70,3.29,1961.00,1345.00
1278,992.20,2659.65,0.00,2000.00,1387.00
1280,992.49,2662.60,1.16,1951.00,1315.00
1282,992.78,2665.55,0.00,2050.00,1425.00
1284,993.07,2668.50,6.68,2095.00,1427.00
1286,993.36,2671.44,6.76,2097.00,1402.00
1288,993.65,2674.38,1.47,2139.00,1435.00
1290,993.94,2677.31,100.42,2202.00,1374.00
1292,994.23,2680.25,495.13,2321.00,1363.00
1294,994.52,2683.18,719.46,2395.00,1382.00
1296,994.81,2686.10,761.08,2485.00,1416.00
1298,995.10,2689.03,709.38,2496.00,1401.00
1300,995.39,2691.95,786.01,2528.00,1387.00
1302,995.68,2694.87,893.74,2617.00,1440.00
1304,995.97,2697.78,839.47,2612.00,1439.00
1306,996.26,2700.70,653.38,2456.00,1321.00
1308,996.55,2703.61,554.19,2515.00,1399.00
1310,996.84,2706.51,586.46,2568.00,1439.00
1312,997.13,2709.42,673.79,2560.00,1399.00
1314,997.41,2712.32,574.98,2581.00,1437.00
1316,997.70,2715.21,529.00,2521.00,1370.00
1318,997.99,2718.11,537.37,2515.00,1359.00
1320,998.28,2721.00,646.62,2526.00,1325.00
1322,998.57,2723.89,454.06,2598.00,1444.00
1324,998.86,2726.77,296.86,2437.00,1330.00
1326,999.14,2729.66,490.50,2553.00,1364.00
1328,999.43,2732.54,345.92,2509.00,1370.00
1330,999.72,2735.41,312.28,2517.00,1380.00
1332,1000.01,2738.29,366.85,2631.00,1450.00
1334,1000.29,2741.16,220.96,2551.00,1404.00
1336,1000.58,2744.03,331.85,2534.00,1328.00
1338,1000.87,2746.89,346.85,2636.00,1439.00
1340,1001.15,2749.75,536.26,2606.00,1370.00
1342,1001.44,2752.61,377.69,2585.00,1364.00
1344,1001.73,2755.47,49.23,2494.00,1338.00
1346,1002.01,2758.32,0.00,2479.00,1364.00
1348,1002.30,2761.17,0.00,2543.00,1431.00
1350,1002.59,2764.02,0.00,2543.00,1488.00
1352,1002.87,2766.86,0.01,2549.00,1374.00
1354,1003.16,2769.70,8.60,2593.00,1347.00
1356,1003.44,2772.54,175.88,2691.00,1321.00
1358,1003.73,2775.38,810.84,2953.00,1408.00
1360,1004.01,2778.21,1716.42,3086.00,1336.00
1362,1004.30,2781.04,2322.98,3269.00,1359.00
1364,1004.58,2783.87,2322.40,3303.00,1345.00
1366,1004.87,2786.69,2202.32,3246.00,1287.00
1368,1005.15,2789.51,2553.96,3479.00,1406.00
1370,1005.44,2792.33,2732.51,3496.00,1391.00
1372,1005.72,2795.14,3183.58,3646.00,1410.00
1374,1006.01,2797.95,3476.73,3758.00,1440.00
1376,1006.29,2800.76,3866.17,3804.00,1364.00
1378,1006.58,2803.57,4230.31,4043.00,1497.00
1380,1006.86,2806.37,4791.29,4036.00,1340.00
1382,1007.14,2809.17,5426.97,4206.00,1336.00
1384,1007.43,2811.97,5752.02,4301.00,1334.00
1386,1007.71,2814.77,6188.90,4421.00,1315.00
1388,1008.00,2817.56,6658.90,4571.00,1336.00
1390,1008.28,2820.35,7354.69,4831.00,1414.00
1392,1008.56,2823.13,7774.51,4871.00,1364.00
1394,1008.85,2825.91,8416.85,5082.00,1412.00
1396,1009.13,2828.69,8742.60,5142.00,1391.00
1398,1009.41,2831.47,8878.00,5222.00,1444.00
1400,1009.69,2834.24,9265.61,5173.00,1302.00
1402,1009.98,2837.02,9374.59,5233.00,1357.00
1404,1010.26,2839.78,9484.77,5306.00,1420.00
1406,1010.54,2842.55,9335.16,5158.00,1328.00
1408,1010.82,2845.31,9434.37,5247.00,1410.00
1410,1011.11,2848.07,9796.03,5319.00,1423.00
1412,1011.39,2850.83,9713.00,5264.00,1423.00
1414,1011.67,2853.58,9784.62,5252.00,1389.00
1416,1011.95,2856.33,10043.44,5302.00,1370.00
1418,1012.23,2859.08,10256.78,5325.00,1364.00
1420,1012.51,2861.83,10853.81,5437.00,1342.00
1422,1012.80,2864.57,11249.99,5672.00,1492.00
1424,1013.08,2867.31,12046.63,5839.00,1461.00
1426,1013.36,2870.04,12882.23,6012.00,1442.00
1428,1013.64,2872.78,14139.31,6262.00,1401.00
1430,1013.92,2875.51,15169.95,6570.00,1480.00
1432,1014.20,2878.24,16283.44,6752.00,1399.00
1434,1014.48,2880.96,17018.11,6887.00,1382.00
1436,1014.76,2883.68,18062.70,7026.00,1328.00
1438,1015.04,2886.40,18904.97,7166.00,1349.00
1440,1015.32,2889.12,18996.28,7221.00,1431.00
1442,1015.60,2891.83,18085.29,6948.00,1376.00
1444,1015.88,2894.54,16912.87,6739.00,1431.00
1446,1016.16,2897.25,15901.63,6357.00,1309.00
1448,1016.44,2899.96,15438.45,6310.00,1435.00
1450,1016.72,2902.66,15343.01,6160.00,1376.00
1452,1017.00,2905.36,14391.60,5970.00,1484.00
1454,1017.28,2908.06,14241.80,5725.00,1345.00
1456,1017.55,2910.75,13634.64,5611.00,1437.00
1458,1017.83,2913.44,12504.90,5199.00,1315.00
1460,1018.11,2916.13,11202.54,4975.00,1385.00
1462,1018.39,2918.81,9393.33,4592.00,1410.00
1464,1018.67,2921.49,8183.24,4288.00,1402.00
1466,1018.95,2924.17,8047.38,4208.00,1393.00
1468,1019.22,2926.85,7569.75,4075.00,1416.00
1470,1019.50,2929.52,7452.09,3929.00,1319.00
1472,1019.78,2932.20,7253.12,3867.00,1330.00
1474,1020.06,2934.86,7447.42,3888.00,1349.00
1476,1020.33,2937.53,7938.92,4068.00,1459.00
1478,1020.61,2940.19,7810.54,3946.00,1397.00
1480,1020.89,2942.85,8031.40,3986.00,1406.00
1482,1021.17,2945.51,7441.29,3819.00,1378.00
1484,1021.44,2948.16,7303.74,3783.00,1391.00
1486,1021.72,2950.81,7050.24,3681.00,1368.00
1488,1022.00,2953.46,6419.10,3618.00,1454.00
1490,1022.27,2956.11,5819.60,3400.00,1378.00
1492,1022.55,2958.75,5561.39,3402.00,1450.00
1494,1022.82,2961.39,4854.30,3177.00,1383.00
1496,1023.10,2964.03,4244.35,3109.00,1459.00
1498,1023.38,2966.66,3843.63,2923.00,1380.00
1500,1023.65,2969.29,3377.94,2862.00,1423.00
1502,1023.93,2971.92,2629.63,2737.00,1450.00
1504,1024.20,2974.55,2175.97,2602.00,1414.00
1506,1024.48,2977.17,1576.14,2452.00,1401.00
1508,1024.75,2979.79,1184.72,2312.00,1353.00
1510,1025.03,2982.41,906.79,2276.00,1376.00
1512,1025.30,2985.02,483.77,2147.00,1332.00
1514,1025.58,2987.63,270.47,2156.00,1401.00
1516,1025.85,2990.24,222.53,2063.00,1338.00
1518,1026.13,2992.85,0.00,2086.00,1452.00
1520,1026.40,2995.45,34.55,2023.00,1395.00
1522,1026.68,2998.05,0.00,1957.00,1382.00
1524,1026.95,3000.65,0.00,2010.00,1461.00
1526,1027.22,3003.25,4.70,1934.00,1399.00
1528,1027.50,3005.84,0.00,1839.00,1351.00
1530,1027.77,3008.43,33.67,1896.00,1404.00
1532,1028.04,3011.02,0.00,1871.00,1429.00
1534,1028.32,3013.60,248.76,1849.00,1366.00
1536,1028.59,3016.18,0.00,1856.00,1429.00
1538,1028.86,3018.76,0.00,1683.00,1277.00
1540,1029.14,3021.34,0.00,1794.00,1401.00
1542,1029.41,3023.91,185.31,1750.00,1330.00
1544,1029.68,3026.48,0.00,1691.00,1330.00
1546,1029.95,3029.05,0.00,1744.00,1391.00
1548,1030.22,3031.61,120.87,1706.00,1342.00
1550,1030.50,3034.17,249.12,1716.00,1347.00
1552,1030.77,3036.73,0.00,1666.00,1347.00
1554,1031.04,3039.29,36.92,1733.00,1408.00
1556,1031.31,3041.84,33.71,1625.00,1309.00
1558,1031.58,3044.39,3.34,1780.00,1478.00
1560,1031.85,3046.94,75.46,1754.00,1442.00
1562,1032.13,3049.49,0.00,1632.00,1347.00
1564,1032.40,3052.03,0.00,1725.00,1442.00
1566,1032.67,3054.57,130.66,1640.00,1338.00
1568,1032.94,3057.11,108.86,1769.00,1478.00
1570,1033.21,3059.64,256.18,1606.00,1300.00
1572,1033.48,3062.18,166.77,1740.00,1440.00
1574,1033.75,3064.70,0.00,1693.00,1440.00
1576,1034.02,3067.23,1.28,1721.00,1456.00
1578,1034.29,3069.75,261.78,1596.00,1300.00
1580,1034.56,3072.28,36.71,1685.00,1420.00
1582,1034.83,3074.79,0.00,1556.00,1300.00
1584,1035.10,3077.31,28.38,1695.00,1431.00
1586,1035.37,3079.82,0.00,1613.00,1363.00
1588,1035.64,3082.33,309.66,1776.00,1490.00
1590,1035.91,3084.84,288.73,1708.00,1412.00
1592,1036.17,3087.34,18.22,1611.00,1353.00
1594,1036.44,3089.85,3.50,1740.00,1488.00
1596,1036.71,3092.35,118.15,1621.00,1345.00
1598,1036.98,3094.84,167.43,1588.00,1319.00
1600,1037.25,3097.34,239.49,1611.00,1338.00
1602,1037.52,3099.83,188.01,1619.00,1347.00
1604,1037.78,3102.32,44.50,1655.00,1399.00
1606,1038.05,3104.80,0.00,1695.00,1456.00
1608,1038.32,3107.29,179.22,1644.00,1374.00
1610,1038.59,3109.77,181.93,1644.00,1376.00
1612,1038.85,3112.24,188.97,1634.00,1357.00
1614,1039.12,3114.72,61.86,1714.00,1454.00
1616,1039.39,3117.19,2.40,1541.00,1292.00
1618,1039.66,3119.66,388.10,1727.00,1440.00
1620,1039.92,3122.13,175.71,1695.00,1427.00
1622,1040.19,3124.59,0.00,1630.00,1387.00
1624,1040.45,3127.05,84.86,1617.00,1347.00
1626,1040.72,3129.51,0.00,1682.00,1429.00
1628,1040.99,3131.97,0.00,1708.00,1454.00
1630,1041.25,3134.42,213.28,1750.00,1469.00
1632,1041.52,3136.87,86.54,1594.00,1319.00
1634,1041.78,3139.32,0.00,1657.00,1399.00
1636,1042.05,3141.77,463.17,1917.00,1598.00
1638,1042.32,3144.21,33.32,1634.00,1363.00
1640,1042.58,3146.65,282.11,1767.00,1469.00
1642,1042.85,3149.09,257.00,1716.00,1412.00
1644,1043.11,3151.52,111.30,1699.00,1406.00
1646,1043.38,3153.96,63.19,1729.00,1437.00
1648,1043.64,3156.39,2.17,1674.00,1391.00
1650,1043.90,3158.81,118.67,1701.00,1399.00
1652,1044.17,3161.24,585.27,1782.00,1437.00
1654,1044.43,3163.66,129.15,1640.00,1338.00
1656,1044.70,3166.08,656.04,1849.00,1495.00
1658,1044.96,3168.49,172.63,1738.00,1423.00
1660,1045.22,3170.91,87.20,1704.00,1395.00
1662,1045.49,3173.32,280.25,1740.00,1408.00
1664,1045.75,3175.73,646.74,1788.00,1418.00
1666,1046.01,3178.13,459.97,1716.00,1364.00
1668,1046.28,3180.54,560.25,1813.00,1454.00
1670,1046.54,3182.94,367.98,1816.00,1473.00
1672,1046.80,3185.34,374.30,1794.00,1442.00
1674,1047.07,3187.73,214.88,1702.00,1359.00
1676,1047.33,3190.12,107.98,1752.00,1420.00
1678,1047.59,3192.51,488.95,1794.00,1425.00
1680,1047.85,3194.90,1171.01,1909.00,1494.00
1682,1048.11,3197.29,921.01,1852.00,1452.00
1684,1048.38,3199.67,232.02,1801.00,1450.00
1686,1048.64,3202.05,121.14,1854.00,1511.00
1688,1048.90,3204.43,372.76,1790.00,1421.00
1690,1049.16,3206.80,925.90,1799.00,1391.00
1692,1049.42,3209.17,1065.95,1858.00,1448.00
1694,1049.68,3211.54,1361.61,1811.00,1370.00
1696,1049.94,3213.91,655.23,1805.00,1416.00
1698,1050.20,3216.27,1035.02,1845.00,1423.00
1700,1050.46,3218.63,1288.37,1934.00,1501.00
1702,1050.72,3220.99,1310.04,1873.00,1440.00
1704,1050.98,3223.35,1118.38,1869.00,1446.00
1706,1051.24,3225.70,1296.55,1849.00,1410.00
1708,1051.50,3228.05,1785.34,1849.00,1376.00
1710,1051.76,3230.40,1169.96,1906.00,1488.00
1712,1052.02,3232.75,1568.67,1869.00,1423.00
1714,1052.28,3235.09,1828.73,1957.00,1492.00
1716,1052.54,3237.43,1292.52,1845.00,1418.00
1718,1052.80,3239.77,1328.26,1835.00,1401.00
1720,1053.06,3242.11,1519.03,1881.00,1431.00
1722,1053.32,3244.44,1977.47,1830.00,1349.00
1724,1053.58,3246.77,2019.43,2004.00,1530.00
1726,1053.84,3249.10,2398.32,1907.00,1414.00
1728,1054.10,3251.42,2404.98,1932.00,1440.00
1730,1054.35,3253.75,1868.28,1868.00,1410.00
1732,1054.61,3256.07,2433.09,1970.00,1465.00
1734,1054.87,3258.39,2063.75,1890.00,1414.00
1736,1055.13,3260.70,2125.81,1885.00,1414.00
1738,1055.38,3263.01,2615.95,1879.00,1385.00
1740,1055.64,3265.32,2112.33,1881.00,1423.00
1742,1055.90,3267.63,1990.94,1814.00,1361.00
1744,1056.16,3269.94,2199.35,1968.00,1495.00
1746,1056.41,3272.24,1747.45,1957.00,1514.00
1748,1056.67,3274.54,2321.61,1909.00,1431.00
1750,1056.93,3276.84,2464.87,1917.00,1440.00
1752,1057.18,3279.13,2200.96,1854.00,1401.00
1754,1057.44,3281.42,2073.86,1814.00,1372.00
1756,1057.69,3283.71,2254.45,1841.00,1387.00
1758,1057.95,3286.00,1822.65,1945.00,1514.00
1760,1058.21,3288.28,1398.27,1803.00,1397.00
1762,1058.46,3290.57,1938.65,1913.00,1473.00
1764,1058.72,3292.85,1818.36,1902.00,1480.00
1766,1058.97,3295.12,2574.50,1818.00,1361.00
1768,1059.23,3297.40,1651.28,1788.00,1385.00
1770,1059.48,3299.67,1596.46,1877.00,1475.00
1772,1059.74,3301.94,1916.23,1780.00,1361.00
1774,1059.99,3304.21,1689.75,1881.00,1478.00
1776,1060.25,3306.47,1348.42,1909.00,1524.00
1778,1060.50,3308.73,1170.21,1765.00,1389.00
1780,1060.76,3310.99,1269.66,1799.00,1420.00
1782,1061.01,3313.25,1882.08,1839.00,1431.00
1784,1061.26,3315.50,1400.05,1784.00,1408.00
1786,1061.52,3317.76,1820.83,1854.00,1458.00
1788,1061.77,3320.01,1847.19,1871.00,1476.00
1790,1062.02,3322.25,1726.10,1763.00,1376.00
1792,1062.28,3324.50,1831.63,1790.00,1397.00
1794,1062.53,3326.74,1416.23,1744.00,1372.00
1796,1062.78,3328.98,1022.49,1763.00,1414.00
1798,1063.04,3331.22,1273.46,1776.00,1418.00
1800,1063.29,3333.45,1166.97,1738.00,1389.00
1802,1063.54,3335.68,1321.59,1754.00,1397.00
1804,1063.79,3337.91,1075.23,1803.00,1456.00
1806,1064.05,3340.14,257.89,1843.00,1541.00
1808,1064.30,3342.36,1314.04,1714.00,1361.00
1810,1064.55,3344.59,1014.28,1801.00,1471.00
1812,1064.80,3346.81,1203.08,1744.00,1408.00
1814,1065.05,3349.02,599.43,1693.00,1385.00
1816,1065.30,3351.24,685.11,1780.00,1469.00
1818,1065.55,3353.45,1104.30,1738.00,1414.00
1820,1065.81,3355.66,1378.94,1847.00,1520.00
1822,1066.06,3357.87,1894.95,1737.00,1387.00
1824,1066.31,3360.07,398.29,1649.00,1364.00
1826,1066.56,3362.27,1167.54,1788.00,1467.00
1828,1066.81,3364.47,606.52,1670.00,1383.00
1830,1067.06,3366.67,1055.86,1716.00,1412.00
1832,1067.31,3368.87,262.40,1670.00,1401.00
1834,1067.56,3371.06,122.68,1585.00,1325.00
1836,1067.81,3373.25,1240.00,1632.00,1323.00
1838,1068.06,3375.44,463.13,1623.00,1357.00
1840,1068.31,3377.62,1677.75,1663.00,1353.00
1842,1068.56,3379.81,1254.99,1623.00,1332.00
1844,1068.80,3381.99,1124.28,1790.00,1509.00
1846,1069.05,3384.16,1258.43,1708.00,1425.00
1848,1069.30,3386.34,990.78,1678.00,1404.00
1850,1069.55,3388.51,863.19,1659.00,1389.00
1852,1069.80,3390.68,980.11,1672.00,1401.00
1854,1070.05,3392.85,546.45,1786.00,1543.00
1856,1070.30,3395.02,1330.82,1674.00,1410.00
1858,1070.54,3397.18,539.53,1598.00,1364.00
1860,1070.79,3399.34,897.95,1653.00,1406.00
1862,1071.04,3401.50,1580.14,1632.00,1359.00
1864,1071.29,3403.66,765.77,1549.00,1313.00
1866,1071.53,3405.81,1571.07,1666.00,1402.00
1868,1071.78,3407.96,367.56,1611.00,1397.00
1870,1072.03,3410.11,398.12,1653.00,1442.00
1872,1072.27,3412.26,2407.48,1678.00,1404.00
1874,1072.52,3414.40,1015.80,1602.00,1374.00
1876,1072.77,3416.54,1052.73,1604.00,1374.00
1878,1073.01,3418.68,1212.81,1691.00,1461.00
1880,1073.26,3420.82,298.22,1503.00,1311.00
1882,1073.51,3422.96,1555.67,1647.00,1420.00
1884,1073.75,3425.09,912.75,1602.00,1393.00
1886,1074.00,3427.22,671.64,1516.00,1313.00
1888,1074.24,3429.35,1188.70,1695.00,1471.00
1890,1074.49,3431.47,868.66,1583.00,1382.00
1892,1074.73,3433.59,1069.81,1537.00,1338.00
1894,1074.98,3435.71,1195.61,1676.00,1478.00
1896,1075.22,3437.83,2088.75,1606.00,1383.00
1898,1075.47,3439.95,1667.32,1628.00,1418.00
1900,1075.71,3442.06,572.77,1630.00,1456.00
1902,1075.96,3444.17,1443.55,1592.00,1395.00
1904,1076.20,3446.28,1096.52,1423.00,1237.00
1906,1076.44,3448.38,1516.58,1685.00,1482.00
1908,1076.69,3450.49,12.81,1613.00,1465.00
1910,1076.93,3452.59,1555.43,1588.00,1391.00
1912,1077.17,3454.69,1180.38,1554.00,1378.00
1914,1077.42,3456.79,1376.97,1587.00,1410.00
1916,1077.66,3458.88,1032.73,1528.00,1361.00
1918,1077.90,3460.97,1139.26,1520.00,1351.00
1920,1078.15,3463.06,2357.54,1657.00,1456.00
1922,1078.39,3465.15,1818.56,1596.00,1414.00
1924,1078.63,3467.23,1885.05,1484.00,1304.00
1926,1078.87,3469.32,1775.79,1611.00,1435.00
1928,1079.12,3471.40,2229.25,1552.00,1359.00
1930,1079.36,3473.47,0.00,1691.00,1568.00
1932,1079.60,3475.55,1536.59,1492.00,1328.00
1934,1079.84,3477.62,2454.79,1600.00,1425.00
1936,1080.08,3479.69,2337.45,1520.00,1345.00
1938,1080.33,3481.76,373.53,1475.00,1345.00
1940,1080.57,3483.83,58.66,1528.00,1410.00
1942,1080.81,3485.89,155.48,1520.00,1401.00
1944,1081.05,3487.95,1750.11,1592.00,1435.00
1946,1081.29,3490.01,663.60,1543.00,1418.00
1948,1081.53,3492.07,1302.38,1507.00,1370.00
1950,1081.77,3494.12,1526.53,1501.00,1361.00
1952,1082.01,3496.18,1489.42,1588.00,1448.00
1954,1082.25,3498.23,487.92,1484.00,1368.00
1956,1082.49,3500.27,1468.85,1535.00,1391.00
1958,1082.73,3502.32,1587.18,1461.00,1319.00
1960,1082.97,3504.36,1987.87,1552.00,1410.00
1962,1083.21,3506.40,3407.87,1492.00,1332.00
1964,1083.45,3508.44,997.83,1423.00,1311.00
1966,1083.69,3510.48,1840.45,1617.00,1486.00
1968,1083.93,3512.51,1347.57,1552.00,1421.00
1970,1084.16,3514.54,16.05,1475.00,1385.00
1972,1084.40,3516.57,355.29,1469.00,1368.00
1974,1084.64,3518.60,1125.57,1456.00,1342.00
1976,1084.88,3520.62,3720.90,1598.00,1448.00
1978,1085.12,3522.65,2626.19,1604.00,1475.00
1980,1085.36,3524.67,1074.55,1520.00,1414.00
1982,1085.59,3526.68,33.82,1444.00,1363.00
1984,1085.83,3528.70,1422.13,1564.00,1446.00
1986,1086.07,3530.71,826.51,1452.00,1357.00
1988,1086.31,3532.72,781.06,1539.00,1450.00
1990,1086.54,3534.73,1645.00,1442.00,1340.00
1992,1086.78,3536.74,1081.01,1575.00,1480.00
1994,1087.02,3538.74,0.00,1503.00,1439.00
1996,1087.25,3540.74,1181.01,1427.00,1328.00
1998,1087.49,3542.74,1283.15,1497.00,1401.00
2000,1087.73,3544.74,656.99,1463.00,1382.00
2002,1087.96,3546.74,1884.21,1475.00,1374.00
2004,1088.20,3548.73,2415.11,1556.00,1446.00
2006,1088.43,3550.72,1491.06,1499.00,1404.00
2008,1088.67,3552.71,1331.63,1450.00,1357.00
2010,1088.90,3554.69,1059.21,1393.00,1306.00
2012,1089.14,3556.68,2178.94,1480.00,1374.00
2014,1089.38,3558.66,57.48,1404.00,1338.00
2016,1089.61,3560.64,2397.62,1435.00,1334.00
2018,1089.84,3562.62,3367.55,1518.00,1404.00
2020,1090.08,3564.59,758.86,1421.00,1345.00
2022,1090.31,3566.56,257.16,1406.00,1338.00
2024,1090.55,3568.53,387.23,1416.00,1344.00
2026,1090.78,3570.50,631.05,1368.00,1290.00
2028,1091.02,3572.47,248.42,1385.00,1319.00
2030,1091.25,3574.43,2583.70,1397.00,1294.00
2032,1091.48,3576.39,1302.59,1296.00,1218.00
2034,1091.72,3578.35,2003.19,1328.00,1241.00
2036,1091.95,3580.31,3339.54,1420.00,1315.00
2038,1092.18,3582.26,1390.60,1302.00,1226.00
2040,1092.42,3584.22,1236.57,1313.00,1239.00
2042,1092.65,3586.17,1536.27,1355.00,1268.00
2044,1092.88,3588.12,278.83,1311.00,1241.00
2046,1093.11,3590.06,0.00,1292.00,1239.00
2047,1093.23,3591.03,11.84,1270.00,1207.00