File: plugins/Raman/MatchingLibrary/785X/potassium hydrogen phosphate.csv
ENLIGHTEN Version,4.1.22
Measurement ID,20250220-204029-837359-WP-01977
Serial Number,WP-01977
Model,WP-785X-F13-R-ILC
Detector,S16011-1106
Label,potassium hydrogen phosphate
Declared Match,
Declared Score,0
Scan Averaging,1
Boxcar,0
Technique,Raman
Baseline Correction Algo,AirPLS
ROI Pixel Start,47
ROI Pixel End,2047
ROI Start Line,0
ROI Stop Line,63
CCD C4,1.38617e-12
Slit Width,25
Cropped,True
Interpolated,False
Wavenumber Correction,-0.100481
Raman Intensity Corrected,True
Deconvolved,True
Region,
High Gain Mode,False
Laser Power mW,
Electrical Dark Correction,False
Battery %,
Device ID,<DeviceID USB:0x24aa:0x1000:0:1>
FW Version,10.0.0.10
FPGA Version,035-001
BLE Version,
Prefix,enlighten
Suffix,
Preset,
Auto-Raman,True
Session Count,0
Plugin Name,
Integration Time,1690
Timestamp,2025-02-20 20:40:29.8374
Note,
Temperature,0
CCD C0,793.274
CCD C1,0.153259
CCD C2,1.40788e-05
CCD C3,-1.132e-08
CCD Offset,0
CCD Gain,1.9
CCD Offset Odd,0
CCD Gain Odd,1.9
Laser Wavelength,785.032
Laser Enable,False
Laser Power %,0
Laser Temperature,0
Pixel Count,2048

Pixel,Wavelength,Wavenumber,Processed,Raw,Dark
0,793.27,132.25,NA,1290.00,1228.00
2,793.58,137.12,NA,1359.00,1296.00
4,793.89,141.99,NA,1309.00,1252.00
6,794.19,146.86,NA,1327.00,1260.00
8,794.50,151.72,NA,1376.00,1317.00
10,794.81,156.58,NA,1393.00,1302.00
12,795.12,161.44,NA,1319.00,1247.00
14,795.42,166.30,NA,1302.00,1252.00
16,795.73,171.16,NA,1313.00,1256.00
18,796.04,176.01,NA,1401.00,1327.00
20,796.35,180.86,NA,1402.00,1317.00
22,796.65,185.71,NA,1473.00,1406.00
24,796.96,190.56,NA,1389.00,1302.00
26,797.27,195.41,NA,1480.00,1383.00
28,797.58,200.25,NA,1427.00,1363.00
30,797.88,205.09,NA,1395.00,1300.00
32,798.19,209.93,NA,1395.00,1273.00
34,798.50,214.77,NA,1397.00,1271.00
36,798.81,219.60,NA,1414.00,1279.00
38,799.12,224.43,NA,1471.00,1313.00
40,799.43,229.27,NA,1828.00,1376.00
42,799.74,234.09,NA,2767.00,1332.00
44,800.04,238.92,NA,4341.00,1454.00
46,800.35,243.75,NA,4871.00,1317.00
48,800.66,248.57,0.00,4915.00,1376.00
50,800.97,253.39,25.87,4990.00,1385.00
52,801.28,258.21,0.00,4970.00,1391.00
54,801.59,263.02,9.14,5028.00,1404.00
56,801.90,267.83,0.00,4983.00,1353.00
58,802.21,272.65,0.00,5017.00,1383.00
60,802.52,277.46,0.00,5025.00,1364.00
62,802.83,282.26,0.00,5085.00,1437.00
64,803.14,287.07,0.00,5108.00,1431.00
66,803.45,291.87,29.23,5228.00,1421.00
68,803.76,296.67,9.89,5273.00,1431.00
70,804.07,301.47,63.71,5309.00,1370.00
72,804.38,306.26,9.45,5277.00,1338.00
74,804.69,311.06,33.11,5363.00,1345.00
76,805.00,315.85,4.24,5368.00,1332.00
78,805.31,320.64,60.29,5535.00,1387.00
80,805.62,325.42,5.94,5554.00,1410.00
82,805.93,330.21,32.51,5626.00,1395.00
84,806.24,334.99,12.18,5566.00,1306.00
86,806.55,339.77,16.58,5670.00,1357.00
88,806.86,344.55,56.64,5841.00,1410.00
90,807.17,349.32,79.33,5828.00,1336.00
92,807.48,354.10,205.30,6031.00,1361.00
94,807.80,358.87,216.41,6173.00,1431.00
96,808.11,363.63,374.47,6365.00,1374.00
98,808.42,368.40,553.74,6709.00,1328.00
100,808.73,373.16,1080.39,7643.00,1330.00
102,809.04,377.93,2493.54,9551.00,1304.00
104,809.35,382.68,4404.58,11829.00,1319.00
106,809.66,387.44,5565.98,13251.00,1366.00
108,809.98,392.19,4889.76,12713.00,1290.00
110,810.29,396.95,3651.51,11578.00,1387.00
112,810.60,401.70,3564.78,11193.00,1342.00
114,810.91,406.44,3820.16,11145.00,1321.00
116,811.22,411.19,2796.79,10181.00,1397.00
118,811.54,415.93,1987.41,9330.00,1385.00
120,811.85,420.67,2317.86,9668.00,1323.00
122,812.16,425.41,3339.54,10764.00,1317.00
124,812.47,430.14,3767.67,11320.00,1374.00
126,812.79,434.87,3370.26,10953.00,1321.00
128,813.10,439.60,2692.32,10086.00,1285.00
130,813.41,444.33,2188.42,9399.00,1327.00
132,813.72,449.06,1625.67,8577.00,1290.00
134,814.04,453.78,1296.31,8138.00,1344.00
136,814.35,458.50,966.15,7612.00,1275.00
138,814.66,463.22,779.41,7345.00,1266.00
140,814.98,467.93,672.80,7223.00,1311.00
142,815.29,472.65,600.63,7128.00,1308.00
144,815.60,477.36,581.56,7157.00,1347.00
146,815.92,482.06,515.55,7024.00,1268.00
148,816.23,486.77,588.08,7149.00,1370.00
150,816.54,491.47,657.16,7189.00,1399.00
152,816.86,496.17,647.55,7109.00,1302.00
154,817.17,500.87,723.93,7310.00,1321.00
156,817.48,505.57,1399.89,8170.00,1304.00
158,817.80,510.26,2299.98,9008.00,1277.00
160,818.11,514.95,2290.39,9085.00,1340.00
162,818.42,519.64,1353.54,8258.00,1366.00
164,818.74,524.32,1343.84,8427.00,1319.00
166,819.05,529.00,3269.14,11031.00,1372.00
168,819.37,533.68,5867.88,13904.00,1323.00
170,819.68,538.36,5832.89,14720.00,1361.00
172,819.99,543.04,6337.88,15846.00,1416.00
174,820.31,547.71,8233.25,17799.00,1328.00
176,820.62,552.38,8306.66,17930.00,1273.00
178,820.94,557.05,7637.25,17019.00,1332.00
180,821.25,561.71,6646.04,15439.00,1256.00
182,821.57,566.37,4727.53,12810.00,1296.00
184,821.88,571.03,4113.37,11214.00,1319.00
186,822.20,575.69,2432.30,8842.00,1340.00
188,822.51,580.34,760.64,6409.00,1306.00
190,822.83,584.99,179.88,5251.00,1327.00
192,823.14,589.64,14.79,4765.00,1332.00
194,823.46,594.29,0.18,4563.00,1281.00
196,823.77,598.93,0.00,4423.00,1300.00
198,824.09,603.57,1.20,4377.00,1258.00
200,824.40,608.21,0.00,4330.00,1319.00
202,824.72,612.85,0.00,4284.00,1353.00
204,825.03,617.48,0.00,4214.00,1336.00
206,825.35,622.11,0.00,4244.00,1359.00
208,825.66,626.74,1.54,4182.00,1328.00
210,825.98,631.36,0.00,4100.00,1290.00
212,826.29,635.99,0.00,4017.00,1323.00
214,826.61,640.61,29.65,4094.00,1302.00
216,826.92,645.22,0.00,4005.00,1298.00
218,827.24,649.84,39.01,4003.00,1239.00
220,827.56,654.45,0.00,4028.00,1344.00
222,827.87,659.06,0.00,3994.00,1342.00
224,828.19,663.67,0.00,3933.00,1321.00
226,828.50,668.27,18.15,4112.00,1442.00
228,828.82,672.87,0.00,3990.00,1366.00
230,829.13,677.47,8.13,3927.00,1289.00
232,829.45,682.06,0.00,3937.00,1353.00
234,829.77,686.66,0.00,4062.00,1475.00
236,830.08,691.25,0.00,3870.00,1313.00
238,830.40,695.83,0.00,3886.00,1306.00
240,830.72,700.42,10.64,3914.00,1304.00
242,831.03,705.00,0.00,3777.00,1184.00
244,831.35,709.58,4.48,3888.00,1281.00
246,831.66,714.15,0.00,3813.00,1213.00
248,831.98,718.73,0.00,3889.00,1327.00
250,832.30,723.30,0.00,3851.00,1287.00
252,832.61,727.87,0.00,3973.00,1359.00
254,832.93,732.43,0.00,3823.00,1188.00
256,833.25,736.99,0.00,3939.00,1336.00
258,833.56,741.55,0.93,3963.00,1268.00
260,833.88,746.11,0.00,4001.00,1279.00
262,834.20,750.66,0.00,4013.00,1287.00
264,834.51,755.22,0.00,4089.00,1330.00
266,834.83,759.76,0.00,4186.00,1328.00
268,835.15,764.31,0.28,4246.00,1323.00
270,835.47,768.85,0.00,4189.00,1264.00
272,835.78,773.39,0.08,4318.00,1273.00
274,836.10,777.93,7.08,4398.00,1273.00
276,836.42,782.46,0.00,4476.00,1302.00
278,836.73,787.00,22.22,4529.00,1243.00
280,837.05,791.52,0.00,4546.00,1230.00
282,837.37,796.05,16.13,4740.00,1327.00
284,837.69,800.57,0.83,4719.00,1258.00
286,838.00,805.09,1.08,4806.00,1277.00
288,838.32,809.61,61.13,4994.00,1277.00
290,838.64,814.13,89.42,5220.00,1342.00
292,838.95,818.64,310.62,5839.00,1281.00
294,839.27,823.15,1121.07,7523.00,1266.00
296,839.59,827.65,3430.47,10735.00,1321.00
298,839.91,832.15,5078.80,12685.00,1271.00
300,840.22,836.65,4002.50,12115.00,1404.00
302,840.54,841.15,3126.76,11149.00,1262.00
304,840.86,845.65,3183.58,11720.00,1363.00
306,841.18,850.14,5085.39,14257.00,1338.00
308,841.50,854.63,8038.37,16960.00,1461.00
310,841.81,859.11,4849.75,13530.00,1300.00
312,842.13,863.60,1080.71,8654.00,1321.00
314,842.45,868.07,158.95,6380.00,1281.00
316,842.77,872.55,58.92,5915.00,1323.00
318,843.08,877.03,45.31,5972.00,1399.00
320,843.40,881.50,0.00,5729.00,1230.00
322,843.72,885.97,0.00,5820.00,1338.00
324,844.04,890.43,0.00,5750.00,1258.00
326,844.36,894.89,0.00,5972.00,1275.00
328,844.67,899.35,10.83,6323.00,1327.00
330,844.99,903.81,253.57,6766.00,1241.00
332,845.31,908.26,619.73,7441.00,1340.00
334,845.63,912.71,1116.63,8309.00,1315.00
336,845.95,917.16,1691.01,9382.00,1338.00
338,846.27,921.61,2496.00,11540.00,2038.00
340,846.58,926.05,3537.88,12744.00,1309.00
342,846.90,930.49,5241.55,15886.00,1323.00
344,847.22,934.92,7744.01,20410.00,1313.00
346,847.54,939.36,11648.93,26805.00,1233.00
348,847.86,943.79,16580.64,34031.00,1262.00
350,848.18,948.21,20055.65,38938.00,1277.00
352,848.49,952.64,19350.80,38847.00,1308.00
354,848.81,957.06,16995.59,36565.00,1222.00
356,849.13,961.48,16594.65,36579.00,1410.00
358,849.45,965.89,19563.06,39984.00,1366.00
360,849.77,970.31,22415.80,42504.00,1317.00
362,850.09,974.71,19727.32,38517.00,1313.00
364,850.40,979.12,13218.08,29731.00,1382.00
366,850.72,983.52,7883.70,21497.00,1401.00
368,851.04,987.92,5022.89,16478.00,1249.00
370,851.36,992.32,4385.36,15088.00,1260.00
372,851.68,996.72,6034.86,16550.00,1290.00
374,852.00,1001.11,7037.30,17034.00,1268.00
376,852.32,1005.50,3785.21,13336.00,1232.00
378,852.63,1009.88,1365.06,9748.00,1366.00
380,852.95,1014.26,568.78,8036.00,1323.00
382,853.27,1018.64,66.02,7147.00,1334.00
384,853.59,1023.02,0.01,6695.00,1264.00
386,853.91,1027.39,0.00,6553.00,1249.00
388,854.23,1031.76,0.00,6509.00,1266.00
390,854.55,1036.13,0.00,6595.00,1268.00
392,854.87,1040.49,1.53,6654.00,1258.00
394,855.18,1044.86,63.61,6889.00,1317.00
396,855.50,1049.21,287.38,7210.00,1289.00
398,855.82,1053.57,575.35,7736.00,1308.00
400,856.14,1057.92,1037.39,8542.00,1292.00
402,856.46,1062.27,1831.39,9666.00,1268.00
404,856.78,1066.62,2388.87,10458.00,1237.00
406,857.10,1070.96,2492.89,10895.00,1239.00
408,857.42,1075.30,2762.12,11591.00,1351.00
410,857.74,1079.64,3698.90,12542.00,1270.00
412,858.06,1083.97,3762.90,12491.00,1252.00
414,858.37,1088.30,2740.42,11242.00,1237.00
416,858.69,1092.63,2059.40,10162.00,1235.00
418,859.01,1096.95,1608.16,9361.00,1233.00
420,859.33,1101.27,1220.82,8890.00,1271.00
422,859.65,1105.59,1327.88,9137.00,1270.00
424,859.97,1109.91,2259.25,10327.00,1241.00
426,860.29,1114.22,3068.87,11392.00,1279.00
428,860.61,1118.53,2981.65,11593.00,1224.00
430,860.93,1122.84,3111.22,11895.00,1262.00
432,861.25,1127.14,3890.50,12482.00,1345.00
434,861.56,1131.44,3107.87,11307.00,1235.00
436,861.88,1135.74,1213.32,8960.00,1243.00
438,862.20,1140.03,477.21,7576.00,1270.00
440,862.52,1144.32,362.09,7162.00,1281.00
442,862.84,1148.61,192.68,6832.00,1321.00
444,863.16,1152.89,26.28,6559.00,1245.00
446,863.48,1157.17,0.00,6414.00,1256.00
448,863.80,1161.45,0.00,6393.00,1271.00
450,864.12,1165.73,0.00,6331.00,1287.00
452,864.44,1170.00,0.00,6338.00,1260.00
454,864.76,1174.27,0.00,6365.00,1273.00
456,865.07,1178.53,0.00,6293.00,1216.00
458,865.39,1182.80,0.00,6466.00,1289.00
460,865.71,1187.06,0.00,6500.00,1271.00
462,866.03,1191.31,0.00,6557.00,1290.00
464,866.35,1195.57,0.00,6684.00,1251.00
466,866.67,1199.82,0.00,6855.00,1304.00
468,866.99,1204.06,13.80,6974.00,1289.00
470,867.31,1208.31,0.00,7048.00,1332.00
472,867.63,1212.55,0.00,7079.00,1294.00
474,867.95,1216.79,27.39,7225.00,1207.00
476,868.27,1221.02,107.82,7506.00,1287.00
478,868.58,1225.25,244.27,7703.00,1224.00
480,868.90,1229.48,328.38,7941.00,1300.00
482,869.22,1233.71,476.79,8239.00,1319.00
484,869.54,1237.93,589.69,8491.00,1370.00
486,869.86,1242.15,669.80,8599.00,1302.00
488,870.18,1246.36,812.43,8768.00,1222.00
490,870.50,1250.58,897.42,9027.00,1300.00
492,870.82,1254.79,1004.96,9334.00,1397.00
494,871.14,1258.99,1198.00,9560.00,1302.00
496,871.46,1263.20,1319.07,9805.00,1302.00
498,871.78,1267.40,1555.01,10177.00,1262.00
500,872.10,1271.59,1757.90,10496.00,1252.00
502,872.41,1275.79,1953.74,10834.00,1247.00
504,872.73,1279.98,2189.31,11257.00,1264.00
506,873.05,1284.17,2276.41,11483.00,1319.00
508,873.37,1288.35,2437.27,11620.00,1178.00
510,873.69,1292.53,2585.29,11943.00,1226.00
512,874.01,1296.71,2653.58,12100.00,1222.00
514,874.33,1300.88,2864.98,12442.00,1207.00
516,874.65,1305.06,3079.28,12829.00,1266.00
518,874.97,1309.22,3255.46,13085.00,1226.00
520,875.29,1313.39,3301.86,13273.00,1290.00
522,875.60,1317.55,3470.63,13570.00,1308.00
524,875.92,1321.71,3574.86,13735.00,1270.00
526,876.24,1325.87,3742.83,14040.00,1315.00
528,876.56,1330.02,3833.57,14135.00,1252.00
530,876.88,1334.17,3832.75,14236.00,1327.00
532,877.20,1338.32,3853.26,14228.00,1233.00
534,877.52,1342.46,3868.93,14287.00,1233.00
536,877.84,1346.60,4037.46,14576.00,1300.00
538,878.16,1350.73,4133.61,14701.00,1252.00
540,878.47,1354.87,4048.70,14627.00,1270.00
542,878.79,1359.00,4087.86,14678.00,1275.00
544,879.11,1363.13,4093.87,14729.00,1283.00
546,879.43,1367.25,4016.12,14619.00,1254.00
548,879.75,1371.37,4074.16,14631.00,1222.00
550,880.07,1375.49,3977.72,14526.00,1239.00
552,880.39,1379.60,3820.38,14397.00,1283.00
554,880.71,1383.71,3787.58,14338.00,1273.00
556,881.03,1387.82,3750.14,14240.00,1239.00
558,881.34,1391.93,3788.59,14238.00,1194.00
560,881.66,1396.03,3682.81,14135.00,1211.00
562,881.98,1400.13,3658.16,14171.00,1285.00
564,882.30,1404.22,3600.69,14078.00,1285.00
566,882.62,1408.31,3428.64,13833.00,1243.00
568,882.94,1412.40,3404.48,13807.00,1281.00
570,883.26,1416.49,3293.53,13636.00,1252.00
572,883.57,1420.57,3208.14,13590.00,1313.00
574,883.89,1424.65,3255.26,13558.00,1222.00
576,884.21,1428.73,3095.02,13456.00,1308.00
578,884.53,1432.80,3184.59,13617.00,1345.00
580,884.85,1436.87,3158.34,13507.00,1254.00
582,885.17,1440.93,3223.05,13545.00,1205.00
584,885.49,1445.00,3180.90,13524.00,1233.00
586,885.80,1449.06,3283.99,13666.00,1215.00
588,886.12,1453.11,3198.69,13704.00,1338.00
590,886.44,1457.17,3283.80,13763.00,1268.00
592,886.76,1461.22,3202.96,13664.00,1285.00
594,887.08,1465.26,3248.07,13828.00,1330.00
596,887.40,1469.31,3305.22,13788.00,1209.00
598,887.71,1473.35,3434.09,13966.00,1233.00
600,888.03,1477.38,3455.38,14105.00,1287.00
602,888.35,1481.42,3478.82,14192.00,1309.00
604,888.67,1485.45,3562.83,14268.00,1283.00
606,888.99,1489.48,3642.68,14335.00,1230.00
608,889.31,1493.50,3675.47,14458.00,1277.00
610,889.62,1497.52,3646.02,14409.00,1275.00
612,889.94,1501.54,3631.09,14371.00,1226.00
614,890.26,1505.56,3595.16,14397.00,1270.00
616,890.58,1509.57,3713.91,14502.00,1249.00
618,890.90,1513.57,3701.12,14488.00,1237.00
620,891.21,1517.58,3601.17,14414.00,1277.00
622,891.53,1521.58,3620.06,14445.00,1268.00
624,891.85,1525.58,3615.29,14412.00,1252.00
626,892.17,1529.57,3612.99,14407.00,1271.00
628,892.49,1533.57,3528.32,14340.00,1298.00
630,892.80,1537.56,3516.06,14266.00,1232.00
632,893.12,1541.54,3388.06,14080.00,1228.00
634,893.44,1545.52,3227.44,13923.00,1298.00
636,893.76,1549.50,3051.73,13611.00,1207.00
638,894.07,1553.48,3088.02,13735.00,1294.00
640,894.39,1557.45,3003.91,13558.00,1233.00
642,894.71,1561.42,2944.93,13537.00,1294.00
644,895.03,1565.39,2950.14,13467.00,1213.00
646,895.34,1569.35,2857.01,13459.00,1306.00
648,895.66,1573.31,2878.64,13410.00,1252.00
650,895.98,1577.26,2803.94,13277.00,1218.00
652,896.30,1581.22,2711.50,13161.00,1205.00
654,896.61,1585.17,2664.61,13104.00,1222.00
656,896.93,1589.11,2655.15,13156.00,1304.00
658,897.25,1593.06,2611.95,13049.00,1226.00
660,897.57,1597.00,2462.52,12928.00,1275.00
662,897.88,1600.93,2551.98,13017.00,1270.00
664,898.20,1604.87,2618.19,13103.00,1273.00
666,898.52,1608.80,2549.34,12987.00,1224.00
668,898.84,1612.72,2507.91,12922.00,1199.00
670,899.15,1616.65,2641.54,13152.00,1270.00
672,899.47,1620.57,2566.84,13019.00,1228.00
674,899.79,1624.49,2573.11,13065.00,1249.00
676,900.10,1628.40,2510.91,12954.00,1228.00
678,900.42,1632.31,2465.33,12954.00,1287.00
680,900.74,1636.22,2418.84,12795.00,1167.00
682,901.05,1640.12,2430.89,13028.00,1370.00
684,901.37,1644.02,2437.85,12905.00,1254.00
686,901.69,1647.92,2403.87,12879.00,1296.00
688,902.00,1651.82,2332.90,12759.00,1247.00
690,902.32,1655.71,2233.87,12630.00,1216.00
692,902.64,1659.60,2301.27,12696.00,1216.00
694,902.95,1663.48,2285.13,12708.00,1279.00
696,903.27,1667.36,2173.41,12544.00,1237.00
698,903.59,1671.24,2082.76,12505.00,1315.00
700,903.90,1675.11,1963.73,12311.00,1266.00
702,904.22,1678.99,1890.28,12170.00,1215.00
704,904.54,1682.85,1815.93,12229.00,1387.00
706,904.85,1686.72,1709.72,11948.00,1237.00
708,905.17,1690.58,1697.25,11939.00,1262.00
710,905.49,1694.44,1685.35,11857.00,1196.00
712,905.80,1698.29,1580.69,11806.00,1247.00
714,906.12,1702.15,1531.72,11768.00,1275.00
716,906.43,1706.00,1579.96,11789.00,1285.00
718,906.75,1709.84,1393.70,11584.00,1321.00
720,907.07,1713.68,1185.53,11280.00,1216.00
722,907.38,1717.52,1069.81,11187.00,1281.00
724,907.70,1721.36,1094.19,11119.00,1249.00
726,908.01,1725.19,945.32,10990.00,1270.00
728,908.33,1729.02,752.93,10815.00,1292.00
730,908.65,1732.85,749.38,10747.00,1264.00
732,908.96,1736.67,775.84,10743.00,1275.00
734,909.28,1740.49,697.18,10636.00,1228.00
736,909.59,1744.30,595.34,10578.00,1275.00
738,909.91,1748.12,535.16,10437.00,1245.00
740,910.22,1751.93,465.16,10367.00,1273.00
742,910.54,1755.73,292.72,10321.00,1404.00
744,910.85,1759.54,188.02,10090.00,1306.00
746,911.17,1763.34,164.41,9953.00,1232.00
748,911.49,1767.13,28.40,9805.00,1275.00
750,911.80,1770.93,58.15,9761.00,1209.00
752,912.12,1774.72,48.35,9782.00,1298.00
754,912.43,1778.50,76.21,9663.00,1196.00
756,912.75,1782.29,61.24,9585.00,1196.00
758,913.06,1786.07,174.16,9649.00,1215.00
760,913.38,1789.84,138.23,9573.00,1249.00
762,913.69,1793.62,142.42,9579.00,1294.00
764,914.01,1797.39,136.51,9448.00,1247.00
766,914.32,1801.15,142.60,9380.00,1233.00
768,914.64,1804.92,86.61,9241.00,1215.00
770,914.95,1808.68,136.06,9283.00,1275.00
772,915.26,1812.44,179.34,9260.00,1287.00
774,915.58,1816.19,192.75,9116.00,1196.00
776,915.89,1819.94,203.94,9112.00,1252.00
778,916.21,1823.69,316.68,9188.00,1273.00
780,916.52,1827.43,292.15,9171.00,1345.00
782,916.84,1831.17,390.08,9070.00,1197.00
784,917.15,1834.91,508.06,9104.00,1211.00
786,917.47,1838.64,521.70,9139.00,1300.00
788,917.78,1842.38,436.85,8960.00,1249.00
790,918.09,1846.10,432.58,8829.00,1215.00
792,918.41,1849.83,526.73,8896.00,1260.00
794,918.72,1853.55,439.30,8664.00,1178.00
796,919.04,1857.27,453.17,8653.00,1235.00
798,919.35,1860.98,536.91,8651.00,1226.00
800,919.66,1864.69,601.86,8672.00,1233.00
802,919.98,1868.40,647.77,8694.00,1258.00
804,920.29,1872.11,616.22,8558.00,1245.00
806,920.60,1875.81,800.44,8620.00,1203.00
808,920.92,1879.51,655.06,8436.00,1226.00
810,921.23,1883.20,643.71,8419.00,1277.00
812,921.55,1886.90,663.42,8273.00,1199.00
814,921.86,1890.58,704.21,8318.00,1287.00
816,922.17,1894.27,746.71,8303.00,1300.00
818,922.49,1897.95,689.22,8167.00,1271.00
820,922.80,1901.63,677.69,8053.00,1239.00
822,923.11,1905.31,690.94,7963.00,1230.00
824,923.42,1908.98,699.34,7931.00,1260.00
826,923.74,1912.65,653.29,7844.00,1281.00
828,924.05,1916.31,674.20,7762.00,1247.00
830,924.36,1919.98,751.60,7719.00,1201.00
832,924.68,1923.64,655.22,7540.00,1211.00
834,924.99,1927.29,734.87,7567.00,1213.00
836,925.30,1930.94,646.19,7398.00,1186.00
838,925.61,1934.59,668.34,7392.00,1251.00
840,925.93,1938.24,755.09,7365.00,1228.00
842,926.24,1941.88,606.04,7212.00,1270.00
844,926.55,1945.52,576.14,7062.00,1215.00
846,926.86,1949.16,504.32,6944.00,1260.00
848,927.18,1952.79,544.99,6878.00,1211.00
850,927.49,1956.42,540.10,6809.00,1224.00
852,927.80,1960.05,672.41,6942.00,1300.00
854,928.11,1963.67,531.17,6673.00,1245.00
856,928.42,1967.29,512.52,6678.00,1309.00
858,928.74,1970.91,470.69,6488.00,1243.00
860,929.05,1974.52,514.39,6431.00,1232.00
862,929.36,1978.13,386.16,6228.00,1213.00
864,929.67,1981.74,412.36,6226.00,1260.00
866,929.98,1985.35,386.58,6097.00,1243.00
868,930.29,1988.95,327.35,6010.00,1251.00
870,930.61,1992.54,221.37,5801.00,1211.00
872,930.92,1996.14,227.44,5748.00,1233.00
874,931.23,1999.73,276.71,5754.00,1270.00
876,931.54,2003.32,175.81,5575.00,1256.00
878,931.85,2006.90,154.33,5480.00,1232.00
880,932.16,2010.48,161.42,5433.00,1239.00
882,932.47,2014.06,205.30,5361.00,1211.00
884,932.78,2017.63,122.91,5273.00,1262.00
886,933.09,2021.21,94.55,5161.00,1230.00
888,933.41,2024.77,36.87,5085.00,1281.00
890,933.72,2028.34,88.61,5123.00,1327.00
892,934.03,2031.90,21.03,4916.00,1260.00
894,934.34,2035.46,57.96,4886.00,1266.00
896,934.65,2039.01,3.61,4725.00,1211.00
898,934.96,2042.57,0.00,4691.00,1281.00
900,935.27,2046.11,0.00,4681.00,1317.00
902,935.58,2049.66,0.00,4472.00,1171.00
904,935.89,2053.20,5.99,4510.00,1254.00
906,936.20,2056.74,25.81,4440.00,1233.00
908,936.51,2060.28,0.35,4351.00,1224.00
910,936.82,2063.81,0.00,4349.00,1283.00
912,937.13,2067.34,20.41,4282.00,1249.00
914,937.44,2070.86,1.43,4206.00,1247.00
916,937.75,2074.39,42.89,4132.00,1184.00
918,938.06,2077.91,0.00,4062.00,1226.00
920,938.37,2081.42,15.96,4070.00,1254.00
922,938.68,2084.94,0.00,3943.00,1228.00
924,938.99,2088.45,0.00,3889.00,1226.00
926,939.30,2091.95,0.00,3925.00,1281.00
928,939.60,2095.46,0.00,3817.00,1222.00
930,939.91,2098.96,14.54,3882.00,1294.00
932,940.22,2102.45,0.00,3777.00,1260.00
934,940.53,2105.95,30.94,3726.00,1196.00
936,940.84,2109.44,24.96,3701.00,1224.00
938,941.15,2112.92,37.80,3711.00,1260.00
940,941.46,2116.41,42.42,3652.00,1224.00
942,941.77,2119.89,0.00,3599.00,1273.00
944,942.07,2123.37,75.31,3610.00,1230.00
946,942.38,2126.84,38.17,3586.00,1271.00
948,942.69,2130.31,8.70,3544.00,1270.00
950,943.00,2133.78,0.00,3457.00,1241.00
952,943.31,2137.24,25.30,3481.00,1270.00
954,943.62,2140.70,0.00,3415.00,1290.00
956,943.92,2144.16,0.00,3365.00,1243.00
958,944.23,2147.62,10.20,3405.00,1266.00
960,944.54,2151.07,58.62,3420.00,1292.00
962,944.85,2154.52,30.83,3455.00,1349.00
964,945.16,2157.96,2.53,3360.00,1300.00
966,945.46,2161.40,2.30,3314.00,1279.00
968,945.77,2164.84,103.69,3253.00,1161.00
970,946.08,2168.28,0.00,3244.00,1256.00
972,946.39,2171.71,0.00,3172.00,1226.00
974,946.69,2175.14,0.00,3198.00,1249.00
976,947.00,2178.57,0.00,3164.00,1230.00
978,947.31,2181.99,60.10,3179.00,1199.00
980,947.61,2185.41,0.00,3160.00,1254.00
982,947.92,2188.82,17.36,3193.00,1275.00
984,948.23,2192.24,0.00,3071.00,1190.00
986,948.53,2195.65,1.53,3134.00,1256.00
988,948.84,2199.05,16.02,3037.00,1150.00
990,949.15,2202.46,60.23,3149.00,1249.00
992,949.45,2205.86,0.00,3084.00,1260.00
994,949.76,2209.25,35.66,3065.00,1194.00
996,950.07,2212.65,54.95,3094.00,1222.00
998,950.37,2216.04,18.90,3020.00,1177.00
1000,950.68,2219.43,47.39,3086.00,1230.00
1002,950.98,2222.81,60.35,3102.00,1249.00
1004,951.29,2226.19,0.00,3020.00,1228.00
1006,951.60,2229.57,37.89,3020.00,1194.00
1008,951.90,2232.94,14.02,2991.00,1194.00
1010,952.21,2236.32,53.90,3046.00,1226.00
1012,952.51,2239.68,51.50,3056.00,1239.00
1014,952.82,2243.05,39.68,2976.00,1167.00
1016,953.12,2246.41,69.62,3096.00,1285.00
1018,953.43,2249.77,94.84,3193.00,1359.00
1020,953.73,2253.12,9.22,3052.00,1294.00
1022,954.04,2256.48,85.31,2976.00,1167.00
1024,954.34,2259.83,39.08,3035.00,1262.00
1026,954.65,2263.17,7.59,2948.00,1203.00
1028,954.95,2266.51,46.72,3003.00,1233.00
1030,955.26,2269.85,57.00,3067.00,1309.00
1032,955.56,2273.19,21.75,3007.00,1268.00
1034,955.87,2276.52,0.00,2971.00,1260.00
1036,956.17,2279.85,22.56,3037.00,1304.00
1038,956.48,2283.18,0.00,2900.00,1194.00
1040,956.78,2286.50,16.34,2927.00,1211.00
1042,957.08,2289.82,31.84,2898.00,1175.00
1044,957.39,2293.14,69.10,2990.00,1235.00
1046,957.69,2296.45,8.74,2900.00,1201.00
1048,957.99,2299.76,59.62,3041.00,1313.00
1050,958.30,2303.07,65.23,3007.00,1262.00
1052,958.60,2306.38,0.00,2910.00,1264.00
1054,958.91,2309.68,84.34,2980.00,1247.00
1056,959.21,2312.98,77.36,2934.00,1192.00
1058,959.51,2316.27,1.65,2929.00,1249.00
1060,959.82,2319.56,42.42,3045.00,1308.00
1062,960.12,2322.85,69.52,2961.00,1222.00
1064,960.42,2326.14,164.67,2988.00,1203.00
1066,960.72,2329.42,125.74,2991.00,1237.00
1068,961.03,2332.70,52.87,2972.00,1258.00
1070,961.33,2335.97,97.23,3001.00,1247.00
1072,961.63,2339.25,46.14,2929.00,1215.00
1074,961.93,2342.52,5.48,2916.00,1241.00
1076,962.24,2345.78,29.39,2944.00,1251.00
1078,962.54,2349.05,137.76,2980.00,1230.00
1080,962.84,2352.31,64.04,2957.00,1245.00
1082,963.14,2355.56,77.02,2934.00,1211.00
1084,963.45,2358.82,110.35,2963.00,1222.00
1086,963.75,2362.07,27.07,2963.00,1281.00
1088,964.05,2365.32,114.47,3071.00,1327.00
1090,964.35,2368.56,98.45,2971.00,1258.00
1092,964.65,2371.80,153.85,3035.00,1279.00
1094,964.95,2375.04,142.48,2993.00,1252.00
1096,965.25,2378.27,135.33,2948.00,1222.00
1098,965.56,2381.51,281.42,3056.00,1245.00
1100,965.86,2384.73,245.92,3037.00,1254.00
1102,966.16,2387.96,269.78,3020.00,1218.00
1104,966.46,2391.18,249.16,3064.00,1289.00
1106,966.76,2394.40,324.61,3048.00,1228.00
1108,967.06,2397.62,277.56,3086.00,1300.00
1110,967.36,2400.83,287.41,2999.00,1218.00
1112,967.66,2404.04,303.01,3079.00,1306.00
1114,967.96,2407.25,290.71,2974.00,1209.00
1116,968.26,2410.45,209.97,2957.00,1245.00
1118,968.56,2413.65,272.36,2942.00,1194.00
1120,968.86,2416.85,241.99,3052.00,1338.00
1122,969.16,2420.04,277.60,2988.00,1258.00
1124,969.46,2423.23,327.92,2963.00,1209.00
1126,969.76,2426.42,325.09,2984.00,1243.00
1128,970.06,2429.60,321.45,2917.00,1178.00
1130,970.36,2432.79,305.49,2942.00,1220.00
1132,970.66,2435.96,341.63,2959.00,1232.00
1134,970.96,2439.14,311.15,2936.00,1232.00
1136,971.26,2442.31,346.65,3007.00,1279.00
1138,971.56,2445.48,354.07,2971.00,1249.00
1140,971.86,2448.65,298.20,2906.00,1230.00
1142,972.16,2451.81,357.73,2988.00,1279.00
1144,972.45,2454.97,334.10,2940.00,1254.00
1146,972.75,2458.13,393.76,2978.00,1258.00
1148,973.05,2461.28,456.39,2969.00,1220.00
1150,973.35,2464.43,568.35,3065.00,1260.00
1152,973.65,2467.58,537.86,3020.00,1239.00
1154,973.95,2470.72,584.21,3045.00,1241.00
1156,974.24,2473.86,558.07,3012.00,1230.00
1158,974.54,2477.00,600.16,3018.00,1215.00
1160,974.84,2480.13,642.64,3084.00,1266.00
1162,975.14,2483.27,746.60,3079.00,1215.00
1164,975.43,2486.40,690.58,3022.00,1205.00
1166,975.73,2489.52,699.03,3052.00,1233.00
1168,976.03,2492.64,646.47,3010.00,1226.00
1170,976.33,2495.76,707.22,3071.00,1256.00
1172,976.62,2498.88,546.43,2936.00,1224.00
1174,976.92,2501.99,617.10,3026.00,1283.00
1176,977.22,2505.10,582.50,2978.00,1273.00
1178,977.51,2508.21,511.50,2908.00,1247.00
1180,977.81,2511.31,499.90,2891.00,1233.00
1182,978.11,2514.41,469.20,2853.00,1228.00
1184,978.40,2517.51,505.76,2862.00,1247.00
1186,978.70,2520.61,475.13,2843.00,1251.00
1188,979.00,2523.70,405.04,2859.00,1285.00
1190,979.29,2526.79,279.66,2741.00,1251.00
1192,979.59,2529.87,413.37,2815.00,1270.00
1194,979.88,2532.95,288.04,2665.00,1199.00
1196,980.18,2536.03,311.68,2747.00,1277.00
1198,980.48,2539.11,303.35,2760.00,1302.00
1200,980.77,2542.18,271.04,2680.00,1247.00
1202,981.07,2545.25,254.05,2718.00,1302.00
1204,981.36,2548.32,158.56,2606.00,1239.00
1206,981.66,2551.38,120.60,2642.00,1306.00
1208,981.95,2554.44,169.29,2608.00,1258.00
1210,982.25,2557.50,117.17,2631.00,1319.00
1212,982.54,2560.56,232.22,2650.00,1296.00
1214,982.84,2563.61,139.70,2631.00,1317.00
1216,983.13,2566.66,52.51,2581.00,1309.00
1218,983.43,2569.70,20.85,2545.00,1308.00
1220,983.72,2572.74,91.22,2566.00,1306.00
1222,984.01,2575.78,30.35,2509.00,1290.00
1224,984.31,2578.82,77.13,2450.00,1215.00
1226,984.60,2581.85,108.24,2524.00,1283.00
1228,984.90,2584.88,102.80,2435.00,1213.00
1230,985.19,2587.91,30.51,2433.00,1256.00
1232,985.48,2590.93,64.08,2479.00,1289.00
1234,985.78,2593.96,25.47,2448.00,1285.00
1236,986.07,2596.97,34.42,2439.00,1281.00
1238,986.36,2599.99,59.16,2496.00,1344.00
1240,986.66,2603.00,58.69,2485.00,1347.00
1242,986.95,2606.01,0.00,2411.00,1321.00
1244,987.24,2609.01,0.00,2401.00,1317.00
1246,987.54,2612.02,13.74,2289.00,1194.00
1248,987.83,2615.02,0.00,2374.00,1298.00
1250,988.12,2618.01,22.12,2395.00,1309.00
1252,988.41,2621.01,18.49,2367.00,1296.00
1254,988.71,2624.00,36.20,2323.00,1252.00
1256,989.00,2626.99,103.28,2365.00,1281.00
1258,989.29,2629.97,66.18,2348.00,1277.00
1260,989.58,2632.95,0.19,2361.00,1330.00
1262,989.87,2635.93,1.38,2346.00,1321.00
1264,990.16,2638.91,55.30,2300.00,1254.00
1266,990.46,2641.88,99.84,2363.00,1321.00
1268,990.75,2644.85,90.74,2407.00,1361.00
1270,991.04,2647.81,0.00,2276.00,1292.00
1272,991.33,2650.78,81.47,2335.00,1304.00
1274,991.62,2653.74,42.89,2287.00,1279.00
1276,991.91,2656.70,20.39,2261.00,1268.00
1278,992.20,2659.65,33.38,2302.00,1308.00
1280,992.49,2662.60,4.28,2236.00,1258.00
1282,992.78,2665.55,93.94,2376.00,1364.00
1284,993.07,2668.50,0.00,2306.00,1349.00
1286,993.36,2671.44,63.21,2333.00,1330.00
1288,993.65,2674.38,52.65,2308.00,1317.00
1290,993.94,2677.31,27.48,2272.00,1294.00
1292,994.23,2680.25,121.97,2300.00,1292.00
1294,994.52,2683.18,63.30,2287.00,1296.00
1296,994.81,2686.10,5.07,2274.00,1304.00
1298,995.10,2689.03,0.00,2264.00,1302.00
1300,995.39,2691.95,5.59,2251.00,1279.00
1302,995.68,2694.87,147.90,2365.00,1345.00
1304,995.97,2697.78,92.57,2331.00,1334.00
1306,996.26,2700.70,8.36,2217.00,1251.00
1308,996.55,2703.61,103.68,2289.00,1277.00
1310,996.84,2706.51,0.00,2297.00,1338.00
1312,997.13,2709.42,59.26,2302.00,1313.00
1314,997.41,2712.32,11.00,2299.00,1330.00
1316,997.70,2715.21,86.69,2270.00,1271.00
1318,997.99,2718.11,40.42,2257.00,1270.00
1320,998.28,2721.00,7.29,2232.00,1260.00
1322,998.57,2723.89,102.60,2350.00,1340.00
1324,998.86,2726.77,76.40,2236.00,1241.00
1326,999.14,2729.66,145.46,2312.00,1285.00
1328,999.43,2732.54,91.42,2283.00,1275.00
1330,999.72,2735.41,141.15,2299.00,1279.00
1332,1000.01,2738.29,70.93,2359.00,1353.00
1334,1000.29,2741.16,0.00,2278.00,1306.00
1336,1000.58,2744.03,88.46,2261.00,1235.00
1338,1000.87,2746.89,176.34,2371.00,1338.00
1340,1001.15,2749.75,190.18,2319.00,1285.00
1342,1001.44,2752.61,120.09,2308.00,1287.00
1344,1001.73,2755.47,119.93,2283.00,1258.00
1346,1002.01,2758.32,169.10,2327.00,1283.00
1348,1002.30,2761.17,149.68,2374.00,1336.00
1350,1002.59,2764.02,128.55,2376.00,1351.00
1352,1002.87,2766.86,200.74,2336.00,1296.00
1354,1003.16,2769.70,219.96,2323.00,1275.00
1356,1003.44,2772.54,158.56,2297.00,1258.00
1358,1003.73,2775.38,191.73,2333.00,1277.00
1360,1004.01,2778.21,162.08,2280.00,1241.00
1362,1004.30,2781.04,112.56,2300.00,1281.00
1364,1004.58,2783.87,87.68,2272.00,1262.00
1366,1004.87,2786.69,93.83,2226.00,1218.00
1368,1005.15,2789.51,195.60,2352.00,1319.00
1370,1005.44,2792.33,195.04,2373.00,1327.00
1372,1005.72,2795.14,71.26,2338.00,1325.00
1374,1006.01,2797.95,87.01,2361.00,1345.00
1376,1006.29,2800.76,196.04,2300.00,1264.00
1378,1006.58,2803.57,239.62,2418.00,1374.00
1380,1006.86,2806.37,148.04,2297.00,1271.00
1382,1007.14,2809.17,155.23,2321.00,1292.00
1384,1007.43,2811.97,144.29,2274.00,1256.00
1386,1007.71,2814.77,278.73,2283.00,1228.00
1388,1008.00,2817.56,181.26,2283.00,1256.00
1390,1008.28,2820.35,147.37,2342.00,1325.00
1392,1008.56,2823.13,89.98,2261.00,1262.00
1394,1008.85,2825.91,141.18,2310.00,1294.00
1396,1009.13,2828.69,124.35,2317.00,1308.00
1398,1009.41,2831.47,95.47,2346.00,1349.00
1400,1009.69,2834.24,119.66,2228.00,1228.00
1402,1009.98,2837.02,244.47,2308.00,1281.00
1404,1010.26,2839.78,212.67,2359.00,1342.00
1406,1010.54,2842.55,124.32,2240.00,1237.00
1408,1010.82,2845.31,57.29,2291.00,1300.00
1410,1011.11,2848.07,40.68,2312.00,1330.00
1412,1011.39,2850.83,164.55,2331.00,1317.00
1414,1011.67,2853.58,84.21,2280.00,1309.00
1416,1011.95,2856.33,326.87,2319.00,1294.00
1418,1012.23,2859.08,270.82,2293.00,1273.00
1420,1012.51,2861.83,84.09,2223.00,1256.00
1422,1012.80,2864.57,208.73,2397.00,1395.00
1424,1013.08,2867.31,360.39,2369.00,1344.00
1426,1013.36,2870.04,483.59,2392.00,1347.00
1428,1013.64,2872.78,279.71,2306.00,1308.00
1430,1013.92,2875.51,205.45,2346.00,1370.00
1432,1014.20,2878.24,420.05,2338.00,1315.00
1434,1014.48,2880.96,293.85,2251.00,1266.00
1436,1014.76,2883.68,336.35,2247.00,1247.00
1438,1015.04,2886.40,251.32,2228.00,1256.00
1440,1015.32,2889.12,440.98,2329.00,1317.00
1442,1015.60,2891.83,321.41,2247.00,1273.00
1444,1015.88,2894.54,324.90,2287.00,1315.00
1446,1016.16,2897.25,327.06,2196.00,1230.00
1448,1016.44,2899.96,395.98,2304.00,1325.00
1450,1016.72,2902.66,288.20,2259.00,1306.00
1452,1017.00,2905.36,302.84,2314.00,1363.00
1454,1017.28,2908.06,448.95,2251.00,1281.00
1456,1017.55,2910.75,507.71,2304.00,1328.00
1458,1017.83,2913.44,405.08,2215.00,1251.00
1460,1018.11,2916.13,160.32,2224.00,1325.00
1462,1018.39,2918.81,488.68,2287.00,1317.00
1464,1018.67,2921.49,440.07,2236.00,1289.00
1466,1018.95,2924.17,292.26,2217.00,1304.00
1468,1019.22,2926.85,469.92,2264.00,1313.00
1470,1019.50,2929.52,454.16,2173.00,1239.00
1472,1019.78,2932.20,409.47,2149.00,1232.00
1474,1020.06,2934.86,410.44,2192.00,1275.00
1476,1020.33,2937.53,343.80,2272.00,1368.00
1478,1020.61,2940.19,338.23,2202.00,1300.00
1480,1020.89,2942.85,321.32,2215.00,1325.00
1482,1021.17,2945.51,341.09,2156.00,1275.00
1484,1021.44,2948.16,455.95,2188.00,1298.00
1486,1021.72,2950.81,531.36,2175.00,1268.00
1488,1022.00,2953.46,177.24,2194.00,1353.00
1490,1022.27,2956.11,155.91,2141.00,1308.00
1492,1022.55,2958.75,418.86,2223.00,1347.00
1494,1022.82,2961.39,496.50,2156.00,1281.00
1496,1023.10,2964.03,287.14,2198.00,1363.00
1498,1023.38,2966.66,281.00,2122.00,1287.00
1500,1023.65,2969.29,136.04,2137.00,1338.00
1502,1023.93,2971.92,202.95,2147.00,1342.00
1504,1024.20,2974.55,291.49,2131.00,1311.00
1506,1024.48,2977.17,67.00,2095.00,1321.00
1508,1024.75,2979.79,22.72,2037.00,1279.00
1510,1025.03,2982.41,158.75,2071.00,1296.00
1512,1025.30,2985.02,251.24,2046.00,1258.00
1514,1025.58,2987.63,26.63,2057.00,1311.00
1516,1025.85,2990.24,73.94,2029.00,1266.00
1518,1026.13,2992.85,14.54,2080.00,1347.00
1520,1026.40,2995.45,269.45,2063.00,1292.00
1522,1026.68,2998.05,237.68,2033.00,1279.00
1524,1026.95,3000.65,210.21,2090.00,1334.00
1526,1027.22,3003.25,182.60,2042.00,1287.00
1528,1027.50,3005.84,140.87,2002.00,1270.00
1530,1027.77,3008.43,335.84,2063.00,1315.00
1532,1028.04,3011.02,155.07,2054.00,1336.00
1534,1028.32,3013.60,91.84,2016.00,1304.00
1536,1028.59,3016.18,10.69,2008.00,1321.00
1538,1028.86,3018.76,138.30,1915.00,1205.00
1540,1029.14,3021.34,373.32,2035.00,1311.00
1542,1029.41,3023.91,157.68,1957.00,1266.00
1544,1029.68,3026.48,148.37,1949.00,1247.00
1546,1029.95,3029.05,8.98,1978.00,1315.00
1548,1030.22,3031.61,36.69,1959.00,1294.00
1550,1030.50,3034.17,255.23,1959.00,1273.00
1552,1030.77,3036.73,455.31,1968.00,1268.00
1554,1031.04,3039.29,139.36,1993.00,1321.00
1556,1031.31,3041.84,0.00,1869.00,1232.00
1558,1031.58,3044.39,2.14,2038.00,1404.00
1560,1031.85,3046.94,76.11,2014.00,1368.00
1562,1032.13,3049.49,357.26,1942.00,1275.00
1564,1032.40,3052.03,227.92,1999.00,1351.00
1566,1032.67,3054.57,61.09,1911.00,1283.00
1568,1032.94,3057.11,79.73,2012.00,1376.00
1570,1033.21,3059.64,31.87,1871.00,1254.00
1572,1033.48,3062.18,90.07,1962.00,1342.00
1574,1033.75,3064.70,404.95,2008.00,1353.00
1576,1034.02,3067.23,29.96,1945.00,1344.00
1578,1034.29,3069.75,226.99,1866.00,1237.00
1580,1034.56,3072.28,142.40,1957.00,1347.00
1582,1034.83,3074.79,256.19,1868.00,1247.00
1584,1035.10,3077.31,290.39,1945.00,1321.00
1586,1035.37,3079.82,0.00,1868.00,1289.00
1588,1035.64,3082.33,175.50,1976.00,1372.00
1590,1035.91,3084.84,121.95,1925.00,1332.00
1592,1036.17,3087.34,217.55,1881.00,1281.00
1594,1036.44,3089.85,307.82,1991.00,1385.00
1596,1036.71,3092.35,0.00,1850.00,1290.00
1598,1036.98,3094.84,117.79,1845.00,1249.00
1600,1037.25,3097.34,16.55,1822.00,1252.00
1602,1037.52,3099.83,0.00,1843.00,1292.00
1604,1037.78,3102.32,156.42,1879.00,1294.00
1606,1038.05,3104.80,245.52,1945.00,1359.00
1608,1038.32,3107.29,184.65,1881.00,1302.00
1610,1038.59,3109.77,231.51,1869.00,1281.00
1612,1038.85,3112.24,102.02,1845.00,1270.00
1614,1039.12,3114.72,87.51,1911.00,1334.00
1616,1039.39,3117.19,27.12,1784.00,1220.00
1618,1039.66,3119.66,0.00,1913.00,1357.00
1620,1039.92,3122.13,200.05,1907.00,1328.00
1622,1040.19,3124.59,159.72,1873.00,1300.00
1624,1040.45,3127.05,0.00,1813.00,1285.00
1626,1040.72,3129.51,173.92,1896.00,1311.00
1628,1040.99,3131.97,178.82,1936.00,1353.00
1630,1041.25,3134.42,279.70,1957.00,1366.00
1632,1041.52,3136.87,0.00,1803.00,1262.00
1634,1041.78,3139.32,364.86,1906.00,1302.00
1636,1042.05,3141.77,0.00,2065.00,1497.00
1638,1042.32,3144.21,103.07,1883.00,1285.00
1640,1042.58,3146.65,11.05,1978.00,1393.00
1642,1042.85,3149.09,0.00,1919.00,1345.00
1644,1043.11,3151.52,408.72,1944.00,1306.00
1646,1043.38,3153.96,0.00,1951.00,1355.00
1648,1043.64,3156.39,144.35,1928.00,1302.00
1650,1043.90,3158.81,186.38,1947.00,1311.00
1652,1044.17,3161.24,683.30,2027.00,1342.00
1654,1044.43,3163.66,336.94,1942.00,1285.00
1656,1044.70,3166.08,381.62,2065.00,1395.00
1658,1044.96,3168.49,196.42,1978.00,1319.00
1660,1045.22,3170.91,16.39,1953.00,1308.00
1662,1045.49,3173.32,118.10,1987.00,1325.00
1664,1045.75,3175.73,552.79,2042.00,1334.00
1666,1046.01,3178.13,691.06,2018.00,1292.00
1668,1046.28,3180.54,261.04,2040.00,1353.00
1670,1046.54,3182.94,934.66,2111.00,1359.00
1672,1046.80,3185.34,633.52,2057.00,1340.00
1674,1047.07,3187.73,1108.76,2042.00,1279.00
1676,1047.33,3190.12,904.71,2069.00,1317.00
1678,1047.59,3192.51,730.43,2097.00,1361.00
1680,1047.85,3194.90,1135.57,2192.00,1423.00
1682,1048.11,3197.29,1199.83,2135.00,1368.00
1684,1048.38,3199.67,1200.42,2105.00,1336.00
1686,1048.64,3202.05,1513.96,2190.00,1385.00
1688,1048.90,3204.43,1194.29,2112.00,1340.00
1690,1049.16,3206.80,1742.41,2118.00,1309.00
1692,1049.42,3209.17,2149.65,2194.00,1357.00
1694,1049.68,3211.54,1373.06,2084.00,1304.00
1696,1049.94,3213.91,1630.32,2150.00,1338.00
1698,1050.20,3216.27,1824.10,2164.00,1338.00
1700,1050.46,3218.63,2646.83,2295.00,1412.00
1702,1050.72,3220.99,2302.65,2194.00,1349.00
1704,1050.98,3223.35,2889.21,2245.00,1353.00
1706,1051.24,3225.70,2695.89,2204.00,1328.00
1708,1051.50,3228.05,2716.75,2164.00,1289.00
1710,1051.76,3230.40,2954.97,2274.00,1382.00
1712,1052.02,3232.75,3042.91,2243.00,1342.00
1714,1052.28,3235.09,2974.63,2283.00,1385.00
1716,1052.54,3237.43,3063.08,2223.00,1323.00
1718,1052.80,3239.77,3184.41,2204.00,1306.00
1720,1053.06,3242.11,3612.30,2249.00,1327.00
1722,1053.32,3244.44,3743.91,2213.00,1283.00
1724,1053.58,3246.77,3900.65,2352.00,1410.00
1726,1053.84,3249.10,3552.50,2247.00,1334.00
1728,1054.10,3251.42,4372.68,2310.00,1340.00
1730,1054.35,3253.75,3927.90,2243.00,1309.00
1732,1054.61,3256.07,3978.54,2314.00,1382.00
1734,1054.87,3258.39,4499.72,2285.00,1325.00
1736,1055.13,3260.70,4572.74,2264.00,1306.00
1738,1055.38,3263.01,4565.96,2270.00,1315.00
1740,1055.64,3265.32,4536.94,2261.00,1308.00
1742,1055.90,3267.63,3451.73,2160.00,1283.00
1744,1056.16,3269.94,4252.01,2333.00,1404.00
1746,1056.41,3272.24,3920.41,2314.00,1416.00
1748,1056.67,3274.54,4402.25,2278.00,1357.00
1750,1056.93,3276.84,4390.55,2257.00,1342.00
1752,1057.18,3279.13,4009.13,2234.00,1344.00
1754,1057.44,3281.42,3715.47,2188.00,1317.00
1756,1057.69,3283.71,3996.37,2192.00,1304.00
1758,1057.95,3286.00,3668.35,2268.00,1406.00
1760,1058.21,3288.28,3475.01,2164.00,1323.00
1762,1058.46,3290.57,3815.63,2230.00,1378.00
1764,1058.72,3292.85,4091.24,2204.00,1342.00
1766,1058.97,3295.12,3884.46,2133.00,1285.00
1768,1059.23,3297.40,3461.78,2143.00,1321.00
1770,1059.48,3299.67,3341.49,2177.00,1364.00
1772,1059.74,3301.94,2864.07,2052.00,1270.00
1774,1059.99,3304.21,3051.80,2171.00,1380.00
1776,1060.25,3306.47,2923.35,2194.00,1414.00
1778,1060.50,3308.73,3040.55,2103.00,1321.00
1780,1060.76,3310.99,2634.71,2084.00,1334.00
1782,1061.01,3313.25,3883.73,2126.00,1319.00
1784,1061.26,3315.50,3675.73,2097.00,1308.00
1786,1061.52,3317.76,2757.14,2111.00,1366.00
1788,1061.77,3320.01,2229.57,2103.00,1380.00
1790,1062.02,3322.25,2181.64,2010.00,1290.00
1792,1062.28,3324.50,2108.77,2031.00,1325.00
1794,1062.53,3326.74,2643.17,2004.00,1281.00
1796,1062.78,3328.98,2190.72,2035.00,1342.00
1798,1063.04,3331.22,3002.54,2029.00,1296.00
1800,1063.29,3333.45,1673.71,1999.00,1334.00
1802,1063.54,3335.68,2258.82,1997.00,1306.00
1804,1063.79,3337.91,2290.85,2056.00,1368.00
1806,1064.05,3340.14,2284.15,2099.00,1410.00
1808,1064.30,3342.36,1617.47,1925.00,1271.00
1810,1064.55,3344.59,1892.73,2012.00,1353.00
1812,1064.80,3346.81,1991.91,1980.00,1325.00
1814,1065.05,3349.02,1743.92,1938.00,1290.00
1816,1065.30,3351.24,377.60,1978.00,1397.00
1818,1065.55,3353.45,327.20,1932.00,1359.00
1820,1065.81,3355.66,1855.17,2056.00,1421.00
1822,1066.06,3357.87,1244.68,1917.00,1321.00
1824,1066.31,3360.07,1374.12,1890.00,1294.00
1826,1066.56,3362.27,1962.61,1970.00,1353.00
1828,1066.81,3364.47,1781.41,1881.00,1275.00
1830,1067.06,3366.67,552.32,1892.00,1347.00
1832,1067.31,3368.87,1179.47,1890.00,1321.00
1834,1067.56,3371.06,1461.71,1807.00,1233.00
1836,1067.81,3373.25,988.25,1809.00,1264.00
1838,1068.06,3375.44,1001.47,1818.00,1281.00
1840,1068.31,3377.62,1769.08,1845.00,1287.00
1842,1068.56,3379.81,1329.49,1784.00,1247.00
1844,1068.80,3381.99,1248.14,1944.00,1410.00
1846,1069.05,3384.16,285.41,1830.00,1344.00
1848,1069.30,3386.34,1739.67,1849.00,1313.00
1850,1069.55,3388.51,1832.10,1816.00,1290.00
1852,1069.80,3390.68,877.01,1814.00,1328.00
1854,1070.05,3392.85,718.94,1900.00,1423.00
1856,1070.30,3395.02,1511.55,1830.00,1321.00
1858,1070.54,3397.18,842.54,1746.00,1275.00
1860,1070.79,3399.34,2196.00,1828.00,1315.00
1862,1071.04,3401.50,1104.52,1771.00,1309.00
1864,1071.29,3403.66,1764.92,1714.00,1233.00
1866,1071.53,3405.81,1171.67,1786.00,1332.00
1868,1071.78,3407.96,1422.09,1752.00,1296.00
1870,1072.03,3410.11,1673.80,1792.00,1334.00
1872,1072.27,3412.26,678.60,1744.00,1327.00
1874,1072.52,3414.40,1957.01,1761.00,1304.00
1876,1072.77,3416.54,1244.90,1746.00,1319.00
1878,1073.01,3418.68,805.94,1759.00,1353.00
1880,1073.26,3420.82,1651.45,1649.00,1220.00
1882,1073.51,3422.96,2043.36,1769.00,1338.00
1884,1073.75,3425.09,2202.30,1742.00,1315.00
1886,1074.00,3427.22,1589.34,1653.00,1247.00
1888,1074.24,3429.35,2024.74,1786.00,1361.00
1890,1074.49,3431.47,1024.56,1672.00,1285.00
1892,1074.73,3433.59,1270.35,1645.00,1256.00
1894,1074.98,3435.71,1270.82,1750.00,1374.00
1896,1075.22,3437.83,1654.13,1682.00,1306.00
1898,1075.47,3439.95,2709.17,1735.00,1336.00
1900,1075.71,3442.06,1586.17,1727.00,1359.00
1902,1075.96,3444.17,1537.81,1685.00,1317.00
1904,1076.20,3446.28,1695.15,1532.00,1161.00
1906,1076.44,3448.38,992.62,1754.00,1416.00
1908,1076.69,3450.49,1279.75,1701.00,1364.00
1910,1076.93,3452.59,2382.21,1680.00,1319.00
1912,1077.17,3454.69,1048.93,1613.00,1289.00
1914,1077.42,3456.79,699.87,1651.00,1340.00
1916,1077.66,3458.88,1032.87,1594.00,1279.00
1918,1077.90,3460.97,2436.29,1598.00,1254.00
1920,1078.15,3463.06,1131.02,1682.00,1378.00
1922,1078.39,3465.15,1207.10,1632.00,1328.00
1924,1078.63,3467.23,1523.79,1551.00,1239.00
1926,1078.87,3469.32,1639.17,1649.00,1336.00
1928,1079.12,3471.40,1412.38,1587.00,1287.00
1930,1079.36,3473.47,1916.94,1733.00,1429.00
1932,1079.60,3475.55,1581.69,1532.00,1245.00
1934,1079.84,3477.62,1601.25,1613.00,1328.00
1936,1080.08,3479.69,1608.39,1575.00,1285.00
1938,1080.33,3481.76,540.14,1528.00,1270.00
1940,1080.57,3483.83,706.42,1583.00,1325.00
1942,1080.81,3485.89,2938.03,1607.00,1304.00
1944,1081.05,3487.95,2950.15,1649.00,1359.00
1946,1081.29,3490.01,1926.70,1590.00,1321.00
1948,1081.53,3492.07,1235.81,1537.00,1283.00
1950,1081.77,3494.12,1400.37,1511.00,1256.00
1952,1082.01,3496.18,1936.07,1596.00,1334.00
1954,1082.25,3498.23,2183.76,1537.00,1273.00
1956,1082.49,3500.27,1062.22,1537.00,1302.00
1958,1082.73,3502.32,1590.70,1503.00,1256.00
1960,1082.97,3504.36,1163.16,1568.00,1338.00
1962,1083.21,3506.40,2708.32,1537.00,1279.00
1964,1083.45,3508.44,244.11,1440.00,1241.00
1966,1083.69,3510.48,2394.50,1638.00,1395.00
1968,1083.93,3512.51,519.73,1528.00,1328.00
1970,1084.16,3514.54,1521.04,1509.00,1290.00
1972,1084.40,3516.57,2199.03,1505.00,1277.00
1974,1084.64,3518.60,1806.71,1480.00,1264.00
1976,1084.88,3520.62,1418.66,1564.00,1357.00
1978,1085.12,3522.65,1217.68,1585.00,1382.00
1980,1085.36,3524.67,1325.31,1511.00,1306.00
1982,1085.59,3526.68,698.40,1454.00,1268.00
1984,1085.83,3528.70,1663.54,1558.00,1357.00
1986,1086.07,3530.71,1850.08,1471.00,1273.00
1988,1086.31,3532.72,1808.24,1509.00,1315.00
1990,1086.54,3534.73,2192.89,1467.00,1264.00
1992,1086.78,3536.74,846.72,1577.00,1399.00
1994,1087.02,3538.74,739.31,1511.00,1336.00
1996,1087.25,3540.74,1787.00,1444.00,1251.00
1998,1087.49,3542.74,3504.49,1505.00,1296.00
2000,1087.73,3544.74,3621.12,1486.00,1281.00
2002,1087.96,3546.74,1355.34,1469.00,1294.00
2004,1088.20,3548.73,103.85,1533.00,1385.00
2006,1088.43,3550.72,389.50,1484.00,1328.00
2008,1088.67,3552.71,1696.55,1467.00,1283.00
2010,1088.90,3554.69,2055.73,1410.00,1235.00
2012,1089.14,3556.68,3892.56,1503.00,1311.00
2014,1089.38,3558.66,3179.75,1427.00,1247.00
2016,1089.61,3560.64,0.00,1410.00,1277.00
2018,1089.84,3562.62,1242.79,1473.00,1317.00
2020,1090.08,3564.59,0.00,1402.00,1273.00
2022,1090.31,3566.56,404.07,1402.00,1262.00
2024,1090.55,3568.53,206.84,1425.00,1292.00
2026,1090.78,3570.50,0.00,1361.00,1237.00
2028,1091.02,3572.47,1187.91,1372.00,1230.00
2030,1091.25,3574.43,3044.40,1387.00,1226.00
2032,1091.48,3576.39,1563.70,1323.00,1178.00
2034,1091.72,3578.35,511.13,1306.00,1175.00
2036,1091.95,3580.31,831.54,1385.00,1245.00
2038,1092.18,3582.26,1173.72,1306.00,1165.00
2040,1092.42,3584.22,595.59,1287.00,1163.00
2042,1092.65,3586.17,1825.71,1338.00,1203.00
2044,1092.88,3588.12,2572.91,1317.00,1161.00
2046,1093.11,3590.06,302.88,1294.00,1163.00
2047,1093.23,3591.03,6.94,1258.00,1144.00