File: plugins/Raman/MatchingLibrary/785X/potassium dihydrogen phosphate.csv
ENLIGHTEN Version,4.1.22
Measurement ID,20250220-203938-452881-WP-01977
Serial Number,WP-01977
Model,WP-785X-F13-R-ILC
Detector,S16011-1106
Label,potassium dihydrogen phosphate
Declared Match,
Declared Score,0
Scan Averaging,1
Boxcar,0
Technique,Raman
Baseline Correction Algo,AirPLS
ROI Pixel Start,47
ROI Pixel End,2047
ROI Start Line,0
ROI Stop Line,63
CCD C4,1.38617e-12
Slit Width,25
Cropped,True
Interpolated,False
Wavenumber Correction,-0.100481
Raman Intensity Corrected,True
Deconvolved,True
Region,
High Gain Mode,False
Laser Power mW,
Electrical Dark Correction,False
Battery %,
Device ID,<DeviceID USB:0x24aa:0x1000:0:1>
FW Version,10.0.0.10
FPGA Version,035-001
BLE Version,
Prefix,enlighten
Suffix,
Preset,
Auto-Raman,True
Session Count,0
Plugin Name,
Integration Time,1617
Timestamp,2025-02-20 20:39:38.4529
Note,
Temperature,0
CCD C0,793.274
CCD C1,0.153259
CCD C2,1.40788e-05
CCD C3,-1.132e-08
CCD Offset,0
CCD Gain,1.9
CCD Offset Odd,0
CCD Gain Odd,1.9
Laser Wavelength,785.032
Laser Enable,False
Laser Power %,0
Laser Temperature,0
Pixel Count,2048

Pixel,Wavelength,Wavenumber,Processed,Raw,Dark
0,793.27,132.25,NA,1258.00,1207.00
2,793.58,137.12,NA,1315.00,1285.00
4,793.89,141.99,NA,1300.00,1239.00
6,794.19,146.86,NA,1306.00,1260.00
8,794.50,151.72,NA,1347.00,1300.00
10,794.81,156.58,NA,1340.00,1294.00
12,795.12,161.44,NA,1271.00,1232.00
14,795.42,166.30,NA,1279.00,1216.00
16,795.73,171.16,NA,1283.00,1243.00
18,796.04,176.01,NA,1380.00,1319.00
20,796.35,180.86,NA,1374.00,1279.00
22,796.65,185.71,NA,1425.00,1393.00
24,796.96,190.56,NA,1351.00,1287.00
26,797.27,195.41,NA,1435.00,1345.00
28,797.58,200.25,NA,1397.00,1345.00
30,797.88,205.09,NA,1344.00,1260.00
32,798.19,209.93,NA,1351.00,1289.00
34,798.50,214.77,NA,1376.00,1268.00
36,798.81,219.60,NA,1385.00,1247.00
38,799.12,224.43,NA,1431.00,1289.00
40,799.43,229.27,NA,1659.00,1353.00
42,799.74,234.09,NA,2270.00,1306.00
44,800.04,238.92,NA,3354.00,1437.00
46,800.35,243.75,NA,3682.00,1319.00
48,800.66,248.57,0.00,3944.00,1378.00
50,800.97,253.39,0.00,3994.00,1380.00
52,801.28,258.21,0.00,4125.00,1391.00
54,801.59,263.02,0.00,4193.00,1397.00
56,801.90,267.83,0.00,4250.00,1347.00
58,802.21,272.65,0.00,4326.00,1361.00
60,802.52,277.46,11.48,4434.00,1351.00
62,802.83,282.26,17.42,4550.00,1397.00
64,803.14,287.07,24.18,4643.00,1406.00
66,803.45,291.87,66.93,4772.00,1412.00
68,803.76,296.67,128.94,4884.00,1416.00
70,804.07,301.47,197.77,4945.00,1357.00
72,804.38,306.26,259.01,5055.00,1344.00
74,804.69,311.06,312.60,5190.00,1355.00
76,805.00,315.85,530.74,5494.00,1355.00
78,805.31,320.64,662.14,5754.00,1395.00
80,805.62,325.42,806.92,5997.00,1397.00
82,805.93,330.21,978.03,6272.00,1382.00
84,806.24,334.99,1253.46,6635.00,1311.00
86,806.55,339.77,1668.40,7269.00,1349.00
88,806.86,344.55,2219.71,8087.00,1385.00
90,807.17,349.32,2697.78,8713.00,1334.00
92,807.48,354.10,3142.98,9340.00,1357.00
94,807.80,358.87,3396.68,9706.00,1401.00
96,808.11,363.63,3104.77,9399.00,1372.00
98,808.42,368.40,2530.91,8715.00,1327.00
100,808.73,373.16,2182.49,8275.00,1309.00
102,809.04,377.93,1837.52,8009.00,1306.00
104,809.35,382.68,2183.00,8594.00,1317.00
106,809.66,387.44,3464.63,9966.00,1353.00
108,809.98,392.19,4027.51,10376.00,1313.00
110,810.29,396.95,2523.41,8973.00,1364.00
112,810.60,401.70,1132.54,7252.00,1327.00
114,810.91,406.44,627.93,6454.00,1334.00
116,811.22,411.19,475.96,6190.00,1376.00
118,811.54,415.93,493.03,6187.00,1364.00
120,811.85,420.67,423.80,6103.00,1313.00
122,812.16,425.41,571.00,6261.00,1315.00
124,812.47,430.14,650.86,6401.00,1357.00
126,812.79,434.87,768.50,6456.00,1289.00
128,813.10,439.60,880.08,6578.00,1271.00
130,813.41,444.33,998.96,6783.00,1330.00
132,813.72,449.06,1091.94,6864.00,1294.00
134,814.04,453.78,1241.20,7122.00,1345.00
136,814.35,458.50,1417.86,7259.00,1262.00
138,814.66,463.22,1710.36,7612.00,1258.00
140,814.98,467.93,1767.48,7732.00,1281.00
142,815.29,472.65,1908.21,7927.00,1328.00
144,815.60,477.36,1938.99,7939.00,1345.00
146,815.92,482.06,1820.24,7658.00,1266.00
148,816.23,486.77,1589.75,7388.00,1353.00
150,816.54,491.47,1260.97,6940.00,1389.00
152,816.86,496.17,1035.99,6443.00,1277.00
154,817.17,500.87,809.73,6149.00,1334.00
156,817.48,505.57,763.30,5964.00,1279.00
158,817.80,510.26,779.39,5978.00,1300.00
160,818.11,514.95,880.56,6188.00,1342.00
162,818.42,519.64,1231.96,6682.00,1363.00
164,818.74,524.32,1691.33,7210.00,1308.00
166,819.05,529.00,2062.21,7681.00,1351.00
168,819.37,533.68,2023.42,7582.00,1311.00
170,819.68,538.36,1672.13,7160.00,1347.00
172,819.99,543.04,1328.72,6697.00,1399.00
174,820.31,547.71,1230.40,6382.00,1313.00
176,820.62,552.38,1177.76,6215.00,1294.00
178,820.94,557.05,1104.32,6059.00,1290.00
180,821.25,561.71,1060.00,5902.00,1254.00
182,821.57,566.37,996.04,5759.00,1264.00
184,821.88,571.03,945.54,5676.00,1319.00
186,822.20,575.69,776.72,5368.00,1298.00
188,822.51,580.34,622.33,5093.00,1300.00
190,822.83,584.99,483.18,4835.00,1304.00
192,823.14,589.64,377.05,4626.00,1311.00
194,823.46,594.29,241.54,4351.00,1302.00
196,823.77,598.93,184.92,4201.00,1306.00
198,824.09,603.57,55.58,3933.00,1252.00
200,824.40,608.21,23.34,3888.00,1330.00
202,824.72,612.85,0.00,3772.00,1342.00
204,825.03,617.48,0.00,3622.00,1306.00
206,825.35,622.11,0.00,3551.00,1372.00
208,825.66,626.74,0.00,3474.00,1340.00
210,825.98,631.36,0.00,3402.00,1298.00
212,826.29,635.99,0.00,3422.00,1319.00
214,826.61,640.61,0.00,3379.00,1315.00
216,826.92,645.22,16.31,3407.00,1279.00
218,827.24,649.84,0.12,3339.00,1249.00
220,827.56,654.45,0.00,3377.00,1332.00
222,827.87,659.06,0.00,3358.00,1319.00
224,828.19,663.67,0.00,3345.00,1300.00
226,828.50,668.27,0.00,3493.00,1437.00
228,828.82,672.87,0.00,3373.00,1332.00
230,829.13,677.47,24.51,3371.00,1268.00
232,829.45,682.06,0.63,3398.00,1323.00
234,829.77,686.66,44.51,3597.00,1442.00
236,830.08,691.25,14.80,3419.00,1292.00
238,830.40,695.83,0.00,3386.00,1292.00
240,830.72,700.42,0.00,3394.00,1292.00
242,831.03,705.00,0.00,3343.00,1201.00
244,831.35,709.58,0.00,3451.00,1287.00
246,831.66,714.15,6.23,3405.00,1201.00
248,831.98,718.73,0.00,3504.00,1304.00
250,832.30,723.30,0.00,3510.00,1271.00
252,832.61,727.87,0.00,3608.00,1349.00
254,832.93,732.43,0.00,3430.00,1182.00
256,833.25,736.99,0.00,3652.00,1327.00
258,833.56,741.55,0.00,3663.00,1292.00
260,833.88,746.11,0.00,3703.00,1290.00
262,834.20,750.66,0.00,3719.00,1285.00
264,834.51,755.22,0.00,3829.00,1317.00
266,834.83,759.76,10.17,3910.00,1317.00
268,835.15,764.31,0.00,3905.00,1311.00
270,835.47,768.85,21.28,3986.00,1251.00
272,835.78,773.39,0.00,4026.00,1277.00
274,836.10,777.93,0.00,4072.00,1287.00
276,836.42,782.46,0.00,4199.00,1287.00
278,836.73,787.00,0.00,4248.00,1266.00
280,837.05,791.52,0.00,4290.00,1224.00
282,837.37,796.05,0.00,4472.00,1308.00
284,837.69,800.57,1.74,4516.00,1254.00
286,838.00,805.09,20.76,4609.00,1239.00
288,838.32,809.61,0.00,4658.00,1268.00
290,838.64,814.13,0.00,4825.00,1340.00
292,838.95,818.64,0.00,4880.00,1273.00
294,839.27,823.15,8.10,4989.00,1260.00
296,839.59,827.65,0.00,5065.00,1315.00
298,839.91,832.15,0.00,5133.00,1245.00
300,840.22,836.65,0.00,5391.00,1385.00
302,840.54,841.15,0.00,5372.00,1249.00
304,840.86,845.65,0.00,5575.00,1351.00
306,841.18,850.14,0.00,5740.00,1311.00
308,841.50,854.63,4.83,6154.00,1440.00
310,841.81,859.11,35.49,6204.00,1273.00
312,842.13,863.60,109.46,6555.00,1319.00
314,842.45,868.07,369.64,7010.00,1249.00
316,842.77,872.55,616.33,7548.00,1313.00
318,843.08,877.03,952.15,8303.00,1363.00
320,843.40,881.50,1438.08,9091.00,1222.00
322,843.72,885.97,2167.50,10549.00,1336.00
324,844.04,890.43,3010.39,12138.00,1275.00
326,844.36,894.89,4530.00,14988.00,1271.00
328,844.67,899.35,6762.61,19225.00,1334.00
330,844.99,903.81,10398.17,25562.00,1252.00
332,845.31,908.26,15913.53,34128.00,1323.00
334,845.63,912.71,21257.44,41209.00,1319.00
336,845.95,917.16,21842.58,41987.00,1327.00
338,846.27,921.61,16640.15,35931.00,1997.00
340,846.58,926.05,10803.09,26631.00,1302.00
342,846.90,930.49,6712.51,19747.00,1327.00
344,847.22,934.92,4305.39,15312.00,1287.00
346,847.54,939.36,2774.74,12487.00,1209.00
348,847.86,943.79,1911.10,10929.00,1235.00
350,848.18,948.21,1234.54,9797.00,1247.00
352,848.49,952.64,815.64,9167.00,1285.00
354,848.81,957.06,537.75,8615.00,1192.00
356,849.13,961.48,282.91,8411.00,1342.00
358,849.45,965.89,127.28,8148.00,1332.00
360,849.77,970.31,71.89,7918.00,1289.00
362,850.09,974.71,37.39,7757.00,1287.00
364,850.40,979.12,6.49,7677.00,1338.00
366,850.72,983.52,0.00,7582.00,1372.00
368,851.04,987.92,7.05,7339.00,1207.00
370,851.36,992.32,32.57,7320.00,1228.00
372,851.68,996.72,33.62,7269.00,1289.00
374,852.00,1001.11,2.85,7096.00,1249.00
376,852.32,1005.50,43.14,7031.00,1222.00
378,852.63,1009.88,38.69,7096.00,1359.00
380,852.95,1014.26,0.99,6872.00,1306.00
382,853.27,1018.64,57.86,6885.00,1332.00
384,853.59,1023.02,3.78,6648.00,1266.00
386,853.91,1027.39,0.00,6511.00,1241.00
388,854.23,1031.76,22.66,6483.00,1256.00
390,854.55,1036.13,6.13,6359.00,1251.00
392,854.87,1040.49,10.30,6261.00,1243.00
394,855.18,1044.86,5.63,6198.00,1283.00
396,855.50,1049.21,28.66,6150.00,1290.00
398,855.82,1053.57,0.00,6000.00,1323.00
400,856.14,1057.92,0.00,5835.00,1268.00
402,856.46,1062.27,0.00,5797.00,1264.00
404,856.78,1066.62,13.85,5701.00,1209.00
406,857.10,1070.96,0.00,5570.00,1216.00
408,857.42,1075.30,0.00,5606.00,1340.00
410,857.74,1079.64,0.00,5497.00,1260.00
412,858.06,1083.97,8.84,5420.00,1233.00
414,858.37,1088.30,2.07,5338.00,1230.00
416,858.69,1092.63,0.00,5239.00,1232.00
418,859.01,1096.95,0.75,5182.00,1197.00
420,859.33,1101.27,13.21,5216.00,1260.00
422,859.65,1105.59,63.85,5180.00,1247.00
424,859.97,1109.91,24.16,5068.00,1220.00
426,860.29,1114.22,0.99,4996.00,1235.00
428,860.61,1118.53,0.00,4896.00,1218.00
430,860.93,1122.84,0.00,4884.00,1245.00
432,861.25,1127.14,0.00,4869.00,1325.00
434,861.56,1131.44,25.58,4803.00,1228.00
436,861.88,1135.74,14.34,4753.00,1228.00
438,862.20,1140.03,0.00,4658.00,1273.00
440,862.52,1144.32,10.53,4689.00,1262.00
442,862.84,1148.61,16.69,4685.00,1294.00
444,863.16,1152.89,8.59,4603.00,1251.00
446,863.48,1157.17,0.00,4525.00,1241.00
448,863.80,1161.45,11.69,4539.00,1262.00
450,864.12,1165.73,0.00,4457.00,1271.00
452,864.44,1170.00,0.00,4438.00,1260.00
454,864.76,1174.27,0.00,4396.00,1273.00
456,865.07,1178.53,9.10,4360.00,1196.00
458,865.39,1182.80,0.00,4347.00,1281.00
460,865.71,1187.06,0.00,4366.00,1266.00
462,866.03,1191.31,0.00,4375.00,1268.00
464,866.35,1195.57,2.96,4425.00,1251.00
466,866.67,1199.82,0.00,4448.00,1271.00
468,866.99,1204.06,0.00,4463.00,1283.00
470,867.31,1208.31,15.47,4560.00,1281.00
472,867.63,1212.55,0.00,4470.00,1277.00
474,867.95,1216.79,0.00,4548.00,1205.00
476,868.27,1221.02,7.65,4679.00,1268.00
478,868.58,1225.25,0.00,4634.00,1192.00
480,868.90,1229.48,41.08,4863.00,1294.00
482,869.22,1233.71,115.87,5019.00,1311.00
484,869.54,1237.93,124.23,5127.00,1342.00
486,869.86,1242.15,196.14,5173.00,1264.00
488,870.18,1246.36,262.48,5215.00,1186.00
490,870.50,1250.58,251.73,5349.00,1277.00
492,870.82,1254.79,314.38,5549.00,1364.00
494,871.14,1258.99,375.30,5585.00,1279.00
496,871.46,1263.20,422.00,5725.00,1304.00
498,871.78,1267.40,516.20,5833.00,1239.00
500,872.10,1271.59,591.46,5978.00,1239.00
502,872.41,1275.79,715.63,6177.00,1237.00
504,872.73,1279.98,764.24,6331.00,1271.00
506,873.05,1284.17,839.89,6521.00,1304.00
508,873.37,1288.35,945.94,6555.00,1161.00
510,873.69,1292.53,926.76,6636.00,1226.00
512,874.01,1296.71,1001.87,6790.00,1241.00
514,874.33,1300.88,1147.58,6965.00,1178.00
516,874.65,1305.06,1166.17,7107.00,1247.00
518,874.97,1309.22,1308.51,7288.00,1205.00
520,875.29,1313.39,1272.55,7345.00,1273.00
522,875.60,1317.55,1397.57,7555.00,1279.00
524,875.92,1321.71,1408.15,7570.00,1252.00
526,876.24,1325.87,1412.89,7658.00,1309.00
528,876.56,1330.02,1403.83,7605.00,1252.00
530,876.88,1334.17,1358.67,7620.00,1309.00
532,877.20,1338.32,1354.87,7536.00,1207.00
534,877.52,1342.46,1348.74,7544.00,1197.00
536,877.84,1346.60,1330.41,7603.00,1266.00
538,878.16,1350.73,1363.92,7616.00,1228.00
540,878.47,1354.87,1425.83,7724.00,1233.00
542,878.79,1359.00,1328.01,7637.00,1245.00
544,879.11,1363.13,1289.70,7624.00,1275.00
546,879.43,1367.25,1334.52,7643.00,1245.00
548,879.75,1371.37,1234.39,7544.00,1239.00
550,880.07,1375.49,1184.61,7460.00,1222.00
552,880.39,1379.60,1190.22,7489.00,1243.00
554,880.71,1383.71,1115.15,7436.00,1262.00
556,881.03,1387.82,1088.74,7367.00,1228.00
558,881.34,1391.93,1039.21,7284.00,1178.00
560,881.66,1396.03,1067.90,7348.00,1215.00
562,881.98,1400.13,1102.22,7455.00,1273.00
564,882.30,1404.22,944.32,7271.00,1260.00
566,882.62,1408.31,957.25,7261.00,1232.00
568,882.94,1412.40,947.01,7271.00,1264.00
570,883.26,1416.49,900.68,7221.00,1241.00
572,883.57,1420.57,791.90,7162.00,1304.00
574,883.89,1424.65,836.33,7111.00,1207.00
576,884.21,1428.73,795.42,7183.00,1308.00
578,884.53,1432.80,780.04,7176.00,1306.00
580,884.85,1436.87,807.17,7130.00,1224.00
582,885.17,1440.93,779.09,7103.00,1188.00
584,885.49,1445.00,772.94,7157.00,1226.00
586,885.80,1449.06,835.71,7200.00,1201.00
588,886.12,1453.11,833.50,7318.00,1302.00
590,886.44,1457.17,765.63,7231.00,1266.00
592,886.76,1461.22,781.89,7252.00,1258.00
594,887.08,1465.26,811.55,7348.00,1285.00
596,887.40,1469.31,735.94,7176.00,1196.00
598,887.71,1473.35,838.60,7320.00,1197.00
600,888.03,1477.38,857.96,7419.00,1247.00
602,888.35,1481.42,913.04,7570.00,1292.00
604,888.67,1485.45,921.43,7580.00,1270.00
606,888.99,1489.48,959.61,7574.00,1205.00
608,889.31,1493.50,940.67,7631.00,1264.00
610,889.62,1497.52,930.53,7614.00,1249.00
612,889.94,1501.54,951.58,7610.00,1196.00
614,890.26,1505.56,870.59,7557.00,1230.00
616,890.58,1509.57,876.07,7586.00,1247.00
618,890.90,1513.57,914.86,7614.00,1211.00
620,891.21,1517.58,877.75,7635.00,1258.00
622,891.53,1521.58,871.78,7620.00,1249.00
624,891.85,1525.58,919.49,7675.00,1239.00
626,892.17,1529.57,808.15,7588.00,1271.00
628,892.49,1533.57,873.97,7694.00,1268.00
630,892.80,1537.56,719.22,7430.00,1211.00
632,893.12,1541.54,808.08,7527.00,1205.00
634,893.44,1545.52,635.01,7409.00,1271.00
636,893.76,1549.50,548.48,7246.00,1209.00
638,894.07,1553.48,674.35,7443.00,1266.00
640,894.39,1557.45,620.16,7343.00,1218.00
642,894.71,1561.42,522.91,7293.00,1266.00
644,895.03,1565.39,519.22,7215.00,1186.00
646,895.34,1569.35,479.15,7278.00,1302.00
648,895.66,1573.31,452.51,7176.00,1228.00
650,895.98,1577.26,495.11,7234.00,1220.00
652,896.30,1581.22,443.05,7164.00,1186.00
654,896.61,1585.17,400.73,7179.00,1243.00
656,896.93,1589.11,422.84,7234.00,1289.00
658,897.25,1593.06,338.90,7090.00,1215.00
660,897.57,1597.00,346.88,7147.00,1252.00
662,897.88,1600.93,400.29,7164.00,1251.00
664,898.20,1604.87,405.77,7124.00,1243.00
666,898.52,1608.80,471.08,7136.00,1203.00
668,898.84,1612.72,483.25,7128.00,1192.00
670,899.15,1616.65,490.46,7208.00,1283.00
672,899.47,1620.57,509.72,7107.00,1201.00
674,899.79,1624.49,598.05,7219.00,1235.00
676,900.10,1628.40,622.07,7195.00,1207.00
678,900.42,1632.31,562.70,7176.00,1283.00
680,900.74,1636.22,579.92,7067.00,1171.00
682,901.05,1640.12,567.68,7164.00,1336.00
684,901.37,1644.02,618.44,7122.00,1251.00
686,901.69,1647.92,645.80,7166.00,1277.00
688,902.00,1651.82,677.22,7105.00,1218.00
690,902.32,1655.71,662.44,7047.00,1211.00
692,902.64,1659.60,724.80,7083.00,1199.00
694,902.95,1663.48,740.66,7121.00,1247.00
696,903.27,1667.36,766.09,7103.00,1218.00
698,903.59,1671.24,727.56,7092.00,1289.00
700,903.90,1675.11,749.56,7033.00,1251.00
702,904.22,1678.99,674.09,6851.00,1173.00
704,904.54,1682.85,610.02,6938.00,1364.00
706,904.85,1686.72,724.98,6849.00,1201.00
708,905.17,1690.58,741.76,6897.00,1243.00
710,905.49,1694.44,660.89,6747.00,1197.00
712,905.80,1698.29,761.83,6836.00,1218.00
714,906.12,1702.15,747.56,6838.00,1268.00
716,906.43,1706.00,762.56,6805.00,1235.00
718,906.75,1709.84,769.61,6809.00,1285.00
720,907.07,1713.68,735.58,6646.00,1194.00
722,907.38,1717.52,622.26,6576.00,1264.00
724,907.70,1721.36,671.42,6545.00,1220.00
726,908.01,1725.19,679.00,6524.00,1243.00
728,908.33,1729.02,644.12,6496.00,1264.00
730,908.65,1732.85,641.24,6447.00,1249.00
732,908.96,1736.67,662.02,6464.00,1277.00
734,909.28,1740.49,732.41,6439.00,1201.00
736,909.59,1744.30,724.54,6445.00,1258.00
738,909.91,1748.12,645.39,6302.00,1230.00
740,910.22,1751.93,626.86,6266.00,1239.00
742,910.54,1755.73,696.13,6450.00,1380.00
744,910.85,1759.54,685.00,6281.00,1266.00
746,911.17,1763.34,606.60,6107.00,1203.00
748,911.49,1767.13,583.33,6120.00,1262.00
750,911.80,1770.93,576.65,5991.00,1184.00
752,912.12,1774.72,568.33,6029.00,1266.00
754,912.43,1778.50,658.09,6025.00,1182.00
756,912.75,1782.29,646.33,5997.00,1196.00
758,913.06,1786.07,602.14,5919.00,1197.00
760,913.38,1789.84,682.66,6000.00,1232.00
762,913.69,1793.62,650.42,6000.00,1285.00
764,914.01,1797.39,639.01,5906.00,1224.00
766,914.32,1801.15,638.00,5869.00,1224.00
768,914.64,1804.92,588.93,5771.00,1201.00
770,914.95,1808.68,656.38,5856.00,1258.00
772,915.26,1812.44,647.54,5841.00,1281.00
774,915.58,1816.19,612.39,5670.00,1171.00
776,915.89,1819.94,624.76,5737.00,1247.00
778,916.21,1823.69,631.98,5731.00,1251.00
780,916.52,1827.43,684.80,5811.00,1325.00
782,916.84,1831.17,682.58,5642.00,1190.00
784,917.15,1834.91,660.16,5607.00,1201.00
786,917.47,1838.64,687.17,5689.00,1268.00
788,917.78,1842.38,607.31,5545.00,1245.00
790,918.09,1846.10,684.68,5560.00,1213.00
792,918.41,1849.83,645.49,5528.00,1245.00
794,918.72,1853.55,649.59,5420.00,1163.00
796,919.04,1857.27,630.16,5429.00,1230.00
798,919.35,1860.98,619.60,5387.00,1218.00
800,919.66,1864.69,585.62,5342.00,1241.00
802,919.98,1868.40,673.04,5401.00,1249.00
804,920.29,1872.11,581.96,5271.00,1232.00
806,920.60,1875.81,604.52,5249.00,1196.00
808,920.92,1879.51,674.56,5277.00,1211.00
810,921.23,1883.20,653.34,5268.00,1251.00
812,921.55,1886.90,521.49,5068.00,1192.00
814,921.86,1890.58,595.69,5180.00,1270.00
816,922.17,1894.27,587.78,5137.00,1285.00
818,922.49,1897.95,516.78,5025.00,1251.00
820,922.80,1901.63,457.86,4915.00,1233.00
822,923.11,1905.31,497.27,4918.00,1232.00
824,923.42,1908.98,452.91,4841.00,1239.00
826,923.74,1912.65,525.59,4913.00,1258.00
828,924.05,1916.31,446.83,4766.00,1215.00
830,924.36,1919.98,449.49,4723.00,1196.00
832,924.68,1923.64,482.56,4725.00,1196.00
834,924.99,1927.29,416.47,4649.00,1205.00
836,925.30,1930.94,443.86,4613.00,1169.00
838,925.61,1934.59,468.90,4645.00,1232.00
840,925.93,1938.24,456.55,4624.00,1233.00
842,926.24,1941.88,369.85,4520.00,1226.00
844,926.55,1945.52,346.90,4419.00,1186.00
846,926.86,1949.16,369.18,4442.00,1228.00
848,927.18,1952.79,344.07,4364.00,1199.00
850,927.49,1956.42,259.73,4280.00,1222.00
852,927.80,1960.05,282.14,4478.00,1429.00
854,928.11,1963.67,306.60,4290.00,1241.00
856,928.42,1967.29,281.70,4271.00,1277.00
858,928.74,1970.91,305.30,4212.00,1220.00
860,929.05,1974.52,203.14,4077.00,1211.00
862,929.36,1978.13,188.58,4036.00,1218.00
864,929.67,1981.74,252.31,4098.00,1241.00
866,929.98,1985.35,191.38,4024.00,1239.00
868,930.29,1988.95,161.09,3971.00,1243.00
870,930.61,1992.54,178.72,3899.00,1190.00
872,930.92,1996.14,117.34,3827.00,1211.00
874,931.23,1999.73,121.68,3861.00,1256.00
876,931.54,2003.32,101.72,3802.00,1243.00
878,931.85,2006.90,122.70,3766.00,1211.00
880,932.16,2010.48,93.48,3692.00,1182.00
882,932.47,2014.06,27.16,3626.00,1216.00
884,932.78,2017.63,50.26,3637.00,1230.00
886,933.09,2021.21,118.99,3635.00,1205.00
888,933.41,2024.77,144.17,3681.00,1245.00
890,933.72,2028.34,33.85,3608.00,1306.00
892,934.03,2031.90,75.14,3538.00,1237.00
894,934.34,2035.46,30.48,3515.00,1268.00
896,934.65,2039.01,0.00,3377.00,1203.00
898,934.96,2042.57,1.68,3422.00,1260.00
900,935.27,2046.11,0.00,3428.00,1317.00
902,935.58,2049.66,43.98,3286.00,1154.00
904,935.89,2053.20,0.00,3310.00,1241.00
906,936.20,2056.74,0.00,3250.00,1216.00
908,936.51,2060.28,47.12,3299.00,1222.00
910,936.82,2063.81,53.83,3307.00,1262.00
912,937.13,2067.34,0.00,3229.00,1262.00
914,937.44,2070.86,32.67,3212.00,1232.00
916,937.75,2074.39,0.00,3086.00,1190.00
918,938.06,2077.91,0.00,3113.00,1226.00
920,938.37,2081.42,24.71,3143.00,1230.00
922,938.68,2084.94,1.76,3075.00,1205.00
924,938.99,2088.45,13.15,3069.00,1207.00
926,939.30,2091.95,8.69,3105.00,1264.00
928,939.60,2095.46,0.00,3035.00,1226.00
930,939.91,2098.96,0.00,3079.00,1285.00
932,940.22,2102.45,3.51,3033.00,1241.00
934,940.53,2105.95,0.00,2965.00,1194.00
936,940.84,2109.44,27.66,3003.00,1216.00
938,941.15,2112.92,24.01,2999.00,1233.00
940,941.46,2116.41,8.93,2931.00,1192.00
942,941.77,2119.89,34.38,2995.00,1249.00
944,942.07,2123.37,0.00,2904.00,1215.00
946,942.38,2126.84,0.00,2940.00,1271.00
948,942.69,2130.31,22.28,2967.00,1264.00
950,943.00,2133.78,53.11,2919.00,1211.00
952,943.31,2137.24,0.49,2900.00,1239.00
954,943.62,2140.70,6.13,2923.00,1258.00
956,943.92,2144.16,0.00,2855.00,1228.00
958,944.23,2147.62,0.00,2868.00,1245.00
960,944.54,2151.07,61.95,2955.00,1277.00
962,944.85,2154.52,0.00,2923.00,1309.00
964,945.16,2157.96,74.49,2936.00,1264.00
966,945.46,2161.40,115.20,2955.00,1260.00
968,945.77,2164.84,20.93,2798.00,1161.00
970,946.08,2168.28,0.00,2809.00,1235.00
972,946.39,2171.71,38.21,2851.00,1228.00
974,946.69,2175.14,75.43,2841.00,1211.00
976,947.00,2178.57,38.95,2847.00,1220.00
978,947.31,2181.99,6.97,2775.00,1190.00
980,947.61,2185.41,41.88,2832.00,1228.00
982,947.92,2188.82,40.03,2853.00,1254.00
984,948.23,2192.24,0.00,2748.00,1196.00
986,948.53,2195.65,0.00,2785.00,1226.00
988,948.84,2199.05,48.95,2741.00,1125.00
990,949.15,2202.46,56.81,2845.00,1241.00
992,949.45,2205.86,68.95,2840.00,1230.00
994,949.76,2209.25,77.17,2802.00,1184.00
996,950.07,2212.65,64.42,2821.00,1211.00
998,950.37,2216.04,99.57,2805.00,1169.00
1000,950.68,2219.43,33.64,2819.00,1230.00
1002,950.98,2222.81,38.10,2860.00,1252.00
1004,951.29,2226.19,50.88,2779.00,1186.00
1006,951.60,2229.57,102.89,2781.00,1165.00
1008,951.90,2232.94,22.77,2745.00,1180.00
1010,952.21,2236.32,70.39,2824.00,1213.00
1012,952.51,2239.68,76.20,2836.00,1232.00
1014,952.82,2243.05,42.97,2733.00,1159.00
1016,953.12,2246.41,154.19,2952.00,1300.00
1018,953.43,2249.77,130.43,2972.00,1340.00
1020,953.73,2253.12,94.31,2887.00,1268.00
1022,954.04,2256.48,96.49,2802.00,1188.00
1024,954.34,2259.83,147.26,2902.00,1268.00
1026,954.65,2263.17,155.79,2836.00,1194.00
1028,954.95,2266.51,87.23,2828.00,1232.00
1030,955.26,2269.85,96.59,2887.00,1289.00
1032,955.56,2273.19,110.39,2845.00,1241.00
1034,955.87,2276.52,41.60,2815.00,1268.00
1036,956.17,2279.85,117.34,2879.00,1273.00
1038,956.48,2283.18,137.72,2769.00,1165.00
1040,956.78,2286.50,168.75,2794.00,1178.00
1042,957.08,2289.82,169.81,2788.00,1163.00
1044,957.39,2293.14,93.80,2805.00,1245.00
1046,957.69,2296.45,217.66,2813.00,1173.00
1048,957.99,2299.76,168.34,2902.00,1300.00
1050,958.30,2303.07,152.06,2824.00,1239.00
1052,958.60,2306.38,223.06,2851.00,1232.00
1054,958.91,2309.68,183.42,2815.00,1232.00
1056,959.21,2312.98,248.45,2817.00,1178.00
1058,959.51,2316.27,216.70,2826.00,1213.00
1060,959.82,2319.56,235.34,2864.00,1254.00
1062,960.12,2322.85,221.46,2809.00,1220.00
1064,960.42,2326.14,230.77,2783.00,1188.00
1066,960.72,2329.42,272.30,2862.00,1249.00
1068,961.03,2332.70,282.31,2864.00,1256.00
1070,961.33,2335.97,256.39,2830.00,1243.00
1072,961.63,2339.25,286.53,2828.00,1213.00
1074,961.93,2342.52,214.88,2785.00,1230.00
1076,962.24,2345.78,308.71,2815.00,1209.00
1078,962.54,2349.05,387.54,2851.00,1207.00
1080,962.84,2352.31,298.61,2813.00,1230.00
1082,963.14,2355.56,307.16,2790.00,1203.00
1084,963.45,2358.82,335.13,2792.00,1197.00
1086,963.75,2362.07,322.08,2834.00,1251.00
1088,964.05,2365.32,296.58,2868.00,1304.00
1090,964.35,2368.56,306.06,2785.00,1226.00
1092,964.65,2371.80,349.40,2834.00,1260.00
1094,964.95,2375.04,349.42,2796.00,1237.00
1096,965.25,2378.27,318.59,2747.00,1213.00
1098,965.56,2381.51,302.81,2767.00,1239.00
1100,965.86,2384.73,255.41,2735.00,1243.00
1102,966.16,2387.96,300.58,2737.00,1218.00
1104,966.46,2391.18,340.77,2811.00,1287.00
1106,966.76,2394.40,467.15,2788.00,1199.00
1108,967.06,2397.62,259.19,2739.00,1279.00
1110,967.36,2400.83,361.94,2722.00,1192.00
1112,967.66,2404.04,370.61,2802.00,1294.00
1114,967.96,2407.25,353.33,2659.00,1167.00
1116,968.26,2410.45,321.57,2686.00,1216.00
1118,968.56,2413.65,251.69,2610.00,1194.00
1120,968.86,2416.85,249.15,2729.00,1321.00
1122,969.16,2420.04,272.89,2663.00,1245.00
1124,969.46,2423.23,233.57,2578.00,1186.00
1126,969.76,2426.42,222.66,2617.00,1247.00
1128,970.06,2429.60,350.70,2581.00,1156.00
1130,970.36,2432.79,280.98,2617.00,1232.00
1132,970.66,2435.96,199.37,2545.00,1205.00
1134,970.96,2439.14,233.03,2589.00,1235.00
1136,971.26,2442.31,237.39,2614.00,1277.00
1138,971.56,2445.48,292.98,2581.00,1216.00
1140,971.86,2448.65,212.00,2513.00,1197.00
1142,972.16,2451.81,268.42,2591.00,1252.00
1144,972.45,2454.97,260.98,2551.00,1230.00
1146,972.75,2458.13,212.54,2517.00,1222.00
1148,973.05,2461.28,175.35,2481.00,1213.00
1150,973.35,2464.43,179.24,2513.00,1252.00
1152,973.65,2467.58,198.55,2492.00,1233.00
1154,973.95,2470.72,281.06,2524.00,1222.00
1156,974.24,2473.86,187.18,2450.00,1203.00
1158,974.54,2477.00,189.05,2441.00,1203.00
1160,974.84,2480.13,253.15,2509.00,1251.00
1162,975.14,2483.27,269.02,2475.00,1207.00
1164,975.43,2486.40,197.43,2405.00,1178.00
1166,975.73,2489.52,290.87,2479.00,1209.00
1168,976.03,2492.64,170.08,2380.00,1192.00
1170,976.33,2495.76,161.08,2430.00,1245.00
1172,976.62,2498.88,83.30,2348.00,1218.00
1174,976.92,2501.99,118.93,2395.00,1260.00
1176,977.22,2505.10,211.44,2431.00,1249.00
1178,977.51,2508.21,23.05,2325.00,1251.00
1180,977.81,2511.31,86.63,2323.00,1215.00
1182,978.11,2514.41,51.83,2295.00,1220.00
1184,978.40,2517.51,30.40,2287.00,1228.00
1186,978.70,2520.61,64.69,2297.00,1226.00
1188,979.00,2523.70,124.75,2325.00,1245.00
1190,979.29,2526.79,42.44,2251.00,1220.00
1192,979.59,2529.87,68.25,2264.00,1224.00
1194,979.88,2532.95,91.47,2224.00,1180.00
1196,980.18,2536.03,29.85,2262.00,1258.00
1198,980.48,2539.11,17.39,2287.00,1298.00
1200,980.77,2542.18,0.00,2194.00,1239.00
1202,981.07,2545.25,66.95,2255.00,1262.00
1204,981.36,2548.32,26.49,2205.00,1233.00
1206,981.66,2551.38,40.06,2255.00,1285.00
1208,981.95,2554.44,50.78,2187.00,1224.00
1210,982.25,2557.50,0.00,2236.00,1317.00
1212,982.54,2560.56,0.67,2234.00,1306.00
1214,982.84,2563.61,11.04,2247.00,1317.00
1216,983.13,2566.66,34.45,2228.00,1294.00
1218,983.43,2569.70,64.06,2204.00,1264.00
1220,983.72,2572.74,6.99,2211.00,1300.00
1222,984.01,2575.78,30.25,2196.00,1264.00
1224,984.31,2578.82,77.76,2137.00,1197.00
1226,984.60,2581.85,173.18,2224.00,1260.00
1228,984.90,2584.88,78.37,2147.00,1205.00
1230,985.19,2587.91,2.55,2133.00,1241.00
1232,985.48,2590.93,73.90,2230.00,1300.00
1234,985.78,2593.96,55.47,2173.00,1264.00
1236,986.07,2596.97,44.08,2164.00,1260.00
1238,986.36,2599.99,67.22,2224.00,1308.00
1240,986.66,2603.00,64.78,2213.00,1308.00
1242,986.95,2606.01,118.09,2234.00,1309.00
1244,987.24,2609.01,42.95,2177.00,1290.00
1246,987.54,2612.02,28.88,2042.00,1165.00
1248,987.83,2615.02,148.13,2217.00,1285.00
1250,988.12,2618.01,197.83,2221.00,1287.00
1252,988.41,2621.01,155.58,2190.00,1271.00
1254,988.71,2624.00,63.65,2116.00,1241.00
1256,989.00,2626.99,200.15,2188.00,1256.00
1258,989.29,2629.97,202.76,2190.00,1277.00
1260,989.58,2632.95,238.97,2217.00,1281.00
1262,989.87,2635.93,85.43,2169.00,1306.00
1264,990.16,2638.91,180.21,2131.00,1228.00
1266,990.46,2641.88,259.39,2228.00,1306.00
1268,990.75,2644.85,293.57,2272.00,1347.00
1270,991.04,2647.81,280.90,2156.00,1237.00
1272,991.33,2650.78,246.94,2192.00,1281.00
1274,991.62,2653.74,210.41,2141.00,1256.00
1276,991.91,2656.70,425.77,2194.00,1233.00
1278,992.20,2659.65,279.45,2185.00,1292.00
1280,992.49,2662.60,233.21,2133.00,1254.00
1282,992.78,2665.55,259.74,2213.00,1330.00
1284,993.07,2668.50,441.31,2249.00,1309.00
1286,993.36,2671.44,309.99,2188.00,1300.00
1288,993.65,2674.38,319.15,2207.00,1309.00
1290,993.94,2677.31,359.32,2185.00,1289.00
1292,994.23,2680.25,452.25,2215.00,1292.00
1294,994.52,2683.18,234.19,2133.00,1300.00
1296,994.81,2686.10,385.60,2164.00,1273.00
1298,995.10,2689.03,395.15,2162.00,1283.00
1300,995.39,2691.95,307.90,2107.00,1266.00
1302,995.68,2694.87,330.26,2179.00,1325.00
1304,995.97,2697.78,280.04,2137.00,1309.00
1306,996.26,2700.70,366.59,2082.00,1228.00
1308,996.55,2703.61,430.17,2150.00,1283.00
1310,996.84,2706.51,397.08,2168.00,1321.00
1312,997.13,2709.42,360.58,2114.00,1283.00
1314,997.41,2712.32,320.18,2128.00,1319.00
1316,997.70,2715.21,498.65,2137.00,1266.00
1318,997.99,2718.11,373.55,2095.00,1277.00
1320,998.28,2721.00,385.83,2063.00,1243.00
1322,998.57,2723.89,345.60,2118.00,1323.00
1324,998.86,2726.77,424.22,2046.00,1226.00
1326,999.14,2729.66,338.08,2050.00,1268.00
1328,999.43,2732.54,372.40,2052.00,1268.00
1330,999.72,2735.41,379.56,2035.00,1258.00
1332,1000.01,2738.29,331.01,2078.00,1313.00
1334,1000.29,2741.16,224.90,2008.00,1283.00
1336,1000.58,2744.03,331.00,1970.00,1216.00
1338,1000.87,2746.89,385.13,2063.00,1311.00
1340,1001.15,2749.75,416.66,2033.00,1273.00
1342,1001.44,2752.61,264.10,2000.00,1283.00
1344,1001.73,2755.47,151.86,1915.00,1247.00
1346,1002.01,2758.32,332.31,1968.00,1251.00
1348,1002.30,2761.17,324.22,2012.00,1308.00
1350,1002.59,2764.02,304.37,2040.00,1330.00
1352,1002.87,2766.86,152.14,1923.00,1271.00
1354,1003.16,2769.70,255.93,1942.00,1264.00
1356,1003.44,2772.54,320.58,1904.00,1222.00
1358,1003.73,2775.38,293.14,1938.00,1270.00
1360,1004.01,2778.21,314.69,1896.00,1218.00
1362,1004.30,2781.04,217.27,1913.00,1266.00
1364,1004.58,2783.87,252.46,1913.00,1258.00
1366,1004.87,2786.69,221.36,1811.00,1182.00
1368,1005.15,2789.51,172.00,1902.00,1298.00
1370,1005.44,2792.33,196.85,1915.00,1304.00
1372,1005.72,2795.14,139.28,1896.00,1304.00
1374,1006.01,2797.95,93.02,1902.00,1330.00
1376,1006.29,2800.76,128.47,1830.00,1247.00
1378,1006.58,2803.57,3.79,1911.00,1380.00
1380,1006.86,2806.37,162.33,1833.00,1251.00
1382,1007.14,2809.17,265.69,1866.00,1266.00
1384,1007.43,2811.97,274.90,1828.00,1232.00
1386,1007.71,2814.77,149.93,1775.00,1218.00
1388,1008.00,2817.56,202.84,1801.00,1233.00
1390,1008.28,2820.35,161.29,1849.00,1290.00
1392,1008.56,2823.13,82.00,1773.00,1239.00
1394,1008.85,2825.91,124.08,1816.00,1277.00
1396,1009.13,2828.69,109.60,1794.00,1271.00
1398,1009.41,2831.47,79.42,1826.00,1315.00
1400,1009.69,2834.24,135.99,1727.00,1203.00
1402,1009.98,2837.02,143.64,1765.00,1243.00
1404,1010.26,2839.78,133.60,1822.00,1309.00
1406,1010.54,2842.55,258.45,1756.00,1213.00
1408,1010.82,2845.31,69.27,1767.00,1277.00
1410,1011.11,2848.07,64.65,1775.00,1289.00
1412,1011.39,2850.83,139.03,1803.00,1304.00
1414,1011.67,2853.58,124.04,1765.00,1277.00
1416,1011.95,2856.33,48.44,1731.00,1266.00
1418,1012.23,2859.08,170.46,1735.00,1241.00
1420,1012.51,2861.83,181.83,1723.00,1232.00
1422,1012.80,2864.57,31.15,1822.00,1374.00
1424,1013.08,2867.31,158.52,1816.00,1334.00
1426,1013.36,2870.04,29.85,1765.00,1325.00
1428,1013.64,2872.78,201.33,1775.00,1292.00
1430,1013.92,2875.51,3.17,1782.00,1357.00
1432,1014.20,2878.24,83.63,1738.00,1287.00
1434,1014.48,2880.96,101.93,1721.00,1271.00
1436,1014.76,2883.68,90.55,1645.00,1211.00
1438,1015.04,2886.40,213.69,1678.00,1226.00
1440,1015.32,2889.12,182.47,1746.00,1296.00
1442,1015.60,2891.83,32.14,1663.00,1251.00
1444,1015.88,2894.54,76.01,1727.00,1302.00
1446,1016.16,2897.25,107.18,1653.00,1230.00
1448,1016.44,2899.96,189.70,1718.00,1283.00
1450,1016.72,2902.66,104.78,1685.00,1277.00
1452,1017.00,2905.36,239.53,1761.00,1328.00
1454,1017.28,2908.06,141.72,1655.00,1243.00
1456,1017.55,2910.75,97.33,1706.00,1306.00
1458,1017.83,2913.44,148.59,1638.00,1228.00
1460,1018.11,2916.13,82.23,1687.00,1302.00
1462,1018.39,2918.81,153.76,1702.00,1308.00
1464,1018.67,2921.49,207.00,1661.00,1254.00
1466,1018.95,2924.17,11.91,1659.00,1302.00
1468,1019.22,2926.85,47.87,1668.00,1306.00
1470,1019.50,2929.52,199.55,1600.00,1213.00
1472,1019.78,2932.20,0.00,1568.00,1226.00
1474,1020.06,2934.86,100.72,1609.00,1241.00
1476,1020.33,2937.53,62.49,1689.00,1338.00
1478,1020.61,2940.19,90.68,1632.00,1281.00
1480,1020.89,2942.85,229.25,1664.00,1289.00
1482,1021.17,2945.51,218.66,1642.00,1271.00
1484,1021.44,2948.16,143.48,1611.00,1258.00
1486,1021.72,2950.81,23.71,1594.00,1271.00
1488,1022.00,2953.46,228.12,1682.00,1317.00
1490,1022.27,2956.11,20.33,1588.00,1270.00
1492,1022.55,2958.75,84.42,1664.00,1327.00
1494,1022.82,2961.39,156.35,1607.00,1266.00
1496,1023.10,2964.03,286.81,1651.00,1300.00
1498,1023.38,2966.66,187.14,1602.00,1271.00
1500,1023.65,2969.29,210.54,1636.00,1294.00
1502,1023.93,2971.92,0.00,1632.00,1345.00
1504,1024.20,2974.55,144.92,1640.00,1309.00
1506,1024.48,2977.17,189.95,1628.00,1302.00
1508,1024.75,2979.79,75.36,1556.00,1258.00
1510,1025.03,2982.41,272.73,1598.00,1266.00
1512,1025.30,2985.02,70.66,1532.00,1235.00
1514,1025.58,2987.63,75.92,1590.00,1292.00
1516,1025.85,2990.24,80.92,1551.00,1258.00
1518,1026.13,2992.85,155.62,1613.00,1313.00
1520,1026.40,2995.45,209.01,1596.00,1287.00
1522,1026.68,2998.05,83.24,1545.00,1258.00
1524,1026.95,3000.65,159.43,1628.00,1328.00
1526,1027.22,3003.25,216.20,1581.00,1275.00
1528,1027.50,3005.84,28.09,1520.00,1252.00
1530,1027.77,3008.43,272.15,1598.00,1289.00
1532,1028.04,3011.02,185.97,1592.00,1302.00
1534,1028.32,3013.60,210.92,1571.00,1277.00
1536,1028.59,3016.18,92.98,1575.00,1304.00
1538,1028.86,3018.76,18.60,1456.00,1201.00
1540,1029.14,3021.34,202.57,1568.00,1283.00
1542,1029.41,3023.91,175.75,1533.00,1249.00
1544,1029.68,3026.48,68.13,1503.00,1243.00
1546,1029.95,3029.05,259.29,1575.00,1289.00
1548,1030.22,3031.61,344.25,1533.00,1243.00
1550,1030.50,3034.17,252.94,1530.00,1251.00
1552,1030.77,3036.73,0.00,1503.00,1266.00
1554,1031.04,3039.29,239.69,1573.00,1294.00
1556,1031.31,3041.84,128.04,1471.00,1209.00
1558,1031.58,3044.39,0.00,1602.00,1378.00
1560,1031.85,3046.94,287.00,1600.00,1325.00
1562,1032.13,3049.49,251.85,1514.00,1252.00
1564,1032.40,3052.03,106.29,1571.00,1327.00
1566,1032.67,3054.57,35.99,1495.00,1262.00
1568,1032.94,3057.11,0.00,1590.00,1368.00
1570,1033.21,3059.64,290.29,1478.00,1213.00
1572,1033.48,3062.18,315.55,1598.00,1330.00
1574,1033.75,3064.70,64.05,1552.00,1319.00
1576,1034.02,3067.23,234.16,1570.00,1309.00
1578,1034.29,3069.75,243.06,1486.00,1232.00
1580,1034.56,3072.28,311.97,1566.00,1308.00
1582,1034.83,3074.79,178.38,1488.00,1245.00
1584,1035.10,3077.31,76.82,1541.00,1311.00
1586,1035.37,3079.82,97.57,1503.00,1271.00
1588,1035.64,3082.33,214.93,1613.00,1366.00
1590,1035.91,3084.84,158.75,1551.00,1311.00
1592,1036.17,3087.34,116.10,1501.00,1268.00
1594,1036.44,3089.85,208.49,1604.00,1363.00
1596,1036.71,3092.35,300.98,1509.00,1264.00
1598,1036.98,3094.84,260.00,1486.00,1245.00
1600,1037.25,3097.34,188.46,1471.00,1233.00
1602,1037.52,3099.83,79.69,1505.00,1281.00
1604,1037.78,3102.32,132.49,1513.00,1279.00
1606,1038.05,3104.80,169.60,1564.00,1332.00
1608,1038.32,3107.29,322.59,1532.00,1290.00
1610,1038.59,3109.77,380.20,1528.00,1285.00
1612,1038.85,3112.24,415.64,1526.00,1275.00
1614,1039.12,3114.72,0.00,1528.00,1340.00
1616,1039.39,3117.19,116.28,1439.00,1215.00
1618,1039.66,3119.66,304.85,1552.00,1304.00
1620,1039.92,3122.13,479.74,1571.00,1315.00
1622,1040.19,3124.59,374.89,1533.00,1287.00
1624,1040.45,3127.05,277.55,1499.00,1251.00
1626,1040.72,3129.51,107.76,1547.00,1313.00
1628,1040.99,3131.97,79.51,1568.00,1338.00
1630,1041.25,3134.42,422.68,1615.00,1347.00
1632,1041.52,3136.87,421.91,1503.00,1237.00
1634,1041.78,3139.32,126.62,1524.00,1285.00
1636,1042.05,3141.77,123.02,1716.00,1476.00
1638,1042.32,3144.21,265.54,1533.00,1277.00
1640,1042.58,3146.65,0.00,1579.00,1355.00
1642,1042.85,3149.09,193.44,1551.00,1296.00
1644,1043.11,3151.52,353.03,1581.00,1308.00
1646,1043.38,3153.96,362.41,1611.00,1334.00
1648,1043.64,3156.39,331.16,1552.00,1273.00
1650,1043.90,3158.81,417.37,1592.00,1304.00
1652,1044.17,3161.24,494.77,1619.00,1327.00
1654,1044.43,3163.66,510.59,1520.00,1222.00
1656,1044.70,3166.08,248.15,1664.00,1389.00
1658,1044.96,3168.49,577.55,1623.00,1315.00
1660,1045.22,3170.91,282.17,1573.00,1294.00
1662,1045.49,3173.32,435.75,1594.00,1296.00
1664,1045.75,3175.73,326.49,1598.00,1309.00
1666,1046.01,3178.13,354.29,1573.00,1279.00
1668,1046.28,3180.54,418.40,1642.00,1340.00
1670,1046.54,3182.94,398.24,1644.00,1347.00
1672,1046.80,3185.34,881.33,1649.00,1309.00
1674,1047.07,3187.73,463.18,1564.00,1258.00
1676,1047.33,3190.12,306.89,1606.00,1313.00
1678,1047.59,3192.51,649.59,1638.00,1315.00
1680,1047.85,3194.90,945.12,1718.00,1372.00
1682,1048.11,3197.29,233.55,1664.00,1378.00
1684,1048.38,3199.67,681.99,1663.00,1334.00
1686,1048.64,3202.05,719.61,1689.00,1361.00
1688,1048.90,3204.43,977.07,1653.00,1308.00
1690,1049.16,3206.80,907.17,1626.00,1289.00
1692,1049.42,3209.17,973.09,1699.00,1353.00
1694,1049.68,3211.54,934.90,1626.00,1281.00
1696,1049.94,3213.91,929.13,1645.00,1306.00
1698,1050.20,3216.27,1569.87,1708.00,1325.00
1700,1050.46,3218.63,1098.50,1738.00,1399.00
1702,1050.72,3220.99,1457.27,1693.00,1323.00
1704,1050.98,3223.35,1176.36,1701.00,1351.00
1706,1051.24,3225.70,1424.61,1663.00,1292.00
1708,1051.50,3228.05,1353.70,1636.00,1277.00
1710,1051.76,3230.40,1754.23,1737.00,1353.00
1712,1052.02,3232.75,1748.33,1710.00,1330.00
1714,1052.28,3235.09,1577.86,1744.00,1378.00
1716,1052.54,3237.43,1802.38,1683.00,1302.00
1718,1052.80,3239.77,2057.68,1693.00,1296.00
1720,1053.06,3242.11,2232.34,1719.00,1311.00
1722,1053.32,3244.44,2212.49,1663.00,1258.00
1724,1053.58,3246.77,2204.54,1805.00,1402.00
1726,1053.84,3249.10,2305.11,1719.00,1311.00
1728,1054.10,3251.42,2050.86,1723.00,1340.00
1730,1054.35,3253.75,2545.51,1708.00,1296.00
1732,1054.61,3256.07,2853.61,1771.00,1338.00
1734,1054.87,3258.39,2202.68,1693.00,1304.00
1736,1055.13,3260.70,2584.22,1699.00,1285.00
1738,1055.38,3263.01,2284.26,1680.00,1296.00
1740,1055.64,3265.32,2901.67,1723.00,1302.00
1742,1055.90,3267.63,2338.79,1653.00,1270.00
1744,1056.16,3269.94,2467.09,1771.00,1378.00
1746,1056.41,3272.24,1984.09,1752.00,1395.00
1748,1056.67,3274.54,2719.59,1737.00,1336.00
1750,1056.93,3276.84,2649.63,1719.00,1330.00
1752,1057.18,3279.13,3186.25,1695.00,1275.00
1754,1057.44,3281.42,2979.48,1664.00,1256.00
1756,1057.69,3283.71,2550.93,1668.00,1287.00
1758,1057.95,3286.00,2614.99,1757.00,1378.00
1760,1058.21,3288.28,2736.56,1664.00,1289.00
1762,1058.46,3290.57,3423.25,1746.00,1334.00
1764,1058.72,3292.85,2432.57,1699.00,1338.00
1766,1058.97,3295.12,2231.87,1615.00,1260.00
1768,1059.23,3297.40,1960.87,1628.00,1296.00
1770,1059.48,3299.67,2587.96,1708.00,1349.00
1772,1059.74,3301.94,2713.09,1607.00,1251.00
1774,1059.99,3304.21,2756.93,1682.00,1328.00
1776,1060.25,3306.47,2532.07,1752.00,1410.00
1778,1060.50,3308.73,2265.99,1625.00,1294.00
1780,1060.76,3310.99,2190.32,1625.00,1296.00
1782,1061.01,3313.25,1745.56,1617.00,1319.00
1784,1061.26,3315.50,2231.08,1615.00,1296.00
1786,1061.52,3317.76,2721.57,1678.00,1332.00
1788,1061.77,3320.01,1737.49,1642.00,1349.00
1790,1062.02,3322.25,1675.77,1581.00,1296.00
1792,1062.28,3324.50,3027.96,1644.00,1298.00
1794,1062.53,3326.74,2921.35,1581.00,1247.00
1796,1062.78,3328.98,1973.58,1583.00,1296.00
1798,1063.04,3331.22,2781.79,1617.00,1290.00
1800,1063.29,3333.45,2426.12,1596.00,1289.00
1802,1063.54,3335.68,2364.59,1588.00,1281.00
1804,1063.79,3337.91,1694.39,1626.00,1351.00
1806,1064.05,3340.14,1844.73,1699.00,1418.00
1808,1064.30,3342.36,1681.08,1528.00,1264.00
1810,1064.55,3344.59,2590.74,1640.00,1340.00
1812,1064.80,3346.81,2398.92,1587.00,1298.00
1814,1065.05,3349.02,2218.20,1571.00,1290.00
1816,1065.30,3351.24,2151.07,1613.00,1338.00
1818,1065.55,3353.45,1428.44,1558.00,1319.00
1820,1065.81,3355.66,1991.70,1674.00,1406.00
1822,1066.06,3357.87,1413.59,1552.00,1309.00
1824,1066.31,3360.07,1671.50,1507.00,1254.00
1826,1066.56,3362.27,2502.67,1592.00,1309.00
1828,1066.81,3364.47,2018.57,1518.00,1264.00
1830,1067.06,3366.67,2674.66,1571.00,1292.00
1832,1067.31,3368.87,2774.54,1558.00,1275.00
1834,1067.56,3371.06,2551.61,1484.00,1211.00
1836,1067.81,3373.25,1564.88,1465.00,1237.00
1838,1068.06,3375.44,2632.33,1516.00,1247.00
1840,1068.31,3377.62,1877.56,1505.00,1264.00
1842,1068.56,3379.81,1583.41,1471.00,1237.00
1844,1068.80,3381.99,1348.41,1604.00,1382.00
1846,1069.05,3384.16,1331.39,1554.00,1342.00
1848,1069.30,3386.34,2010.28,1518.00,1290.00
1850,1069.55,3388.51,2010.37,1484.00,1256.00
1852,1069.80,3390.68,1472.72,1528.00,1311.00
1854,1070.05,3392.85,169.18,1592.00,1431.00
1856,1070.30,3395.02,1297.10,1514.00,1302.00
1858,1070.54,3397.18,1870.86,1473.00,1249.00
1860,1070.79,3399.34,1416.86,1490.00,1294.00
1862,1071.04,3401.50,3171.25,1511.00,1258.00
1864,1071.29,3403.66,936.59,1404.00,1226.00
1866,1071.53,3405.81,1842.93,1522.00,1306.00
1868,1071.78,3407.96,1400.93,1490.00,1296.00
1870,1072.03,3410.11,1827.57,1524.00,1323.00
1872,1072.27,3412.26,1984.50,1486.00,1287.00
1874,1072.52,3414.40,2208.35,1475.00,1268.00
1876,1072.77,3416.54,1388.65,1469.00,1285.00
1878,1073.01,3418.68,1478.96,1516.00,1327.00
1880,1073.26,3420.82,1006.53,1378.00,1213.00
1882,1073.51,3422.96,2063.19,1503.00,1309.00
1884,1073.75,3425.09,1769.37,1482.00,1300.00
1886,1074.00,3427.22,1410.46,1397.00,1226.00
1888,1074.24,3429.35,1861.53,1530.00,1345.00
1890,1074.49,3431.47,2017.70,1446.00,1260.00
1892,1074.73,3433.59,1511.29,1391.00,1224.00
1894,1074.98,3435.71,2362.58,1522.00,1327.00
1896,1075.22,3437.83,782.83,1435.00,1294.00
1898,1075.47,3439.95,2122.15,1482.00,1302.00
1900,1075.71,3442.06,2257.92,1490.00,1313.00
1902,1075.96,3444.17,2081.25,1452.00,1283.00
1904,1076.20,3446.28,1879.06,1334.00,1169.00
1906,1076.44,3448.38,1319.90,1532.00,1382.00
1908,1076.69,3450.49,1745.28,1497.00,1334.00
1910,1076.93,3452.59,1966.28,1467.00,1302.00
1912,1077.17,3454.69,1346.14,1427.00,1285.00
1914,1077.42,3456.79,2007.45,1456.00,1298.00
1916,1077.66,3458.88,1813.09,1408.00,1258.00
1918,1077.90,3460.97,2420.61,1416.00,1251.00
1920,1078.15,3463.06,1954.66,1501.00,1349.00
1922,1078.39,3465.15,1212.76,1429.00,1298.00
1924,1078.63,3467.23,1688.67,1361.00,1216.00
1926,1078.87,3469.32,755.90,1450.00,1334.00
1928,1079.12,3471.40,2339.96,1406.00,1249.00
1930,1079.36,3473.47,1107.90,1522.00,1404.00
1932,1079.60,3475.55,3139.16,1401.00,1239.00
1934,1079.84,3477.62,1473.72,1423.00,1298.00
1936,1080.08,3479.69,1067.79,1380.00,1262.00
1938,1080.33,3481.76,801.94,1353.00,1241.00
1940,1080.57,3483.83,1500.65,1427.00,1292.00
1942,1080.81,3485.89,1181.22,1418.00,1298.00
1944,1081.05,3487.95,1155.94,1437.00,1325.00
1946,1081.29,3490.01,2454.13,1437.00,1302.00
1948,1081.53,3492.07,2066.30,1374.00,1249.00
1950,1081.77,3494.12,1676.30,1376.00,1258.00
1952,1082.01,3496.18,1742.51,1431.00,1313.00
1954,1082.25,3498.23,1533.89,1364.00,1254.00
1956,1082.49,3500.27,2281.73,1416.00,1287.00
1958,1082.73,3502.32,408.68,1344.00,1258.00
1960,1082.97,3504.36,275.32,1397.00,1315.00
1962,1083.21,3506.40,1327.49,1363.00,1252.00
1964,1083.45,3508.44,1303.51,1327.00,1224.00
1966,1083.69,3510.48,1786.14,1473.00,1364.00
1968,1083.93,3512.51,2366.17,1412.00,1294.00
1970,1084.16,3514.54,1143.95,1366.00,1275.00
1972,1084.40,3516.57,1758.40,1366.00,1264.00
1974,1084.64,3518.60,1369.42,1332.00,1239.00
1976,1084.88,3520.62,3108.46,1442.00,1313.00
1978,1085.12,3522.65,1837.69,1450.00,1345.00
1980,1085.36,3524.67,1085.23,1397.00,1309.00
1982,1085.59,3526.68,1451.53,1349.00,1256.00
1984,1085.83,3528.70,1551.28,1406.00,1315.00
1986,1086.07,3530.71,1622.21,1361.00,1270.00
1988,1086.31,3532.72,197.98,1414.00,1351.00
1990,1086.54,3534.73,1020.55,1317.00,1237.00
1992,1086.78,3536.74,1048.81,1448.00,1366.00
1994,1087.02,3538.74,25.00,1361.00,1304.00
1996,1087.25,3540.74,1261.22,1298.00,1213.00
1998,1087.49,3542.74,1797.27,1370.00,1281.00
2000,1087.73,3544.74,2598.84,1368.00,1273.00
2002,1087.96,3546.74,1305.91,1345.00,1273.00
2004,1088.20,3548.73,2032.25,1423.00,1338.00
2006,1088.43,3550.72,2143.45,1378.00,1279.00
2008,1088.67,3552.71,55.79,1342.00,1290.00
2010,1088.90,3554.69,509.61,1292.00,1224.00
2012,1089.14,3556.68,418.59,1347.00,1287.00
2014,1089.38,3558.66,2524.86,1328.00,1237.00
2016,1089.61,3560.64,2360.40,1328.00,1247.00
2018,1089.84,3562.62,1790.76,1380.00,1304.00
2020,1090.08,3564.59,773.80,1315.00,1252.00
2022,1090.31,3566.56,0.00,1313.00,1268.00
2024,1090.55,3568.53,1571.30,1327.00,1251.00
2026,1090.78,3570.50,976.83,1271.00,1209.00
2028,1091.02,3572.47,2313.85,1283.00,1201.00
2030,1091.25,3574.43,721.03,1281.00,1222.00
2032,1091.48,3576.39,132.97,1199.00,1150.00
2034,1091.72,3578.35,1925.28,1241.00,1161.00
2036,1091.95,3580.31,370.33,1289.00,1237.00
2038,1092.18,3582.26,1577.56,1224.00,1156.00
2040,1092.42,3584.22,1524.78,1218.00,1152.00
2042,1092.65,3586.17,822.66,1251.00,1194.00
2044,1092.88,3588.12,14.40,1209.00,1163.00
2046,1093.11,3590.06,300.62,1233.00,1175.00
2047,1093.23,3591.03,28.59,1188.00,1140.00