File: plugins/Raman/MatchingLibrary/785X/sodium sulfate.csv
ENLIGHTEN Version,4.1.22
Measurement ID,20250220-204524-005320-WP-01977
Serial Number,WP-01977
Model,WP-785X-F13-R-ILC
Detector,S16011-1106
Label,sodium sulfate
Declared Match,
Declared Score,0
Scan Averaging,5
Boxcar,0
Technique,Raman
Baseline Correction Algo,AirPLS
ROI Pixel Start,47
ROI Pixel End,2047
ROI Start Line,0
ROI Stop Line,63
CCD C4,1.38617e-12
Slit Width,25
Cropped,True
Interpolated,False
Wavenumber Correction,-0.100481
Raman Intensity Corrected,True
Deconvolved,True
Region,
High Gain Mode,False
Laser Power mW,
Electrical Dark Correction,False
Battery %,
Device ID,<DeviceID USB:0x24aa:0x1000:0:1>
FW Version,10.0.0.10
FPGA Version,035-001
BLE Version,
Prefix,enlighten
Suffix,
Preset,
Auto-Raman,True
Session Count,0
Plugin Name,
Integration Time,217
Timestamp,2025-02-20 20:45:24.0053
Note,
Temperature,0
CCD C0,793.274
CCD C1,0.153259
CCD C2,1.40788e-05
CCD C3,-1.132e-08
CCD Offset,0
CCD Gain,1.9
CCD Offset Odd,0
CCD Gain Odd,1.9
Laser Wavelength,785.032
Laser Enable,False
Laser Power %,0
Laser Temperature,0
Pixel Count,2048

Pixel,Wavelength,Wavenumber,Processed,Raw,Dark
0,793.27,132.25,NA,901.40,888.80
2,793.58,137.12,NA,908.40,901.60
4,793.89,141.99,NA,904.20,903.80
6,794.19,146.86,NA,908.60,898.20
8,794.50,151.72,NA,909.20,907.40
10,794.81,156.58,NA,910.00,900.20
12,795.12,161.44,NA,901.60,892.00
14,795.42,166.30,NA,903.80,893.00
16,795.73,171.16,NA,901.20,895.00
18,796.04,176.01,NA,908.20,902.40
20,796.35,180.86,NA,914.80,904.20
22,796.65,185.71,NA,923.60,909.40
24,796.96,190.56,NA,914.00,898.80
26,797.27,195.41,NA,926.40,912.60
28,797.58,200.25,NA,919.40,909.20
30,797.88,205.09,NA,914.20,899.20
32,798.19,209.93,NA,914.40,899.80
34,798.50,214.77,NA,918.40,898.20
36,798.81,219.60,NA,917.00,900.60
38,799.12,224.43,NA,928.60,907.00
40,799.43,229.27,NA,959.60,912.60
42,799.74,234.09,NA,1085.00,908.20
44,800.04,238.92,NA,1277.00,918.80
46,800.35,243.75,NA,1366.40,903.80
48,800.66,248.57,5.63,1390.00,913.00
50,800.97,253.39,5.97,1397.20,911.60
52,801.28,258.21,0.00,1387.00,918.80
54,801.59,263.02,0.00,1374.20,914.60
56,801.90,267.83,0.00,1385.00,911.20
58,802.21,272.65,7.69,1402.60,909.40
60,802.52,277.46,0.00,1399.60,913.40
62,802.83,282.26,0.00,1405.20,915.80
64,803.14,287.07,0.04,1415.00,915.00
66,803.45,291.87,0.00,1419.40,914.40
68,803.76,296.67,1.83,1434.40,916.00
70,804.07,301.47,0.00,1423.80,911.20
72,804.38,306.26,1.88,1441.40,907.80
74,804.69,311.06,0.00,1447.00,911.80
76,805.00,315.85,12.96,1471.40,908.20
78,805.31,320.64,0.45,1463.60,909.60
80,805.62,325.42,3.62,1483.20,916.40
82,805.93,330.21,5.17,1489.40,912.60
84,806.24,334.99,11.00,1491.60,900.00
86,806.55,339.77,0.00,1492.40,906.20
88,806.86,344.55,0.00,1503.60,914.00
90,807.17,349.32,5.10,1517.00,904.20
92,807.48,354.10,0.21,1526.60,911.80
94,807.80,358.87,0.63,1546.00,919.20
96,808.11,363.63,0.00,1542.00,909.80
98,808.42,368.40,3.65,1554.60,907.40
100,808.73,373.16,4.80,1565.60,905.80
102,809.04,377.93,1.29,1566.20,902.60
104,809.35,382.68,4.18,1583.80,908.20
106,809.66,387.44,3.40,1594.20,907.80
108,809.98,392.19,0.54,1589.20,898.40
110,810.29,396.95,6.52,1619.60,912.40
112,810.60,401.70,14.75,1625.40,904.60
114,810.91,406.44,35.45,1658.80,902.60
116,811.22,411.19,42.66,1681.00,912.60
118,811.54,415.93,79.18,1724.40,910.20
120,811.85,420.67,112.99,1766.20,905.00
122,812.16,425.41,178.77,1859.40,903.00
124,812.47,430.14,246.66,1982.00,911.80
126,812.79,434.87,386.79,2218.80,906.60
128,813.10,439.60,663.54,2690.40,899.80
130,813.41,444.33,1337.77,3604.40,907.40
132,813.72,449.06,2209.69,4562.80,901.40
134,814.04,453.78,2159.84,4683.40,909.00
136,814.35,458.50,1768.16,4382.60,902.20
138,814.66,463.22,2040.35,4564.60,897.80
140,814.98,467.93,2166.21,4516.00,898.20
142,815.29,472.65,1397.88,3661.60,909.80
144,815.60,477.36,719.06,2752.60,905.20
146,815.92,482.06,389.27,2194.80,899.80
148,816.23,486.77,259.94,1945.40,908.40
150,816.54,491.47,193.02,1825.80,918.80
152,816.86,496.17,125.22,1698.80,898.20
154,817.17,500.87,76.34,1623.60,904.20
156,817.48,505.57,48.27,1561.20,898.00
158,817.80,510.26,20.57,1519.60,898.40
160,818.11,514.95,8.91,1497.60,908.40
162,818.42,519.64,7.21,1481.00,907.00
164,818.74,524.32,0.00,1435.40,902.60
166,819.05,529.00,0.00,1424.20,907.00
168,819.37,533.68,0.00,1411.20,903.40
170,819.68,538.36,0.00,1408.80,908.60
172,819.99,543.04,0.00,1393.40,912.40
174,820.31,547.71,0.00,1379.60,904.20
176,820.62,552.38,0.00,1377.20,899.40
178,820.94,557.05,0.00,1381.00,904.20
180,821.25,561.71,3.55,1370.80,888.00
182,821.57,566.37,0.00,1373.40,899.20
184,821.88,571.03,0.00,1375.00,903.60
186,822.20,575.69,0.00,1378.80,907.80
188,822.51,580.34,0.00,1374.20,902.80
190,822.83,584.99,13.12,1396.00,900.20
192,823.14,589.64,10.36,1393.60,904.20
194,823.46,594.29,30.28,1423.00,902.60
196,823.77,598.93,48.75,1452.00,903.60
198,824.09,603.57,93.14,1538.00,901.60
200,824.40,608.21,187.24,1787.20,901.00
202,824.72,612.85,529.04,2502.80,912.00
204,825.03,617.48,1779.90,4068.00,905.40
206,825.35,622.11,2445.29,4947.60,910.80
208,825.66,626.74,2018.21,4741.00,909.40
210,825.98,631.36,2385.17,4995.80,908.40
212,826.29,635.99,1957.51,4502.00,906.20
214,826.61,640.61,1261.55,3723.80,905.20
216,826.92,645.22,1763.60,4059.60,899.60
218,827.24,649.84,1832.48,3886.80,900.80
220,827.56,654.45,669.44,2629.40,916.80
222,827.87,659.06,168.70,1743.60,904.60
224,828.19,663.67,55.15,1430.80,902.60
226,828.50,668.27,21.94,1352.40,919.20
228,828.82,672.87,2.39,1306.20,909.40
230,829.13,677.47,0.01,1278.40,901.00
232,829.45,682.06,0.00,1273.20,907.00
234,829.77,686.66,0.00,1285.60,923.00
236,830.08,691.25,0.00,1255.80,904.80
238,830.40,695.83,2.73,1265.40,902.60
240,830.72,700.42,0.00,1253.60,897.80
242,831.03,705.00,0.00,1241.80,886.40
244,831.35,709.58,0.00,1249.00,904.00
246,831.66,714.15,6.98,1249.80,887.60
248,831.98,718.73,0.01,1257.80,903.80
250,832.30,723.30,0.00,1253.20,899.40
252,832.61,727.87,6.57,1268.00,905.00
254,832.93,732.43,0.15,1242.20,887.20
256,833.25,736.99,2.65,1270.40,907.40
258,833.56,741.55,11.52,1269.60,900.60
260,833.88,746.11,5.50,1264.20,901.60
262,834.20,750.66,6.30,1264.60,899.60
264,834.51,755.22,9.89,1271.80,904.00
266,834.83,759.76,15.11,1279.60,904.20
268,835.15,764.31,7.93,1274.00,905.00
270,835.47,768.85,7.17,1263.60,897.40
272,835.78,773.39,13.65,1269.40,897.20
274,836.10,777.93,7.05,1266.00,900.60
276,836.42,782.46,19.74,1282.40,897.80
278,836.73,787.00,27.23,1289.60,897.00
280,837.05,791.52,22.44,1283.80,893.60
282,837.37,796.05,21.70,1298.20,909.20
284,837.69,800.57,30.06,1295.60,898.20
286,838.00,805.09,24.43,1287.60,895.60
288,838.32,809.61,25.13,1293.00,901.60
290,838.64,814.13,21.42,1289.80,904.40
292,838.95,818.64,21.75,1282.60,897.40
294,839.27,823.15,18.77,1275.40,896.40
296,839.59,827.65,7.81,1269.60,905.40
298,839.91,832.15,15.79,1267.00,895.60
300,840.22,836.65,9.16,1272.60,910.20
302,840.54,841.15,1.49,1248.20,896.40
304,840.86,845.65,0.41,1260.00,910.80
306,841.18,850.14,0.00,1252.00,907.00
308,841.50,854.63,0.00,1267.40,923.80
310,841.81,859.11,0.00,1243.00,897.80
312,842.13,863.60,0.00,1246.20,903.40
314,842.45,868.07,0.87,1252.00,897.60
316,842.77,872.55,0.00,1250.20,905.80
318,843.08,877.03,1.12,1271.00,908.80
320,843.40,881.50,0.00,1253.20,895.40
322,843.72,885.97,0.00,1269.20,904.00
324,844.04,890.43,0.00,1261.60,896.80
326,844.36,894.89,0.00,1277.80,897.20
328,844.67,899.35,0.24,1295.20,902.80
330,844.99,903.81,0.00,1290.20,896.00
332,845.31,908.26,0.00,1313.60,903.20
334,845.63,912.71,0.00,1320.00,905.00
336,845.95,917.16,0.00,1327.00,904.60
338,846.27,921.61,0.00,1423.00,994.40
340,846.58,926.05,0.00,1353.00,896.80
342,846.90,930.49,0.00,1364.80,902.60
344,847.22,934.92,0.00,1390.20,901.40
346,847.54,939.36,0.00,1400.80,890.80
348,847.86,943.79,0.00,1435.20,892.40
350,848.18,948.21,0.00,1457.60,895.80
352,848.49,952.64,0.00,1495.60,899.20
354,848.81,957.06,0.12,1533.40,887.20
356,849.13,961.48,1.26,1597.20,907.80
358,849.45,965.89,25.04,1707.80,907.40
360,849.77,970.31,152.00,1937.00,902.20
362,850.09,974.71,433.50,2398.60,901.80
364,850.40,979.12,614.87,3354.40,911.80
366,850.72,983.52,1405.44,7127.60,915.40
368,851.04,987.92,9249.94,22512.40,898.00
370,851.36,992.32,32610.86,43517.40,899.40
372,851.68,996.72,19874.60,33919.60,903.80
374,852.00,1001.11,2997.73,11746.80,898.40
376,852.32,1005.50,718.90,4323.60,894.80
378,852.63,1009.88,417.23,2604.00,917.00
380,852.95,1014.26,240.12,2076.20,906.20
382,853.27,1018.64,103.16,1842.20,903.00
384,853.59,1023.02,32.99,1716.80,900.60
386,853.91,1027.39,2.43,1634.00,896.00
388,854.23,1031.76,0.00,1571.60,896.00
390,854.55,1036.13,0.00,1539.60,894.00
392,854.87,1040.49,0.00,1517.00,891.00
394,855.18,1044.86,0.00,1508.80,902.00
396,855.50,1049.21,0.00,1491.20,902.60
398,855.82,1053.57,0.00,1494.60,903.00
400,856.14,1057.92,0.00,1487.20,897.80
402,856.46,1062.27,0.00,1495.00,898.00
404,856.78,1066.62,0.00,1497.60,888.40
406,857.10,1070.96,0.00,1503.00,893.80
408,857.42,1075.30,0.00,1533.80,905.20
410,857.74,1079.64,2.48,1566.80,898.40
412,858.06,1083.97,27.86,1643.80,895.60
414,858.37,1088.30,105.70,1861.80,887.60
416,858.69,1092.63,369.55,2523.60,895.00
418,859.01,1096.95,1397.89,4009.20,892.00
420,859.33,1101.27,2778.71,5266.20,896.80
422,859.65,1105.59,1677.49,4341.20,897.60
424,859.97,1109.91,414.59,2670.40,898.00
426,860.29,1114.22,158.97,2042.20,898.80
428,860.61,1118.53,137.26,1972.00,893.00
430,860.93,1122.84,236.76,2295.00,897.80
432,861.25,1127.14,976.67,3507.40,909.20
434,861.56,1131.44,2496.45,4827.40,892.60
436,861.88,1135.74,1462.27,4060.00,895.80
438,862.20,1140.03,334.69,2714.40,897.40
440,862.52,1144.32,348.76,2850.40,899.60
442,862.84,1148.61,1738.92,4792.60,900.40
444,863.16,1152.89,3884.61,6475.40,896.80
446,863.48,1157.17,1583.14,4623.40,899.00
448,863.80,1161.45,250.52,2561.60,901.40
450,864.12,1165.73,78.84,1948.00,902.20
452,864.44,1170.00,25.65,1765.80,897.60
454,864.76,1174.27,2.15,1723.00,897.80
456,865.07,1178.53,0.00,1680.60,889.80
458,865.39,1182.80,0.00,1697.40,899.20
460,865.71,1187.06,0.00,1702.80,897.20
462,866.03,1191.31,0.00,1710.00,895.80
464,866.35,1195.57,0.00,1711.20,894.20
466,866.67,1199.82,0.00,1737.80,901.20
468,866.99,1204.06,0.00,1749.40,896.60
470,867.31,1208.31,0.00,1773.00,903.60
472,867.63,1212.55,3.49,1796.80,899.20
474,867.95,1216.79,9.02,1816.20,892.40
476,868.27,1221.02,24.70,1856.80,897.20
478,868.58,1225.25,58.65,1898.40,892.40
480,868.90,1229.48,64.58,1927.60,899.60
482,869.22,1233.71,86.59,1973.40,907.00
484,869.54,1237.93,107.83,2006.00,905.00
486,869.86,1242.15,126.11,2038.20,900.40
488,870.18,1246.36,136.59,2050.80,893.00
490,870.50,1250.58,176.09,2112.60,896.00
492,870.82,1254.79,170.15,2133.80,915.20
494,871.14,1258.99,181.76,2146.20,901.40
496,871.46,1263.20,208.23,2184.60,900.00
498,871.78,1267.40,230.07,2220.60,895.20
500,872.10,1271.59,255.91,2265.40,896.20
502,872.41,1275.79,280.38,2303.80,896.00
504,872.73,1279.98,300.32,2344.80,898.80
506,873.05,1284.17,323.09,2385.20,898.00
508,873.37,1288.35,356.14,2422.00,880.80
510,873.69,1292.53,380.99,2475.00,892.60
512,874.01,1296.71,410.84,2528.60,894.80
514,874.33,1300.88,432.51,2558.40,889.60
516,874.65,1305.06,449.07,2601.40,900.20
518,874.97,1309.22,465.68,2630.60,896.80
520,875.29,1313.39,497.95,2678.60,898.80
522,875.60,1317.55,523.91,2728.60,903.80
524,875.92,1321.71,541.57,2752.20,895.60
526,876.24,1325.87,560.97,2786.60,899.80
528,876.56,1330.02,582.50,2820.80,896.20
530,876.88,1334.17,591.38,2843.60,901.20
532,877.20,1338.32,608.59,2860.80,890.40
534,877.52,1342.46,615.48,2866.40,889.60
536,877.84,1346.60,619.49,2887.00,895.60
538,878.16,1350.73,612.82,2881.60,894.40
540,878.47,1354.87,630.23,2898.60,893.40
542,878.79,1359.00,642.76,2922.40,895.40
544,879.11,1363.13,625.76,2910.60,903.20
546,879.43,1367.25,633.01,2906.40,892.60
548,879.75,1371.37,632.06,2911.40,896.20
550,880.07,1375.49,604.60,2878.40,896.80
552,880.39,1379.60,614.59,2884.40,895.40
554,880.71,1383.71,591.69,2850.00,894.20
556,881.03,1387.82,602.49,2866.00,893.00
558,881.34,1391.93,578.80,2832.60,889.60
560,881.66,1396.03,568.14,2819.00,892.00
562,881.98,1400.13,575.17,2827.80,898.40
564,882.30,1404.22,567.82,2820.80,903.00
566,882.62,1408.31,533.71,2774.40,896.20
568,882.94,1412.40,525.03,2763.20,900.80
570,883.26,1416.49,538.91,2769.00,893.80
572,883.57,1420.57,512.07,2748.40,904.20
574,883.89,1424.65,491.96,2709.20,892.40
576,884.21,1428.73,500.00,2727.80,902.00
578,884.53,1432.80,508.53,2741.40,902.60
580,884.85,1436.87,496.93,2719.20,893.40
582,885.17,1440.93,503.53,2722.80,889.20
584,885.49,1445.00,518.20,2742.20,893.40
586,885.80,1449.06,510.51,2733.20,890.60
588,886.12,1453.11,498.48,2742.00,907.40
590,886.44,1457.17,497.90,2735.40,901.80
592,886.76,1461.22,510.04,2740.20,898.60
594,887.08,1465.26,508.29,2746.80,905.00
596,887.40,1469.31,499.78,2726.60,886.60
598,887.71,1473.35,504.74,2741.00,895.60
600,888.03,1477.38,525.01,2768.40,898.20
602,888.35,1481.42,539.76,2797.40,905.00
604,888.67,1485.45,541.54,2801.20,900.60
606,888.99,1489.48,559.89,2812.00,888.80
608,889.31,1493.50,550.43,2810.20,899.00
610,889.62,1497.52,545.82,2807.20,897.40
612,889.94,1501.54,550.95,2803.80,888.80
614,890.26,1505.56,542.95,2799.40,896.40
616,890.58,1509.57,556.51,2819.20,896.00
618,890.90,1513.57,535.68,2793.00,895.00
620,891.21,1517.58,545.43,2797.20,892.60
622,891.53,1521.58,532.43,2782.20,896.60
624,891.85,1525.58,527.81,2781.40,897.80
626,892.17,1529.57,518.91,2769.20,899.60
628,892.49,1533.57,514.65,2767.20,904.20
630,892.80,1537.56,503.04,2738.60,894.00
632,893.12,1541.54,488.74,2721.40,895.00
634,893.44,1545.52,487.59,2726.00,903.40
636,893.76,1549.50,454.33,2671.40,892.20
638,894.07,1553.48,457.03,2682.60,902.40
640,894.39,1557.45,444.89,2656.20,895.20
642,894.71,1561.42,436.77,2656.00,899.80
644,895.03,1565.39,439.20,2640.40,888.40
646,895.34,1569.35,435.87,2650.00,905.00
648,895.66,1573.31,406.46,2606.20,891.60
650,895.98,1577.26,426.46,2626.20,891.00
652,896.30,1581.22,408.01,2599.00,890.40
654,896.61,1585.17,399.33,2595.40,895.40
656,896.93,1589.11,406.47,2607.20,901.80
658,897.25,1593.06,386.61,2569.60,887.20
660,897.57,1597.00,385.50,2576.00,894.80
662,897.88,1600.93,389.93,2579.00,894.20
664,898.20,1604.87,373.34,2563.40,897.40
666,898.52,1608.80,398.14,2585.40,889.20
668,898.84,1612.72,393.22,2577.00,888.80
670,899.15,1616.65,395.49,2599.20,904.60
672,899.47,1620.57,398.32,2586.60,889.20
674,899.79,1624.49,400.91,2589.80,894.20
676,900.10,1628.40,374.92,2558.80,894.40
678,900.42,1632.31,356.56,2548.20,904.20
680,900.74,1636.22,364.24,2541.60,890.00
682,901.05,1640.12,357.33,2553.40,913.40
684,901.37,1644.02,351.72,2523.80,892.40
686,901.69,1647.92,342.37,2521.00,902.20
688,902.00,1651.82,337.96,2507.00,889.60
690,902.32,1655.71,326.67,2490.40,888.40
692,902.64,1659.60,351.57,2512.20,888.80
694,902.95,1663.48,342.69,2511.20,899.20
696,903.27,1667.36,313.60,2477.60,892.20
698,903.59,1671.24,291.29,2459.20,903.00
700,903.90,1675.11,305.10,2461.40,900.00
702,904.22,1678.99,291.74,2432.60,888.40
704,904.54,1682.85,262.03,2425.80,910.80
706,904.85,1686.72,247.54,2385.80,892.00
708,905.17,1690.58,255.56,2391.80,894.60
710,905.49,1694.44,250.79,2383.40,891.80
712,905.80,1698.29,233.96,2370.40,898.40
714,906.12,1702.15,230.44,2363.20,897.00
716,906.43,1706.00,212.16,2338.20,897.00
718,906.75,1709.84,216.92,2348.20,907.40
720,907.07,1713.68,193.54,2308.80,894.00
722,907.38,1717.52,165.70,2289.60,905.80
724,907.70,1721.36,160.55,2269.80,895.60
726,908.01,1725.19,145.45,2249.60,897.20
728,908.33,1729.02,144.94,2251.60,901.40
730,908.65,1732.85,124.54,2221.60,895.60
732,908.96,1736.67,130.77,2227.20,897.40
734,909.28,1740.49,107.83,2194.80,890.80
736,909.59,1744.30,102.16,2193.40,898.60
738,909.91,1748.12,92.37,2173.80,895.80
740,910.22,1751.93,79.91,2163.00,897.00
742,910.54,1755.73,54.00,2153.80,918.00
744,910.85,1759.54,46.94,2132.40,906.60
746,911.17,1763.34,38.56,2103.20,892.00
748,911.49,1767.13,26.35,2090.00,895.00
750,911.80,1770.93,14.89,2077.20,894.00
752,912.12,1774.72,6.53,2062.80,896.20
754,912.43,1778.50,17.22,2062.80,891.80
756,912.75,1782.29,23.12,2051.20,887.60
758,913.06,1786.07,26.12,2045.20,890.00
760,913.38,1789.84,37.63,2053.80,895.80
762,913.69,1793.62,39.19,2048.60,899.80
764,914.01,1797.39,21.48,2019.60,900.00
766,914.32,1801.15,30.40,2012.20,894.00
768,914.64,1804.92,28.05,1995.20,893.20
770,914.95,1808.68,41.03,2005.40,896.20
772,915.26,1812.44,45.61,2001.40,898.40
774,915.58,1816.19,34.96,1966.20,886.00
776,915.89,1819.94,50.35,1983.00,897.00
778,916.21,1823.69,47.94,1968.00,894.80
780,916.52,1827.43,44.68,1971.00,909.20
782,916.84,1831.17,65.56,1961.20,889.20
784,917.15,1834.91,76.00,1960.60,888.80
786,917.47,1838.64,77.07,1963.20,897.80
788,917.78,1842.38,90.29,1959.60,893.80
790,918.09,1846.10,75.12,1936.00,894.40
792,918.41,1849.83,61.43,1916.80,897.60
794,918.72,1853.55,69.17,1899.00,886.80
796,919.04,1857.27,91.79,1917.80,893.20
798,919.35,1860.98,71.12,1893.00,893.40
800,919.66,1864.69,89.14,1904.40,896.40
802,919.98,1868.40,109.05,1910.40,899.40
804,920.29,1872.11,98.28,1882.20,890.60
806,920.60,1875.81,88.82,1870.40,893.60
808,920.92,1879.51,95.05,1866.00,893.80
810,921.23,1883.20,108.25,1870.40,899.60
812,921.55,1886.90,112.49,1856.00,888.60
814,921.86,1890.58,111.42,1855.80,899.40
816,922.17,1894.27,109.80,1844.00,900.80
818,922.49,1897.95,100.10,1823.20,899.20
820,922.80,1901.63,92.14,1803.20,896.80
822,923.11,1905.31,103.54,1797.40,892.60
824,923.42,1908.98,111.47,1796.80,895.80
826,923.74,1912.65,94.03,1778.00,901.20
828,924.05,1916.31,91.53,1760.20,893.60
830,924.36,1919.98,101.89,1751.80,890.40
832,924.68,1923.64,115.43,1750.80,888.40
834,924.99,1927.29,95.66,1729.00,890.00
836,925.30,1930.94,99.88,1719.80,887.60
838,925.61,1934.59,101.40,1711.20,892.20
840,925.93,1938.24,100.57,1704.20,895.00
842,926.24,1941.88,84.93,1680.60,896.80
844,926.55,1945.52,86.04,1664.00,886.80
846,926.86,1949.16,73.15,1645.00,894.40
848,927.18,1952.79,85.14,1642.40,891.20
850,927.49,1956.42,64.72,1612.00,890.20
852,927.80,1960.05,71.00,1626.40,906.60
854,928.11,1963.67,79.16,1613.20,896.00
856,928.42,1967.29,72.51,1604.60,903.80
858,928.74,1970.91,72.81,1586.80,894.80
860,929.05,1974.52,69.82,1568.20,891.80
862,929.36,1978.13,61.41,1551.80,892.60
864,929.67,1981.74,52.02,1538.60,897.20
866,929.98,1985.35,52.06,1522.00,893.20
868,930.29,1988.95,38.19,1504.80,897.20
870,930.61,1992.54,34.23,1485.80,890.40
872,930.92,1996.14,38.74,1481.00,895.20
874,931.23,1999.73,37.74,1475.80,898.80
876,931.54,2003.32,20.80,1450.20,895.80
878,931.85,2006.90,19.57,1435.20,893.20
880,932.16,2010.48,42.51,1441.60,890.80
882,932.47,2014.06,30.05,1424.40,892.80
884,932.78,2017.63,21.33,1411.60,892.20
886,933.09,2021.21,22.74,1404.60,894.60
888,933.41,2024.77,35.23,1398.20,890.60
890,933.72,2028.34,15.29,1388.80,904.60
892,934.03,2031.90,2.20,1358.60,897.80
894,934.34,2035.46,6.87,1351.60,895.00
896,934.65,2039.01,11.30,1344.00,891.00
898,934.96,2042.57,0.00,1327.80,901.20
900,935.27,2046.11,14.02,1341.40,905.00
902,935.58,2049.66,0.00,1306.20,891.80
904,935.89,2053.20,2.45,1305.80,895.20
906,936.20,2056.74,0.49,1295.40,895.40
908,936.51,2060.28,0.00,1287.80,899.00
910,936.82,2063.81,7.74,1292.00,894.20
912,937.13,2067.34,8.23,1283.00,898.40
914,937.44,2070.86,18.16,1279.40,894.20
916,937.75,2074.39,3.43,1256.00,887.20
918,938.06,2077.91,4.91,1259.20,895.60
920,938.37,2081.42,7.97,1247.00,890.00
922,938.68,2084.94,2.09,1237.80,891.80
924,938.99,2088.45,0.76,1227.40,889.60
926,939.30,2091.95,1.08,1233.20,901.40
928,939.60,2095.46,0.00,1219.40,895.80
930,939.91,2098.96,0.00,1220.20,901.00
932,940.22,2102.45,0.00,1209.20,897.80
934,940.53,2105.95,5.38,1201.60,887.20
936,940.84,2109.44,0.00,1197.00,895.00
938,941.15,2112.92,12.34,1207.40,896.80
940,941.46,2116.41,2.07,1186.00,889.40
942,941.77,2119.89,3.19,1187.60,894.80
944,942.07,2123.37,0.01,1179.00,894.00
946,942.38,2126.84,4.92,1183.00,896.20
948,942.69,2130.31,0.00,1169.00,897.40
950,943.00,2133.78,3.51,1165.80,890.80
952,943.31,2137.24,1.37,1165.60,896.40
954,943.62,2140.70,1.23,1164.40,896.40
956,943.92,2144.16,0.91,1156.40,893.20
958,944.23,2147.62,12.52,1168.40,899.00
960,944.54,2151.07,9.86,1162.40,900.20
962,944.85,2154.52,3.36,1163.40,907.80
964,945.16,2157.96,0.42,1149.00,898.80
966,945.46,2161.40,3.44,1146.00,894.60
968,945.77,2164.84,1.57,1132.20,886.80
970,946.08,2168.28,4.96,1141.00,895.40
972,946.39,2171.71,0.00,1128.60,891.20
974,946.69,2175.14,0.00,1129.00,895.80
976,947.00,2178.57,11.60,1137.20,895.60
978,947.31,2181.99,5.10,1128.60,888.40
980,947.61,2185.41,0.00,1120.40,895.60
982,947.92,2188.82,1.91,1130.60,899.20
984,948.23,2192.24,8.82,1120.80,888.40
986,948.53,2195.65,20.68,1133.60,896.20
988,948.84,2199.05,7.58,1114.20,883.80
990,949.15,2202.46,0.11,1118.20,897.40
992,949.45,2205.86,6.73,1118.00,892.60
994,949.76,2209.25,4.63,1109.60,888.00
996,950.07,2212.65,2.54,1114.60,896.00
998,950.37,2216.04,6.36,1108.20,887.60
1000,950.68,2219.43,10.69,1115.60,893.00
1002,950.98,2222.81,9.21,1112.40,893.60
1004,951.29,2226.19,4.88,1106.40,892.40
1006,951.60,2229.57,9.82,1104.80,888.40
1008,951.90,2232.94,5.13,1103.60,891.20
1010,952.21,2236.32,1.75,1096.60,888.40
1012,952.51,2239.68,8.84,1107.60,896.00
1014,952.82,2243.05,3.72,1088.40,883.20
1016,953.12,2246.41,0.00,1103.40,902.80
1018,953.43,2249.77,0.58,1113.80,912.20
1020,953.73,2253.12,0.72,1099.00,899.20
1022,954.04,2256.48,11.76,1091.00,884.80
1024,954.34,2259.83,2.95,1098.20,900.40
1026,954.65,2263.17,10.60,1094.00,889.40
1028,954.95,2266.51,4.82,1095.80,897.80
1030,955.26,2269.85,9.77,1098.40,899.20
1032,955.56,2273.19,5.60,1093.00,898.20
1034,955.87,2276.52,0.00,1087.60,898.40
1036,956.17,2279.85,1.31,1091.80,901.40
1038,956.48,2283.18,5.15,1079.40,886.40
1040,956.78,2286.50,10.43,1078.00,885.20
1042,957.08,2289.82,5.79,1072.80,883.00
1044,957.39,2293.14,7.23,1086.20,894.60
1046,957.69,2296.45,15.92,1075.60,882.80
1048,957.99,2299.76,13.09,1093.00,902.40
1050,958.30,2303.07,3.23,1081.60,897.00
1052,958.60,2306.38,4.34,1077.80,894.00
1054,958.91,2309.68,5.49,1079.20,897.60
1056,959.21,2312.98,11.68,1072.40,886.80
1058,959.51,2316.27,6.25,1075.00,894.00
1060,959.82,2319.56,3.69,1079.60,902.00
1062,960.12,2322.85,8.39,1070.80,890.00
1064,960.42,2326.14,17.55,1073.80,888.40
1066,960.72,2329.42,23.25,1076.60,891.00
1068,961.03,2332.70,15.94,1079.80,896.20
1070,961.33,2335.97,7.99,1070.00,892.60
1072,961.63,2339.25,15.56,1069.00,888.40
1074,961.93,2342.52,3.01,1063.80,895.20
1076,962.24,2345.78,13.63,1068.00,892.40
1078,962.54,2349.05,0.00,1059.20,895.00
1080,962.84,2352.31,12.63,1064.00,891.00
1082,963.14,2355.56,12.39,1058.60,888.00
1084,963.45,2358.82,0.00,1053.20,893.00
1086,963.75,2362.07,7.31,1065.60,899.80
1088,964.05,2365.32,3.03,1070.20,907.00
1090,964.35,2368.56,1.08,1059.20,898.80
1092,964.65,2371.80,4.79,1062.00,899.60
1094,964.95,2375.04,12.11,1061.00,896.40
1096,965.25,2378.27,11.27,1055.00,892.20
1098,965.56,2381.51,7.01,1057.00,895.20
1100,965.86,2384.73,1.62,1054.40,896.80
1102,966.16,2387.96,4.69,1054.00,894.20
1104,966.46,2391.18,11.86,1067.00,905.80
1106,966.76,2394.40,20.76,1053.20,888.80
1108,967.06,2397.62,13.46,1060.60,899.00
1110,967.36,2400.83,2.67,1044.40,890.00
1112,967.66,2404.04,2.73,1055.00,900.80
1114,967.96,2407.25,10.21,1046.60,888.20
1116,968.26,2410.45,17.73,1055.00,895.60
1118,968.56,2413.65,22.30,1050.40,888.00
1120,968.86,2416.85,0.17,1052.80,904.60
1122,969.16,2420.04,8.30,1047.40,894.20
1124,969.46,2423.23,9.24,1043.80,890.40
1126,969.76,2426.42,0.22,1045.20,899.00
1128,970.06,2429.60,2.42,1035.00,886.80
1130,970.36,2432.79,10.73,1041.60,889.60
1132,970.66,2435.96,9.68,1041.00,891.40
1134,970.96,2439.14,7.53,1042.80,894.20
1136,971.26,2442.31,22.35,1055.60,898.80
1138,971.56,2445.48,8.39,1040.20,893.40
1140,971.86,2448.65,17.10,1040.80,888.80
1142,972.16,2451.81,24.70,1049.00,894.80
1144,972.45,2454.97,19.01,1044.40,893.00
1146,972.75,2458.13,6.84,1040.80,896.20
1148,973.05,2461.28,18.44,1046.00,891.40
1150,973.35,2464.43,16.27,1045.60,897.60
1152,973.65,2467.58,24.15,1044.20,895.00
1154,973.95,2470.72,35.86,1049.80,894.40
1156,974.24,2473.86,19.09,1043.80,895.40
1158,974.54,2477.00,12.43,1039.40,895.20
1160,974.84,2480.13,29.06,1044.80,892.40
1162,975.14,2483.27,40.53,1048.40,894.20
1164,975.43,2486.40,34.75,1040.80,888.40
1166,975.73,2489.52,24.38,1038.20,890.20
1168,976.03,2492.64,25.97,1040.60,893.20
1170,976.33,2495.76,36.56,1045.40,894.80
1172,976.62,2498.88,23.93,1032.60,890.40
1174,976.92,2501.99,29.88,1041.20,896.20
1176,977.22,2505.10,24.79,1039.20,895.80
1178,977.51,2508.21,6.16,1027.00,895.80
1180,977.81,2511.31,14.59,1028.80,893.00
1182,978.11,2514.41,15.98,1026.80,892.00
1184,978.40,2517.51,8.15,1024.00,894.80
1186,978.70,2520.61,17.59,1030.20,897.60
1188,979.00,2523.70,19.62,1031.80,898.80
1190,979.29,2526.79,6.29,1021.80,894.20
1192,979.59,2529.87,1.62,1017.60,894.40
1194,979.88,2532.95,21.26,1019.60,886.00
1196,980.18,2536.03,16.16,1027.80,900.20
1198,980.48,2539.11,11.72,1029.00,903.80
1200,980.77,2542.18,8.14,1017.80,895.60
1202,981.07,2545.25,13.00,1027.00,901.40
1204,981.36,2548.32,2.03,1013.40,895.20
1206,981.66,2551.38,6.72,1021.40,901.60
1208,981.95,2554.44,16.10,1017.60,895.60
1210,982.25,2557.50,1.80,1016.80,902.00
1212,982.54,2560.56,2.26,1017.00,902.60
1214,982.84,2563.61,0.28,1022.80,910.60
1216,983.13,2566.66,0.01,1017.00,905.80
1218,983.43,2569.70,2.88,1014.00,901.60
1220,983.72,2572.74,13.53,1020.00,902.20
1222,984.01,2575.78,27.37,1017.60,897.00
1224,984.31,2578.82,14.71,1002.80,888.60
1226,984.60,2581.85,4.37,1009.80,900.20
1228,984.90,2584.88,1.53,998.80,891.20
1230,985.19,2587.91,4.65,1006.00,896.20
1232,985.48,2590.93,3.74,1010.60,903.40
1234,985.78,2593.96,28.08,1015.60,897.40
1236,986.07,2596.97,20.01,1011.40,898.80
1238,986.36,2599.99,32.36,1020.40,904.20
1240,986.66,2603.00,31.29,1014.40,899.80
1242,986.95,2606.01,10.14,1012.00,904.60
1244,987.24,2609.01,4.18,1010.60,905.80
1246,987.54,2612.02,0.00,990.40,891.80
1248,987.83,2615.02,25.62,1014.20,901.20
1250,988.12,2618.01,14.53,1006.00,902.40
1252,988.41,2621.01,18.82,1005.60,899.80
1254,988.71,2624.00,30.90,1002.80,892.20
1256,989.00,2626.99,33.50,1007.40,897.00
1258,989.29,2629.97,20.28,1007.20,902.40
1260,989.58,2632.95,13.34,1004.60,903.20
1262,989.87,2635.93,22.81,1005.20,900.20
1264,990.16,2638.91,16.22,994.60,895.00
1266,990.46,2641.88,22.32,1004.60,903.40
1268,990.75,2644.85,12.73,1009.00,912.60
1270,991.04,2647.81,20.51,997.00,896.60
1272,991.33,2650.78,3.34,997.00,905.00
1274,991.62,2653.74,0.00,990.80,904.00
1276,991.91,2656.70,19.50,994.00,895.00
1278,992.20,2659.65,18.63,997.00,901.40
1280,992.49,2662.60,44.44,997.60,893.60
1282,992.78,2665.55,37.70,1008.40,905.40
1284,993.07,2668.50,12.33,998.60,905.40
1286,993.36,2671.44,25.70,1004.60,905.40
1288,993.65,2674.38,27.29,1002.00,905.20
1290,993.94,2677.31,35.38,998.40,898.80
1292,994.23,2680.25,18.42,996.00,903.00
1294,994.52,2683.18,7.06,989.60,902.40
1296,994.81,2686.10,24.50,997.20,903.60
1298,995.10,2689.03,15.70,994.00,904.20
1300,995.39,2691.95,13.98,988.20,899.00
1302,995.68,2694.87,15.10,998.40,909.40
1304,995.97,2697.78,26.67,1000.00,907.80
1306,996.26,2700.70,33.83,987.80,894.80
1308,996.55,2703.61,22.48,990.00,900.20
1310,996.84,2706.51,2.20,986.60,905.00
1312,997.13,2709.42,5.22,991.80,908.00
1314,997.41,2712.32,14.75,992.00,906.20
1316,997.70,2715.21,49.30,992.20,898.00
1318,997.99,2718.11,16.96,982.80,898.60
1320,998.28,2721.00,15.21,983.60,899.40
1322,998.57,2723.89,18.61,995.20,910.60
1324,998.86,2726.77,23.54,980.60,895.60
1326,999.14,2729.66,18.63,981.40,898.20
1328,999.43,2732.54,9.61,982.20,902.60
1330,999.72,2735.41,13.10,980.80,900.80
1332,1000.01,2738.29,31.12,988.40,904.20
1334,1000.29,2741.16,32.33,982.00,897.60
1336,1000.58,2744.03,10.17,971.40,894.00
1338,1000.87,2746.89,15.78,989.40,909.60
1340,1001.15,2749.75,12.73,981.20,904.40
1342,1001.44,2752.61,10.82,974.40,899.40
1344,1001.73,2755.47,23.66,977.20,897.80
1346,1002.01,2758.32,25.63,976.40,896.20
1348,1002.30,2761.17,23.59,985.00,907.00
1350,1002.59,2764.02,19.18,985.80,909.80
1352,1002.87,2766.86,6.11,971.80,900.40
1354,1003.16,2769.70,13.97,969.60,895.60
1356,1003.44,2772.54,24.34,971.20,895.80
1358,1003.73,2775.38,26.43,977.40,900.80
1360,1004.01,2778.21,0.00,965.40,900.40
1362,1004.30,2781.04,16.84,968.40,895.00
1364,1004.58,2783.87,26.10,975.00,901.20
1366,1004.87,2786.69,29.85,965.40,890.00
1368,1005.15,2789.51,11.97,975.20,905.00
1370,1005.44,2792.33,25.76,980.60,906.40
1372,1005.72,2795.14,30.90,975.80,902.40
1374,1006.01,2797.95,20.28,975.40,905.20
1376,1006.29,2800.76,5.50,965.20,898.60
1378,1006.58,2803.57,2.56,979.60,913.40
1380,1006.86,2806.37,0.00,962.00,898.60
1382,1007.14,2809.17,13.60,967.00,897.00
1384,1007.43,2811.97,22.16,967.00,898.80
1386,1007.71,2814.77,53.73,967.60,892.20
1388,1008.00,2817.56,18.18,964.80,893.40
1390,1008.28,2820.35,2.52,968.20,903.60
1392,1008.56,2823.13,5.89,963.60,898.00
1394,1008.85,2825.91,30.76,969.40,899.40
1396,1009.13,2828.69,38.16,967.40,897.00
1398,1009.41,2831.47,18.59,971.40,904.20
1400,1009.69,2834.24,19.72,962.00,894.20
1402,1009.98,2837.02,19.76,964.80,898.00
1404,1010.26,2839.78,5.68,967.60,905.80
1406,1010.54,2842.55,32.13,960.40,891.80
1408,1010.82,2845.31,40.77,968.20,898.60
1410,1011.11,2848.07,52.00,974.20,901.00
1412,1011.39,2850.83,26.30,970.00,902.00
1414,1011.67,2853.58,15.18,967.20,901.80
1416,1011.95,2856.33,9.70,964.40,902.00
1418,1012.23,2859.08,28.14,964.60,898.80
1420,1012.51,2861.83,22.12,959.20,895.80
1422,1012.80,2864.57,23.79,978.00,912.40
1424,1013.08,2867.31,18.90,973.20,908.60
1426,1013.36,2870.04,29.48,970.40,904.60
1428,1013.64,2872.78,4.84,964.20,905.80
1430,1013.92,2875.51,33.87,973.20,907.80
1432,1014.20,2878.24,6.13,962.80,904.20
1434,1014.48,2880.96,3.05,957.60,900.00
1436,1014.76,2883.68,16.84,956.60,894.60
1438,1015.04,2886.40,21.50,955.80,893.20
1440,1015.32,2889.12,38.36,969.80,904.60
1442,1015.60,2891.83,69.81,961.40,891.40
1444,1015.88,2894.54,10.57,962.80,905.00
1446,1016.16,2897.25,14.74,954.20,894.60
1448,1016.44,2899.96,6.24,962.40,905.00
1450,1016.72,2902.66,4.08,958.20,901.80
1452,1017.00,2905.36,21.74,969.20,907.80
1454,1017.28,2908.06,40.83,962.20,898.60
1456,1017.55,2910.75,50.43,965.20,901.20
1458,1017.83,2913.44,62.14,961.00,893.40
1460,1018.11,2916.13,29.08,959.80,897.80
1462,1018.39,2918.81,21.19,961.80,901.80
1464,1018.67,2921.49,25.58,958.40,898.40
1466,1018.95,2924.17,16.37,960.80,904.20
1468,1019.22,2926.85,73.10,967.80,900.60
1470,1019.50,2929.52,27.74,953.00,894.00
1472,1019.78,2932.20,39.82,958.40,894.60
1474,1020.06,2934.86,8.50,951.40,896.60
1476,1020.33,2937.53,22.44,973.00,915.40
1478,1020.61,2940.19,25.29,958.00,899.80
1480,1020.89,2942.85,20.76,961.20,903.80
1482,1021.17,2945.51,17.78,958.20,902.00
1484,1021.44,2948.16,51.36,960.40,898.80
1486,1021.72,2950.81,66.03,959.20,895.40
1488,1022.00,2953.46,10.17,962.40,908.00
1490,1022.27,2956.11,7.16,954.80,900.60
1492,1022.55,2958.75,16.35,962.60,906.40
1494,1022.82,2961.39,32.36,956.80,899.20
1496,1023.10,2964.03,57.49,969.20,908.20
1498,1023.38,2966.66,29.62,953.00,896.20
1500,1023.65,2969.29,23.15,964.00,907.80
1502,1023.93,2971.92,19.11,964.20,908.20
1504,1024.20,2974.55,21.88,962.00,905.00
1506,1024.48,2977.17,44.81,965.60,905.20
1508,1024.75,2979.79,56.95,954.80,894.80
1510,1025.03,2982.41,25.39,957.40,902.80
1512,1025.30,2985.02,38.27,952.20,894.80
1514,1025.58,2987.63,29.94,959.40,902.80
1516,1025.85,2990.24,19.31,952.60,897.60
1518,1026.13,2992.85,3.64,960.80,910.20
1520,1026.40,2995.45,51.00,960.00,901.80
1522,1026.68,2998.05,33.96,955.00,899.80
1524,1026.95,3000.65,47.41,968.80,908.20
1526,1027.22,3003.25,19.30,958.80,904.20
1528,1027.50,3005.84,37.65,956.00,899.00
1530,1027.77,3008.43,55.74,962.40,904.20
1532,1028.04,3011.02,55.06,963.20,903.60
1534,1028.32,3013.60,0.00,952.80,903.00
1536,1028.59,3016.18,16.38,961.40,907.80
1538,1028.86,3018.76,22.23,941.00,887.20
1540,1029.14,3021.34,34.32,956.80,901.40
1542,1029.41,3023.91,33.18,951.80,894.60
1544,1029.68,3026.48,10.96,952.00,897.60
1546,1029.95,3029.05,8.31,956.40,902.60
1548,1030.22,3031.61,53.66,959.00,896.60
1550,1030.50,3034.17,27.52,952.20,897.20
1552,1030.77,3036.73,84.62,957.60,895.00
1554,1031.04,3039.29,30.83,964.40,906.20
1556,1031.31,3041.84,5.87,944.60,891.00
1558,1031.58,3044.39,36.13,967.00,906.60
1560,1031.85,3046.94,39.85,966.20,907.80
1562,1032.13,3049.49,57.95,957.00,897.00
1564,1032.40,3052.03,21.29,961.00,905.60
1566,1032.67,3054.57,49.97,958.80,897.80
1568,1032.94,3057.11,36.64,969.60,909.80
1570,1033.21,3059.64,44.16,952.00,891.00
1572,1033.48,3062.18,10.77,964.20,909.80
1574,1033.75,3064.70,56.78,965.80,905.80
1576,1034.02,3067.23,49.27,966.80,906.60
1578,1034.29,3069.75,27.28,950.20,892.00
1580,1034.56,3072.28,41.23,963.20,902.40
1582,1034.83,3074.79,39.64,952.80,893.80
1584,1035.10,3077.31,83.12,966.40,903.20
1586,1035.37,3079.82,22.97,956.40,900.40
1588,1035.64,3082.33,68.04,973.80,910.20
1590,1035.91,3084.84,3.35,963.20,908.80
1592,1036.17,3087.34,0.00,954.00,900.80
1594,1036.44,3089.85,28.67,972.60,911.40
1596,1036.71,3092.35,0.00,951.60,898.00
1598,1036.98,3094.84,115.01,957.60,890.60
1600,1037.25,3097.34,9.82,951.20,895.20
1602,1037.52,3099.83,23.89,963.60,904.40
1604,1037.78,3102.32,49.58,962.40,900.60
1606,1038.05,3104.80,36.77,965.40,905.80
1608,1038.32,3107.29,0.00,957.80,903.00
1610,1038.59,3109.77,35.26,961.60,900.20
1612,1038.85,3112.24,0.00,956.20,902.20
1614,1039.12,3114.72,67.98,972.00,907.40
1616,1039.39,3117.19,0.00,951.40,894.40
1618,1039.66,3119.66,0.00,964.80,909.80
1620,1039.92,3122.13,31.29,967.20,903.80
1622,1040.19,3124.59,0.00,959.80,900.80
1624,1040.45,3127.05,77.21,963.80,894.60
1626,1040.72,3129.51,40.45,973.80,905.20
1628,1040.99,3131.97,4.09,971.20,907.00
1630,1041.25,3134.42,31.66,982.00,911.80
1632,1041.52,3136.87,144.71,971.20,892.00
1634,1041.78,3139.32,93.77,973.00,898.00
1636,1042.05,3141.77,0.00,993.00,927.60
1638,1042.32,3144.21,0.00,968.20,902.40
1640,1042.58,3146.65,24.01,981.00,907.40
1642,1042.85,3149.09,0.00,972.20,902.20
1644,1043.11,3151.52,112.13,981.40,900.60
1646,1043.38,3153.96,11.86,983.60,909.60
1648,1043.64,3156.39,11.86,979.40,903.00
1650,1043.90,3158.81,17.62,984.20,905.00
1652,1044.17,3161.24,27.77,988.80,908.00
1654,1044.43,3163.66,42.43,977.80,895.60
1656,1044.70,3166.08,54.58,996.80,913.60
1658,1044.96,3168.49,115.42,991.20,902.40
1660,1045.22,3170.91,45.10,985.60,901.60
1662,1045.49,3173.32,96.93,992.00,900.60
1664,1045.75,3175.73,82.80,999.00,907.20
1666,1046.01,3178.13,77.51,990.80,899.80
1668,1046.28,3180.54,122.55,1005.00,910.60
1670,1046.54,3182.94,148.84,1008.20,911.00
1672,1046.80,3185.34,30.23,998.80,911.40
1674,1047.07,3187.73,77.72,993.00,900.20
1676,1047.33,3190.12,151.23,1003.80,904.60
1678,1047.59,3192.51,145.19,1006.00,907.60
1680,1047.85,3194.90,144.04,1014.80,915.40
1682,1048.11,3197.29,142.99,1005.80,905.80
1684,1048.38,3199.67,225.68,1016.00,908.80
1686,1048.64,3202.05,274.50,1023.80,914.20
1688,1048.90,3204.43,287.52,1013.20,902.60
1690,1049.16,3206.80,253.92,1012.60,903.00
1692,1049.42,3209.17,214.85,1015.40,909.00
1694,1049.68,3211.54,395.88,1019.40,898.80
1696,1049.94,3213.91,308.68,1017.40,904.80
1698,1050.20,3216.27,286.44,1017.80,906.00
1700,1050.46,3218.63,309.80,1029.60,915.40
1702,1050.72,3220.99,367.29,1027.00,908.40
1704,1050.98,3223.35,310.95,1028.40,914.60
1706,1051.24,3225.70,399.13,1022.60,901.00
1708,1051.50,3228.05,393.66,1020.40,900.60
1710,1051.76,3230.40,558.36,1042.00,911.60
1712,1052.02,3232.75,584.03,1037.60,905.40
1714,1052.28,3235.09,474.93,1040.20,914.60
1716,1052.54,3237.43,568.80,1034.80,901.20
1718,1052.80,3239.77,547.19,1034.80,904.20
1720,1053.06,3242.11,544.27,1034.60,905.20
1722,1053.32,3244.44,610.62,1031.40,897.40
1724,1053.58,3246.77,576.46,1047.00,915.80
1726,1053.84,3249.10,547.71,1037.20,908.60
1728,1054.10,3251.42,668.15,1041.80,905.40
1730,1054.35,3253.75,585.85,1033.20,903.40
1732,1054.61,3256.07,621.23,1047.00,914.00
1734,1054.87,3258.39,606.49,1039.20,906.60
1736,1055.13,3260.70,633.20,1037.20,903.40
1738,1055.38,3263.01,598.84,1033.80,904.20
1740,1055.64,3265.32,668.72,1036.00,903.00
1742,1055.90,3267.63,745.87,1035.00,897.40
1744,1056.16,3269.94,723.24,1045.80,909.80
1746,1056.41,3272.24,764.00,1050.20,911.60
1748,1056.67,3274.54,648.17,1038.00,907.60
1750,1056.93,3276.84,611.83,1036.60,909.00
1752,1057.18,3279.13,639.01,1031.40,902.00
1754,1057.44,3281.42,524.48,1023.60,902.20
1756,1057.69,3283.71,662.36,1032.40,903.40
1758,1057.95,3286.00,575.63,1036.20,913.80
1760,1058.21,3288.28,634.88,1027.40,901.20
1762,1058.46,3290.57,595.59,1036.20,912.40
1764,1058.72,3292.85,532.81,1028.40,909.40
1766,1058.97,3295.12,651.88,1023.20,898.00
1768,1059.23,3297.40,471.28,1019.80,905.80
1770,1059.48,3299.67,632.67,1032.60,908.80
1772,1059.74,3301.94,396.37,1011.60,902.80
1774,1059.99,3304.21,632.40,1028.80,907.80
1776,1060.25,3306.47,503.30,1032.20,918.60
1778,1060.50,3308.73,442.96,1017.20,905.40
1780,1060.76,3310.99,318.79,1015.00,910.20
1782,1061.01,3313.25,378.52,1012.20,905.00
1784,1061.26,3315.50,495.71,1019.60,907.80
1786,1061.52,3317.76,393.27,1017.80,913.00
1788,1061.77,3320.01,452.99,1022.20,915.00
1790,1062.02,3322.25,499.11,1011.00,901.60
1792,1062.28,3324.50,389.66,1008.80,905.00
1794,1062.53,3326.74,425.04,1005.40,899.60
1796,1062.78,3328.98,351.58,1006.40,904.40
1798,1063.04,3331.22,348.71,1003.40,902.00
1800,1063.29,3333.45,444.16,1003.60,898.60
1802,1063.54,3335.68,274.16,1003.00,907.20
1804,1063.79,3337.91,229.33,1004.20,910.20
1806,1064.05,3340.14,122.31,1006.80,918.60
1808,1064.30,3342.36,276.69,993.60,899.00
1810,1064.55,3344.59,325.99,1005.40,910.20
1812,1064.80,3346.81,304.10,994.00,900.40
1814,1065.05,3349.02,283.70,994.60,902.80
1816,1065.30,3351.24,317.74,1003.20,911.60
1818,1065.55,3353.45,293.83,992.60,903.60
1820,1065.81,3355.66,342.03,1006.00,915.20
1822,1066.06,3357.87,227.09,990.60,905.00
1824,1066.31,3360.07,143.66,982.40,901.40
1826,1066.56,3362.27,164.56,994.00,913.00
1828,1066.81,3364.47,234.41,985.20,902.60
1830,1067.06,3366.67,356.51,990.00,904.20
1832,1067.31,3368.87,321.92,984.80,901.60
1834,1067.56,3371.06,337.43,976.00,892.00
1836,1067.81,3373.25,147.43,973.00,897.40
1838,1068.06,3375.44,233.92,978.00,899.40
1840,1068.31,3377.62,356.53,980.20,898.60
1842,1068.56,3379.81,241.82,969.60,894.00
1844,1068.80,3381.99,147.44,988.00,916.40
1846,1069.05,3384.16,306.09,981.80,903.00
1848,1069.30,3386.34,241.55,978.40,902.60
1850,1069.55,3388.51,177.14,973.60,902.20
1852,1069.80,3390.68,243.86,977.60,905.40
1854,1070.05,3392.85,407.64,988.20,912.00
1856,1070.30,3395.02,289.71,977.00,906.20
1858,1070.54,3397.18,360.04,973.20,900.40
1860,1070.79,3399.34,290.46,973.00,903.40
1862,1071.04,3401.50,308.69,971.20,901.60
1864,1071.29,3403.66,306.26,964.40,895.40
1866,1071.53,3405.81,446.40,978.40,904.40
1868,1071.78,3407.96,95.75,965.40,906.20
1870,1072.03,3410.11,279.60,972.00,907.20
1872,1072.27,3412.26,188.35,966.40,906.00
1874,1072.52,3414.40,402.16,967.00,899.80
1876,1072.77,3416.54,298.84,963.60,900.40
1878,1073.01,3418.68,444.68,974.00,906.60
1880,1073.26,3420.82,356.88,954.00,891.40
1882,1073.51,3422.96,412.35,965.60,902.60
1884,1073.75,3425.09,281.62,965.60,907.00
1886,1074.00,3427.22,273.04,955.40,896.80
1888,1074.24,3429.35,187.33,969.20,914.20
1890,1074.49,3431.47,187.64,952.60,899.00
1892,1074.73,3433.59,103.22,948.60,898.80
1894,1074.98,3435.71,257.00,967.00,912.20
1896,1075.22,3437.83,90.44,954.20,905.00
1898,1075.47,3439.95,39.90,955.40,909.00
1900,1075.71,3442.06,291.26,961.60,907.80
1902,1075.96,3444.17,417.36,952.20,898.00
1904,1076.20,3446.28,359.03,937.00,885.60
1906,1076.44,3448.38,514.92,968.00,912.20
1908,1076.69,3450.49,397.88,958.20,905.40
1910,1076.93,3452.59,205.41,951.40,905.00
1912,1077.17,3454.69,332.82,950.40,900.80
1914,1077.42,3456.79,400.46,951.20,900.80
1916,1077.66,3458.88,369.33,947.80,899.60
1918,1077.90,3460.97,223.36,940.60,897.40
1920,1078.15,3463.06,343.35,956.00,910.00
1922,1078.39,3465.15,259.59,947.40,904.60
1924,1078.63,3467.23,502.94,942.60,894.40
1926,1078.87,3469.32,178.57,948.20,909.60
1928,1079.12,3471.40,452.14,942.00,897.00
1930,1079.36,3473.47,267.65,961.20,921.00
1932,1079.60,3475.55,259.56,934.80,895.00
1934,1079.84,3477.62,290.19,948.00,908.20
1936,1080.08,3479.69,283.24,941.20,902.80
1938,1080.33,3481.76,531.47,939.60,895.40
1940,1080.57,3483.83,112.08,940.00,907.40
1942,1080.81,3485.89,602.12,945.60,901.20
1944,1081.05,3487.95,275.31,943.40,908.60
1946,1081.29,3490.01,594.89,946.80,905.40
1948,1081.53,3492.07,319.62,936.20,900.80
1950,1081.77,3494.12,216.32,935.00,902.20
1952,1082.01,3496.18,401.62,945.00,908.40
1954,1082.25,3498.23,602.97,934.20,896.00
1956,1082.49,3500.27,601.53,938.40,902.20
1958,1082.73,3502.32,406.20,929.60,896.20
1960,1082.97,3504.36,184.77,940.00,909.80
1962,1083.21,3506.40,26.87,931.80,907.00
1964,1083.45,3508.44,194.72,924.80,892.40
1966,1083.69,3510.48,179.75,947.80,919.40
1968,1083.93,3512.51,537.41,937.60,903.80
1970,1084.16,3514.54,862.28,934.60,896.60
1972,1084.40,3516.57,508.41,931.00,899.00
1974,1084.64,3518.60,88.12,925.60,901.80
1976,1084.88,3520.62,386.78,938.40,908.00
1978,1085.12,3522.65,653.28,943.40,907.80
1980,1085.36,3524.67,116.75,931.80,908.20
1982,1085.59,3526.68,751.09,931.60,896.00
1984,1085.83,3528.70,401.90,935.60,906.20
1986,1086.07,3530.71,232.30,926.80,900.80
1988,1086.31,3532.72,324.59,934.20,907.00
1990,1086.54,3534.73,335.64,922.00,895.80
1992,1086.78,3536.74,407.21,942.00,914.40
1994,1087.02,3538.74,146.35,929.80,906.20
1996,1087.25,3540.74,13.29,913.20,893.00
1998,1087.49,3542.74,15.02,928.60,908.60
2000,1087.73,3544.74,580.27,930.00,898.00
2002,1087.96,3546.74,489.58,927.60,900.80
2004,1088.20,3548.73,891.85,937.40,905.80
2006,1088.43,3550.72,253.29,927.20,904.60
2008,1088.67,3552.71,350.95,926.00,900.40
2010,1088.90,3554.69,185.62,915.80,893.00
2012,1089.14,3556.68,74.72,926.20,906.60
2014,1089.38,3558.66,552.31,922.00,893.80
2016,1089.61,3560.64,465.47,922.80,898.40
2018,1089.84,3562.62,601.88,926.40,900.20
2020,1090.08,3564.59,179.67,918.20,898.20
2022,1090.31,3566.56,178.46,918.80,898.60
2024,1090.55,3568.53,168.14,918.40,898.80
2026,1090.78,3570.50,528.23,916.20,891.20
2028,1091.02,3572.47,417.67,910.60,888.40
2030,1091.25,3574.43,256.49,916.60,897.20
2032,1091.48,3576.39,625.34,907.80,883.40
2034,1091.72,3578.35,205.48,904.20,886.00
2036,1091.95,3580.31,415.72,916.00,893.80
2038,1092.18,3582.26,83.26,903.80,887.20
2040,1092.42,3584.22,0.00,903.00,890.40
2042,1092.65,3586.17,319.87,908.80,889.20
2044,1092.88,3588.12,31.40,904.80,889.60
2046,1093.11,3590.06,174.76,901.00,882.80
2047,1093.23,3591.03,86.62,896.60,878.80