File: plugins/Raman/MatchingLibrary/785X/sucrose.csv
ENLIGHTEN Version,4.1.22
Measurement ID,20250220-201351-223302-WP-01977
Serial Number,WP-01977
Model,WP-785X-F13-R-ILC
Detector,S16011-1106
Label,sucrose
Declared Match,
Declared Score,0
Scan Averaging,1
Boxcar,0
Technique,Raman
Baseline Correction Algo,AirPLS
ROI Pixel Start,47
ROI Pixel End,2047
ROI Start Line,0
ROI Stop Line,63
CCD C4,1.38617e-12
Slit Width,25
Cropped,True
Interpolated,False
Wavenumber Correction,-0.100481
Raman Intensity Corrected,True
Deconvolved,True
Region,
High Gain Mode,False
Laser Power mW,
Electrical Dark Correction,False
Battery %,
Device ID,<DeviceID USB:0x24aa:0x1000:0:1>
FW Version,10.0.0.10
FPGA Version,035-001
BLE Version,
Prefix,enlighten
Suffix,
Preset,
Auto-Raman,True
Session Count,0
Plugin Name,
Integration Time,1659
Timestamp,2025-02-20 20:13:51.2233
Note,
Temperature,0
CCD C0,793.274
CCD C1,0.153259
CCD C2,1.40788e-05
CCD C3,-1.132e-08
CCD Offset,0
CCD Gain,1.9
CCD Offset Odd,0
CCD Gain Odd,1.9
Laser Wavelength,785.032
Laser Enable,False
Laser Power %,0
Laser Temperature,0
Pixel Count,2048

Pixel,Wavelength,Wavenumber,Processed,Raw,Dark
0,793.27,132.25,NA,1378.00,1205.00
2,793.58,137.12,NA,1471.00,1285.00
4,793.89,141.99,NA,1454.00,1252.00
6,794.19,146.86,NA,1429.00,1275.00
8,794.50,151.72,NA,1505.00,1294.00
10,794.81,156.58,NA,1516.00,1298.00
12,795.12,161.44,NA,1461.00,1245.00
14,795.42,166.30,NA,1463.00,1232.00
16,795.73,171.16,NA,1476.00,1249.00
18,796.04,176.01,NA,1551.00,1332.00
20,796.35,180.86,NA,1554.00,1304.00
22,796.65,185.71,NA,1636.00,1370.00
24,796.96,190.56,NA,1545.00,1313.00
26,797.27,195.41,NA,1640.00,1344.00
28,797.58,200.25,NA,1638.00,1334.00
30,797.88,205.09,NA,1549.00,1279.00
32,798.19,209.93,NA,1623.00,1289.00
34,798.50,214.77,NA,1645.00,1281.00
36,798.81,219.60,NA,1718.00,1277.00
38,799.12,224.43,NA,1966.00,1300.00
40,799.43,229.27,NA,3206.00,1393.00
42,799.74,234.09,NA,7734.00,1344.00
44,800.04,238.92,NA,13661.00,1448.00
46,800.35,243.75,NA,15225.00,1334.00
48,800.66,248.57,308.21,15498.00,1361.00
50,800.97,253.39,973.51,16087.00,1361.00
52,801.28,258.21,1305.42,16358.00,1397.00
54,801.59,263.02,255.11,15743.00,1395.00
56,801.90,267.83,0.00,15010.00,1368.00
58,802.21,272.65,0.00,15014.00,1374.00
60,802.52,277.46,151.40,15891.00,1387.00
62,802.83,282.26,1776.58,17313.00,1425.00
64,803.14,287.07,2050.23,17854.00,1408.00
66,803.45,291.87,1888.66,18016.00,1406.00
68,803.76,296.67,2220.64,18384.00,1429.00
70,804.07,301.47,2096.22,18361.00,1376.00
72,804.38,306.26,2265.10,18661.00,1332.00
74,804.69,311.06,2701.61,19102.00,1355.00
76,805.00,315.85,2657.88,18952.00,1355.00
78,805.31,320.64,1731.66,18052.00,1372.00
80,805.62,325.42,517.49,16812.00,1416.00
82,805.93,330.21,85.28,16180.00,1376.00
84,806.24,334.99,39.53,16020.00,1315.00
86,806.55,339.77,285.43,16421.00,1359.00
88,806.86,344.55,789.29,17015.00,1395.00
90,807.17,349.32,954.81,17287.00,1327.00
92,807.48,354.10,940.87,17615.00,1359.00
94,807.80,358.87,1658.09,18693.00,1406.00
96,808.11,363.63,3116.74,20026.00,1389.00
98,808.42,368.40,3058.40,19956.00,1332.00
100,808.73,373.16,1361.53,18361.00,1321.00
102,809.04,377.93,590.97,17275.00,1306.00
104,809.35,382.68,688.63,17427.00,1332.00
106,809.66,387.44,1065.82,18352.00,1382.00
108,809.98,392.19,2719.83,21311.00,1290.00
110,810.29,396.95,8003.63,28106.00,1370.00
112,810.60,401.70,14334.27,33966.00,1330.00
114,810.91,406.44,11123.70,31692.00,1370.00
116,811.22,411.19,5321.62,25444.00,1363.00
118,811.54,415.93,3889.20,22600.00,1376.00
120,811.85,420.67,3612.12,21446.00,1306.00
122,812.16,425.41,1940.28,19633.00,1315.00
124,812.47,430.14,1324.65,19092.00,1364.00
126,812.79,434.87,2250.77,20440.00,1292.00
128,813.10,439.60,4982.13,23307.00,1283.00
130,813.41,444.33,6124.93,24298.00,1317.00
132,813.72,449.06,3133.80,21368.00,1309.00
134,814.04,453.78,896.65,18542.00,1336.00
136,814.35,458.50,81.49,17122.00,1292.00
138,814.66,463.22,0.00,16571.00,1273.00
140,814.98,467.93,60.00,16911.00,1304.00
142,815.29,472.65,472.74,17283.00,1334.00
144,815.60,477.36,600.54,17461.00,1347.00
146,815.92,482.06,471.00,17382.00,1273.00
148,816.23,486.77,754.86,17930.00,1342.00
150,816.54,491.47,1390.27,18733.00,1442.00
152,816.86,496.17,1918.28,19090.00,1289.00
154,817.17,500.87,1546.61,18743.00,1340.00
156,817.48,505.57,802.91,17866.00,1304.00
158,817.80,510.26,499.37,17585.00,1279.00
160,818.11,514.95,995.47,18916.00,1345.00
162,818.42,519.64,4121.47,23460.00,1357.00
164,818.74,524.32,8886.41,28603.00,1330.00
166,819.05,529.00,8898.65,29668.00,1378.00
168,819.37,533.68,7806.81,28994.00,1342.00
170,819.68,538.36,8415.82,29623.00,1380.00
172,819.99,543.04,8701.63,30008.00,1389.00
174,820.31,547.71,9115.23,30365.00,1340.00
176,820.62,552.38,9448.90,30116.00,1285.00
178,820.94,557.05,7390.01,27324.00,1315.00
180,821.25,561.71,3954.70,22817.00,1260.00
182,821.57,566.37,1882.51,19572.00,1283.00
184,821.88,571.03,1227.73,18418.00,1317.00
186,822.20,575.69,1518.23,18834.00,1351.00
188,822.51,580.34,2900.08,20349.00,1311.00
190,822.83,584.99,3883.99,21154.00,1325.00
192,823.14,589.64,2318.45,19563.00,1315.00
194,823.46,594.29,665.29,17215.00,1317.00
196,823.77,598.93,158.42,16201.00,1315.00
198,824.09,603.57,9.33,15774.00,1262.00
200,824.40,608.21,2.52,15724.00,1330.00
202,824.72,612.85,101.85,15893.00,1364.00
204,825.03,617.48,326.34,16077.00,1327.00
206,825.35,622.11,551.49,16563.00,1364.00
208,825.66,626.74,1156.27,17685.00,1342.00
210,825.98,631.36,2384.37,19631.00,1302.00
212,826.29,635.99,4894.86,22976.00,1319.00
214,826.61,640.61,6770.51,24951.00,1364.00
216,826.92,645.22,5585.67,23601.00,1306.00
218,827.24,649.84,2700.58,19772.00,1270.00
220,827.56,654.45,1024.28,17019.00,1336.00
222,827.87,659.06,151.55,15589.00,1345.00
224,828.19,663.67,0.11,14802.00,1311.00
226,828.50,668.27,0.00,14714.00,1442.00
228,828.82,672.87,38.61,15069.00,1368.00
230,829.13,677.47,598.48,15455.00,1290.00
232,829.45,682.06,970.09,15903.00,1344.00
234,829.77,686.66,569.19,15844.00,1640.00
236,830.08,691.25,606.58,15582.00,1319.00
238,830.40,695.83,894.80,15823.00,1304.00
240,830.72,700.42,1158.27,16053.00,1311.00
242,831.03,705.00,1022.77,15743.00,1196.00
244,831.35,709.58,649.99,15339.00,1309.00
246,831.66,714.15,514.55,14952.00,1224.00
248,831.98,718.73,559.70,15014.00,1311.00
250,832.30,723.30,484.28,14912.00,1270.00
252,832.61,727.87,751.59,15512.00,1376.00
254,832.93,732.43,1648.96,16535.00,1196.00
256,833.25,736.99,2612.67,17759.00,1359.00
258,833.56,741.55,2396.41,17475.00,1298.00
260,833.88,746.11,1467.41,16258.00,1302.00
262,834.20,750.66,1024.46,15415.00,1290.00
264,834.51,755.22,647.87,14665.00,1302.00
266,834.83,759.76,442.14,14276.00,1313.00
268,835.15,764.31,113.22,13689.00,1340.00
270,835.47,768.85,19.55,13393.00,1241.00
272,835.78,773.39,0.00,13279.00,1289.00
274,836.10,777.93,0.00,13182.00,1292.00
276,836.42,782.46,0.00,13140.00,1294.00
278,836.73,787.00,0.00,13044.00,1270.00
280,837.05,791.52,0.00,12992.00,1239.00
282,837.37,796.05,0.00,13000.00,1330.00
284,837.69,800.57,0.00,12956.00,1254.00
286,838.00,805.09,0.00,12926.00,1275.00
288,838.32,809.61,0.00,12928.00,1302.00
290,838.64,814.13,0.00,13101.00,1344.00
292,838.95,818.64,0.01,13063.00,1281.00
294,839.27,823.15,48.75,13342.00,1275.00
296,839.59,827.65,339.07,13708.00,1309.00
298,839.91,832.15,596.09,14373.00,1270.00
300,840.22,836.65,1315.05,16567.00,1397.00
302,840.54,841.15,3916.98,22095.00,1251.00
304,840.86,845.65,12490.46,33558.00,1376.00
306,841.18,850.14,19476.83,39926.00,1345.00
308,841.50,854.63,10013.45,31248.00,1495.00
310,841.81,859.11,3059.84,20875.00,1292.00
312,842.13,863.60,2212.02,18169.00,1306.00
314,842.45,868.07,3302.27,18754.00,1270.00
316,842.77,872.55,3804.40,19124.00,1336.00
318,843.08,877.03,2908.92,17989.00,1399.00
320,843.40,881.50,1260.73,15720.00,1239.00
322,843.72,885.97,213.76,14095.00,1344.00
324,844.04,890.43,17.68,13503.00,1252.00
326,844.36,894.89,6.72,13427.00,1277.00
328,844.67,899.35,168.50,14046.00,1330.00
330,844.99,903.81,1284.26,15998.00,1247.00
332,845.31,908.26,3589.96,19164.00,1336.00
334,845.63,912.71,4790.29,21192.00,1308.00
336,845.95,917.16,5429.75,22458.00,1328.00
338,846.27,921.61,6511.10,23929.00,2018.00
340,846.58,926.05,4597.25,20854.00,1300.00
342,846.90,930.49,1872.52,17418.00,1319.00
344,847.22,934.92,1410.94,16461.00,1281.00
346,847.54,939.36,2807.00,17832.00,1201.00
348,847.86,943.79,4097.11,18832.00,1247.00
350,848.18,948.21,2266.76,16928.00,1260.00
352,848.49,952.64,478.76,14536.00,1287.00
354,848.81,957.06,9.08,13304.00,1213.00
356,849.13,961.48,0.00,13112.00,1351.00
358,849.45,965.89,0.00,12894.00,1361.00
360,849.77,970.31,0.00,12926.00,1281.00
362,850.09,974.71,0.00,12983.00,1283.00
364,850.40,979.12,0.00,13294.00,1364.00
366,850.72,983.52,35.29,13934.00,1395.00
368,851.04,987.92,760.23,14830.00,1235.00
370,851.36,992.32,1276.05,15462.00,1237.00
372,851.68,996.72,971.68,15645.00,1327.00
374,852.00,1001.11,1060.27,16093.00,1258.00
376,852.32,1005.50,1960.77,17683.00,1224.00
378,852.63,1009.88,3624.50,20083.00,1387.00
380,852.95,1014.26,4942.49,21410.00,1319.00
382,853.27,1018.64,3248.59,19808.00,1327.00
384,853.59,1023.02,1368.23,17659.00,1271.00
386,853.91,1027.39,1295.07,18044.00,1237.00
388,854.23,1031.76,3904.29,22686.00,1256.00
390,854.55,1036.13,10058.06,29847.00,1281.00
392,854.87,1040.49,11211.81,31514.00,1254.00
394,855.18,1044.86,7165.04,27645.00,1317.00
396,855.50,1049.21,4802.33,23946.00,1283.00
398,855.82,1053.57,3986.28,22054.00,1327.00
400,856.14,1057.92,2889.40,20402.00,1285.00
402,856.46,1062.27,2224.68,19544.00,1283.00
404,856.78,1066.62,2590.45,19939.00,1224.00
406,857.10,1070.96,2965.74,20594.00,1239.00
408,857.42,1075.30,3437.56,21716.00,1353.00
410,857.74,1079.64,4347.55,23126.00,1270.00
412,858.06,1083.97,5116.73,24163.00,1252.00
414,858.37,1088.30,5353.97,24383.00,1243.00
416,858.69,1092.63,4252.72,23324.00,1233.00
418,859.01,1096.95,3062.13,21980.00,1230.00
420,859.33,1101.27,3873.78,22935.00,1271.00
422,859.65,1105.59,4807.45,24127.00,1287.00
424,859.97,1109.91,4401.20,24406.00,1232.00
426,860.29,1114.22,5414.28,26739.00,1260.00
428,860.61,1118.53,8646.53,31445.00,1237.00
430,860.93,1122.84,12338.06,36043.00,1279.00
432,861.25,1127.14,13202.05,37008.00,1353.00
434,861.56,1131.44,9377.59,32239.00,1258.00
436,861.88,1135.74,4856.91,25868.00,1254.00
438,862.20,1140.03,1894.06,21156.00,1285.00
440,862.52,1144.32,459.45,18690.00,1285.00
442,862.84,1148.61,104.72,17837.00,1319.00
444,863.16,1152.89,486.06,18834.00,1262.00
446,863.48,1157.17,2870.53,22025.00,1247.00
448,863.80,1161.45,5142.48,24303.00,1268.00
450,864.12,1165.73,3790.41,23305.00,1289.00
452,864.44,1170.00,2804.68,21661.00,1260.00
454,864.76,1174.27,2066.55,20311.00,1285.00
456,865.07,1178.53,203.57,18169.00,1220.00
458,865.39,1182.80,0.00,16789.00,1292.00
460,865.71,1187.06,0.00,16400.00,1287.00
462,866.03,1191.31,0.00,16542.00,1287.00
464,866.35,1195.57,0.00,17161.00,1262.00
466,866.67,1199.82,85.99,18378.00,1300.00
468,866.99,1204.06,1185.50,19825.00,1285.00
470,867.31,1208.31,1925.92,20784.00,1317.00
472,867.63,1212.55,1251.07,20497.00,1270.00
474,867.95,1216.79,413.73,19764.00,1218.00
476,868.27,1221.02,235.95,19867.00,1289.00
478,868.58,1225.25,800.35,21308.00,1216.00
480,868.90,1229.48,2411.98,24205.00,1313.00
482,869.22,1233.71,5180.84,28161.00,1311.00
484,869.54,1237.93,7680.00,31172.00,1378.00
486,869.86,1242.15,6213.81,29885.00,1283.00
488,870.18,1246.36,2978.62,26295.00,1222.00
490,870.50,1250.58,1288.05,23988.00,1302.00
492,870.82,1254.79,1155.72,23857.00,1383.00
494,871.14,1258.99,2162.35,25030.00,1285.00
496,871.46,1263.20,2757.44,25888.00,1313.00
498,871.78,1267.40,2045.32,25558.00,1268.00
500,872.10,1271.59,1653.51,25338.00,1249.00
502,872.41,1275.79,1924.78,25727.00,1249.00
504,872.73,1279.98,1939.27,25873.00,1281.00
506,873.05,1284.17,1422.11,25545.00,1336.00
508,873.37,1288.35,759.46,24814.00,1169.00
510,873.69,1292.53,515.95,24816.00,1239.00
512,874.01,1296.71,701.54,25150.00,1245.00
514,874.33,1300.88,1178.86,25720.00,1213.00
516,874.65,1305.06,1644.33,26488.00,1271.00
518,874.97,1309.22,1702.50,26823.00,1233.00
520,875.29,1313.39,1861.28,27426.00,1279.00
522,875.60,1317.55,2835.52,29053.00,1300.00
524,875.92,1321.71,4364.67,31067.00,1279.00
526,876.24,1325.87,5865.81,32975.00,1340.00
528,876.56,1330.02,5494.57,32799.00,1256.00
530,876.88,1334.17,4645.34,32320.00,1332.00
532,877.20,1338.32,4763.64,32719.00,1218.00
534,877.52,1342.46,6415.80,34912.00,1218.00
536,877.84,1346.60,8742.54,37511.00,1319.00
538,878.16,1350.73,9143.64,38116.00,1245.00
540,878.47,1354.87,7016.99,36282.00,1262.00
542,878.79,1359.00,6498.59,35804.00,1247.00
544,879.11,1363.13,7866.13,37063.00,1256.00
546,879.43,1367.25,8962.93,38221.00,1268.00
548,879.75,1371.37,8054.83,37454.00,1245.00
550,880.07,1375.49,7753.04,36954.00,1233.00
552,880.39,1379.60,7360.89,36077.00,1289.00
554,880.71,1383.71,5780.91,34054.00,1260.00
556,881.03,1387.82,4493.00,32286.00,1258.00
558,881.34,1391.93,3924.05,31244.00,1192.00
560,881.66,1396.03,3586.08,30779.00,1241.00
562,881.98,1400.13,3446.45,30673.00,1294.00
564,882.30,1404.22,3815.29,31094.00,1285.00
566,882.62,1408.31,4276.41,31601.00,1254.00
568,882.94,1412.40,4169.20,31700.00,1292.00
570,883.26,1416.49,4056.75,31677.00,1249.00
572,883.57,1420.57,4477.87,32197.00,1304.00
574,883.89,1424.65,4679.13,32356.00,1230.00
576,884.21,1428.73,4471.88,32303.00,1313.00
578,884.53,1432.80,4511.75,32402.00,1344.00
580,884.85,1436.87,4295.44,31935.00,1247.00
582,885.17,1440.93,3981.73,31464.00,1211.00
584,885.49,1445.00,3535.38,31056.00,1226.00
586,885.80,1449.06,3380.50,31428.00,1226.00
588,886.12,1453.11,4132.35,33243.00,1327.00
590,886.44,1457.17,8208.01,38272.00,1285.00
592,886.76,1461.22,13100.90,42591.00,1277.00
594,887.08,1465.26,10446.03,40592.00,1327.00
596,887.40,1469.31,5327.03,34864.00,1201.00
598,887.71,1473.35,3840.01,31977.00,1209.00
600,888.03,1477.38,3056.02,30306.00,1275.00
602,888.35,1481.42,1508.56,28404.00,1317.00
604,888.67,1485.45,633.21,27048.00,1287.00
606,888.99,1489.48,346.66,26454.00,1232.00
608,889.31,1493.50,190.60,26253.00,1298.00
610,889.62,1497.52,117.59,26001.00,1270.00
612,889.94,1501.54,194.58,25930.00,1201.00
614,890.26,1505.56,23.34,25628.00,1247.00
616,890.58,1509.57,147.47,25674.00,1247.00
618,890.90,1513.57,72.86,25463.00,1230.00
620,891.21,1517.58,180.19,25600.00,1270.00
622,891.53,1521.58,383.92,25647.00,1256.00
624,891.85,1525.58,450.87,25575.00,1271.00
626,892.17,1529.57,340.14,25372.00,1287.00
628,892.49,1533.57,394.44,25351.00,1302.00
630,892.80,1537.56,252.40,24947.00,1222.00
632,893.12,1541.54,374.51,24930.00,1237.00
634,893.44,1545.52,167.74,24613.00,1290.00
636,893.76,1549.50,116.06,24320.00,1209.00
638,894.07,1553.48,7.47,24123.00,1270.00
640,894.39,1557.45,0.00,23899.00,1235.00
642,894.71,1561.42,50.41,23933.00,1283.00
644,895.03,1565.39,129.60,23774.00,1199.00
646,895.34,1569.35,148.85,23819.00,1306.00
648,895.66,1573.31,89.90,23542.00,1235.00
650,895.98,1577.26,158.96,23491.00,1241.00
652,896.30,1581.22,152.60,23314.00,1209.00
654,896.61,1585.17,39.42,23134.00,1254.00
656,896.93,1589.11,16.70,23012.00,1309.00
658,897.25,1593.06,177.55,22978.00,1226.00
660,897.57,1597.00,4.10,22648.00,1266.00
662,897.88,1600.93,107.95,22680.00,1264.00
664,898.20,1604.87,212.95,22657.00,1268.00
666,898.52,1608.80,348.30,22674.00,1205.00
668,898.84,1612.72,439.46,22648.00,1197.00
670,899.15,1616.65,667.85,22851.00,1292.00
672,899.47,1620.57,663.08,22674.00,1228.00
674,899.79,1624.49,567.63,22485.00,1256.00
676,900.10,1628.40,722.04,22469.00,1213.00
678,900.42,1632.31,752.29,22418.00,1287.00
680,900.74,1636.22,591.97,22029.00,1186.00
682,901.05,1640.12,642.98,22160.00,1361.00
684,901.37,1644.02,781.77,22035.00,1249.00
686,901.69,1647.92,839.45,22008.00,1287.00
688,902.00,1651.82,805.53,21794.00,1237.00
690,902.32,1655.71,939.50,21782.00,1213.00
692,902.64,1659.60,1000.81,21773.00,1232.00
694,902.95,1663.48,979.88,21649.00,1287.00
696,903.27,1667.36,1057.09,21518.00,1237.00
698,903.59,1671.24,912.93,21292.00,1302.00
700,903.90,1675.11,797.36,21032.00,1290.00
702,904.22,1678.99,857.78,20842.00,1199.00
704,904.54,1682.85,848.23,20835.00,1374.00
706,904.85,1686.72,745.18,20465.00,1207.00
708,905.17,1690.58,677.02,20301.00,1258.00
710,905.49,1694.44,780.90,20216.00,1232.00
712,905.80,1698.29,907.74,20222.00,1241.00
714,906.12,1702.15,829.47,20036.00,1277.00
716,906.43,1706.00,874.21,19975.00,1283.00
718,906.75,1709.84,856.11,19810.00,1289.00
720,907.07,1713.68,680.52,19402.00,1224.00
722,907.38,1717.52,502.72,19102.00,1268.00
724,907.70,1721.36,553.16,18978.00,1243.00
726,908.01,1725.19,512.09,18794.00,1247.00
728,908.33,1729.02,397.33,18578.00,1308.00
730,908.65,1732.85,365.56,18344.00,1256.00
732,908.96,1736.67,466.06,18380.00,1290.00
734,909.28,1740.49,353.78,18059.00,1249.00
736,909.59,1744.30,376.14,17983.00,1285.00
738,909.91,1748.12,322.91,17750.00,1252.00
740,910.22,1751.93,372.22,17678.00,1275.00
742,910.54,1755.73,310.13,17606.00,1412.00
744,910.85,1759.54,122.56,17154.00,1292.00
746,911.17,1763.34,98.31,16951.00,1224.00
748,911.49,1767.13,23.05,16797.00,1289.00
750,911.80,1770.93,0.00,16487.00,1207.00
752,912.12,1774.72,12.04,16486.00,1289.00
754,912.43,1778.50,0.00,16233.00,1199.00
756,912.75,1782.29,102.14,16298.00,1199.00
758,913.06,1786.07,167.92,16214.00,1228.00
760,913.38,1789.84,139.70,16085.00,1247.00
762,913.69,1793.62,198.33,16070.00,1285.00
764,914.01,1797.39,147.95,15855.00,1264.00
766,914.32,1801.15,142.47,15671.00,1213.00
768,914.64,1804.92,88.67,15517.00,1226.00
770,914.95,1808.68,47.77,15426.00,1287.00
772,915.26,1812.44,53.44,15318.00,1304.00
774,915.58,1816.19,240.51,15265.00,1203.00
776,915.89,1819.94,263.47,15208.00,1245.00
778,916.21,1823.69,209.57,15084.00,1268.00
780,916.52,1827.43,416.18,15252.00,1345.00
782,916.84,1831.17,431.45,14997.00,1213.00
784,917.15,1834.91,395.86,14841.00,1203.00
786,917.47,1838.64,584.00,14957.00,1256.00
788,917.78,1842.38,454.93,14722.00,1273.00
790,918.09,1846.10,524.74,14635.00,1218.00
792,918.41,1849.83,629.74,14633.00,1266.00
794,918.72,1853.55,472.02,14259.00,1178.00
796,919.04,1857.27,486.03,14253.00,1249.00
798,919.35,1860.98,607.69,14219.00,1230.00
800,919.66,1864.69,635.16,14126.00,1241.00
802,919.98,1868.40,673.24,14094.00,1273.00
804,920.29,1872.11,756.54,14025.00,1241.00
806,920.60,1875.81,827.42,13978.00,1226.00
808,920.92,1879.51,863.77,13894.00,1237.00
810,921.23,1883.20,958.99,13902.00,1273.00
812,921.55,1886.90,902.49,13674.00,1199.00
814,921.86,1890.58,905.65,13634.00,1294.00
816,922.17,1894.27,977.90,13564.00,1287.00
818,922.49,1897.95,864.48,13308.00,1252.00
820,922.80,1901.63,918.53,13243.00,1258.00
822,923.11,1905.31,848.74,12994.00,1230.00
824,923.42,1908.98,854.03,12947.00,1281.00
826,923.74,1912.65,858.16,12823.00,1268.00
828,924.05,1916.31,893.72,12700.00,1226.00
830,924.36,1919.98,901.58,12579.00,1218.00
832,924.68,1923.64,995.85,12544.00,1218.00
834,924.99,1927.29,987.13,12411.00,1220.00
836,925.30,1930.94,970.69,12222.00,1171.00
838,925.61,1934.59,891.26,12068.00,1218.00
840,925.93,1938.24,848.12,11924.00,1241.00
842,926.24,1941.88,858.29,11808.00,1239.00
844,926.55,1945.52,709.32,11536.00,1232.00
846,926.86,1949.16,763.94,11493.00,1243.00
848,927.18,1952.79,711.29,11284.00,1215.00
850,927.49,1956.42,742.18,11193.00,1220.00
852,927.80,1960.05,782.64,11195.00,1309.00
854,928.11,1963.67,742.17,11012.00,1260.00
856,928.42,1967.29,716.50,10912.00,1296.00
858,928.74,1970.91,802.11,10804.00,1228.00
860,929.05,1974.52,813.38,10680.00,1216.00
862,929.36,1978.13,782.15,10538.00,1224.00
864,929.67,1981.74,751.85,10412.00,1237.00
866,929.98,1985.35,587.50,10122.00,1230.00
868,930.29,1988.95,554.06,9981.00,1239.00
870,930.61,1992.54,485.39,9773.00,1224.00
872,930.92,1996.14,399.41,9573.00,1222.00
874,931.23,1999.73,373.90,9499.00,1275.00
876,931.54,2003.32,361.16,9366.00,1266.00
878,931.85,2006.90,356.25,9211.00,1247.00
880,932.16,2010.48,334.87,9072.00,1228.00
882,932.47,2014.06,301.85,8924.00,1215.00
884,932.78,2017.63,386.74,8926.00,1262.00
886,933.09,2021.21,361.70,8772.00,1239.00
888,933.41,2024.77,236.99,8580.00,1279.00
890,933.72,2028.34,230.55,8525.00,1330.00
892,934.03,2031.90,157.98,8265.00,1254.00
894,934.34,2035.46,141.99,8186.00,1268.00
896,934.65,2039.01,0.00,7838.00,1215.00
898,934.96,2042.57,103.66,7924.00,1279.00
900,935.27,2046.11,0.00,7772.00,1340.00
902,935.58,2049.66,14.83,7525.00,1171.00
904,935.89,2053.20,47.81,7534.00,1247.00
906,936.20,2056.74,0.00,7341.00,1224.00
908,936.51,2060.28,0.00,7221.00,1228.00
910,936.82,2063.81,38.91,7261.00,1275.00
912,937.13,2067.34,61.93,7153.00,1247.00
914,937.44,2070.86,164.04,7109.00,1232.00
916,937.75,2074.39,54.09,6917.00,1188.00
918,938.06,2077.91,0.00,6771.00,1226.00
920,938.37,2081.42,0.00,6705.00,1252.00
922,938.68,2084.94,0.03,6621.00,1230.00
924,938.99,2088.45,0.00,6513.00,1232.00
926,939.30,2091.95,0.00,6473.00,1262.00
928,939.60,2095.46,1.76,6388.00,1237.00
930,939.91,2098.96,1.30,6361.00,1292.00
932,940.22,2102.45,92.29,6331.00,1241.00
934,940.53,2105.95,0.00,6130.00,1209.00
936,940.84,2109.44,45.39,6137.00,1232.00
938,941.15,2112.92,0.00,6021.00,1254.00
940,941.46,2116.41,86.05,6019.00,1220.00
942,941.77,2119.89,90.69,6019.00,1264.00
944,942.07,2123.37,0.00,5839.00,1241.00
946,942.38,2126.84,13.18,5811.00,1254.00
948,942.69,2130.31,0.00,5737.00,1266.00
950,943.00,2133.78,0.00,5685.00,1262.00
952,943.31,2137.24,28.03,5670.00,1262.00
954,943.62,2140.70,56.59,5625.00,1270.00
956,943.92,2144.16,0.00,5482.00,1237.00
958,944.23,2147.62,60.31,5495.00,1243.00
960,944.54,2151.07,43.89,5503.00,1290.00
962,944.85,2154.52,0.00,5423.00,1332.00
964,945.16,2157.96,26.44,5385.00,1296.00
966,945.46,2161.40,7.09,5294.00,1279.00
968,945.77,2164.84,0.00,5127.00,1177.00
970,946.08,2168.28,0.00,5173.00,1252.00
972,946.39,2171.71,14.64,5129.00,1226.00
974,946.69,2175.14,14.96,5101.00,1241.00
976,947.00,2178.57,0.00,4996.00,1224.00
978,947.31,2181.99,0.00,4962.00,1209.00
980,947.61,2185.41,26.84,4985.00,1230.00
982,947.92,2188.82,0.00,4943.00,1258.00
984,948.23,2192.24,1.25,4852.00,1188.00
986,948.53,2195.65,42.70,4915.00,1245.00
988,948.84,2199.05,0.00,4744.00,1150.00
990,949.15,2202.46,81.53,4882.00,1251.00
992,949.45,2205.86,0.00,4761.00,1249.00
994,949.76,2209.25,41.84,4759.00,1194.00
996,950.07,2212.65,118.43,4799.00,1226.00
998,950.37,2216.04,0.00,4637.00,1186.00
1000,950.68,2219.43,43.58,4715.00,1239.00
1002,950.98,2222.81,56.77,4711.00,1260.00
1004,951.29,2226.19,35.03,4613.00,1207.00
1006,951.60,2229.57,28.28,4582.00,1197.00
1008,951.90,2232.94,35.50,4571.00,1199.00
1010,952.21,2236.32,80.03,4588.00,1207.00
1012,952.51,2239.68,108.52,4607.00,1235.00
1014,952.82,2243.05,85.98,4497.00,1171.00
1016,953.12,2246.41,267.57,4727.00,1285.00
1018,953.43,2249.77,143.86,4681.00,1359.00
1020,953.73,2253.12,220.50,4634.00,1281.00
1022,954.04,2256.48,122.19,4413.00,1156.00
1024,954.34,2259.83,80.45,4493.00,1277.00
1026,954.65,2263.17,33.18,4349.00,1205.00
1028,954.95,2266.51,142.47,4410.00,1215.00
1030,955.26,2269.85,134.88,4444.00,1304.00
1032,955.56,2273.19,23.56,4328.00,1273.00
1034,955.87,2276.52,4.46,4286.00,1260.00
1036,956.17,2279.85,0.00,4282.00,1308.00
1038,956.48,2283.18,19.90,4174.00,1190.00
1040,956.78,2286.50,12.92,4144.00,1197.00
1042,957.08,2289.82,2.73,4085.00,1165.00
1044,957.39,2293.14,0.00,4142.00,1249.00
1046,957.69,2296.45,94.50,4119.00,1184.00
1048,957.99,2299.76,0.00,4157.00,1319.00
1050,958.30,2303.07,16.41,4108.00,1260.00
1052,958.60,2306.38,79.75,4096.00,1220.00
1054,958.91,2309.68,40.07,4060.00,1241.00
1056,959.21,2312.98,85.04,4020.00,1186.00
1058,959.51,2316.27,5.25,4001.00,1247.00
1060,959.82,2319.56,114.57,4110.00,1287.00
1062,960.12,2322.85,101.67,4009.00,1218.00
1064,960.42,2326.14,72.40,3963.00,1209.00
1066,960.72,2329.42,166.75,4039.00,1245.00
1068,961.03,2332.70,226.29,4062.00,1260.00
1070,961.33,2335.97,146.03,4003.00,1251.00
1072,961.63,2339.25,79.29,3906.00,1224.00
1074,961.93,2342.52,205.40,3965.00,1232.00
1076,962.24,2345.78,117.24,3916.00,1258.00
1078,962.54,2349.05,39.85,3832.00,1243.00
1080,962.84,2352.31,54.70,3832.00,1243.00
1082,963.14,2355.56,21.90,3743.00,1209.00
1084,963.45,2358.82,0.00,3713.00,1224.00
1086,963.75,2362.07,0.00,3732.00,1266.00
1088,964.05,2365.32,22.63,3823.00,1328.00
1090,964.35,2368.56,28.10,3713.00,1241.00
1092,964.65,2371.80,78.70,3755.00,1266.00
1094,964.95,2375.04,88.20,3728.00,1237.00
1096,965.25,2378.27,138.65,3719.00,1205.00
1098,965.56,2381.51,161.83,3760.00,1256.00
1100,965.86,2384.73,151.94,3720.00,1247.00
1102,966.16,2387.96,169.81,3690.00,1216.00
1104,966.46,2391.18,191.30,3779.00,1298.00
1106,966.76,2394.40,194.55,3690.00,1222.00
1108,967.06,2397.62,189.97,3762.00,1308.00
1110,967.36,2400.83,119.68,3618.00,1226.00
1112,967.66,2404.04,223.82,3728.00,1290.00
1114,967.96,2407.25,255.93,3589.00,1165.00
1116,968.26,2410.45,197.29,3635.00,1249.00
1118,968.56,2413.65,125.62,3559.00,1218.00
1120,968.86,2416.85,99.75,3627.00,1325.00
1122,969.16,2420.04,209.38,3578.00,1230.00
1124,969.46,2423.23,153.30,3510.00,1213.00
1126,969.76,2426.42,172.26,3538.00,1245.00
1128,970.06,2429.60,199.66,3470.00,1177.00
1130,970.36,2432.79,92.86,3439.00,1224.00
1132,970.66,2435.96,161.62,3458.00,1211.00
1134,970.96,2439.14,194.33,3470.00,1220.00
1136,971.26,2442.31,134.06,3487.00,1279.00
1138,971.56,2445.48,133.66,3420.00,1230.00
1140,971.86,2448.65,299.52,3457.00,1205.00
1142,972.16,2451.81,227.87,3455.00,1254.00
1144,972.45,2454.97,155.97,3402.00,1243.00
1146,972.75,2458.13,166.07,3400.00,1243.00
1148,973.05,2461.28,112.01,3335.00,1230.00
1150,973.35,2464.43,199.57,3390.00,1252.00
1152,973.65,2467.58,330.56,3415.00,1232.00
1154,973.95,2470.72,277.16,3402.00,1243.00
1156,974.24,2473.86,192.34,3335.00,1233.00
1158,974.54,2477.00,350.90,3362.00,1194.00
1160,974.84,2480.13,320.75,3360.00,1241.00
1162,975.14,2483.27,267.87,3320.00,1233.00
1164,975.43,2486.40,247.07,3259.00,1177.00
1166,975.73,2489.52,212.37,3267.00,1222.00
1168,976.03,2492.64,205.35,3229.00,1222.00
1170,976.33,2495.76,271.43,3265.00,1252.00
1172,976.62,2498.88,244.46,3206.00,1209.00
1174,976.92,2501.99,93.12,3196.00,1279.00
1176,977.22,2505.10,4.91,3111.00,1277.00
1178,977.51,2508.21,79.44,3096.00,1226.00
1180,977.81,2511.31,0.00,3054.00,1254.00
1182,978.11,2514.41,94.46,3086.00,1228.00
1184,978.40,2517.51,69.16,3062.00,1249.00
1186,978.70,2520.61,136.26,3060.00,1232.00
1188,979.00,2523.70,172.34,3103.00,1260.00
1190,979.29,2526.79,21.54,3005.00,1247.00
1192,979.59,2529.87,5.48,2969.00,1237.00
1194,979.88,2532.95,46.49,2934.00,1190.00
1196,980.18,2536.03,138.18,3031.00,1270.00
1198,980.48,2539.11,31.45,3020.00,1309.00
1200,980.77,2542.18,21.67,2948.00,1249.00
1202,981.07,2545.25,86.16,2999.00,1289.00
1204,981.36,2548.32,176.36,2959.00,1233.00
1206,981.66,2551.38,43.18,2974.00,1292.00
1208,981.95,2554.44,0.00,2885.00,1264.00
1210,982.25,2557.50,57.86,2957.00,1306.00
1212,982.54,2560.56,0.00,2912.00,1308.00
1214,982.84,2563.61,36.57,2950.00,1338.00
1216,983.13,2566.66,0.00,2897.00,1332.00
1218,983.43,2569.70,0.00,2868.00,1300.00
1220,983.72,2572.74,0.00,2843.00,1319.00
1222,984.01,2575.78,0.00,2824.00,1266.00
1224,984.31,2578.82,0.00,2779.00,1226.00
1226,984.60,2581.85,3.21,2824.00,1252.00
1228,984.90,2584.88,0.00,2785.00,1216.00
1230,985.19,2587.91,28.11,2830.00,1239.00
1232,985.48,2590.93,1.10,2879.00,1302.00
1234,985.78,2593.96,17.63,2885.00,1290.00
1236,986.07,2596.97,100.87,2891.00,1266.00
1238,986.36,2599.99,111.84,2971.00,1349.00
1240,986.66,2603.00,90.01,2955.00,1321.00
1242,986.95,2606.01,23.47,2912.00,1311.00
1244,987.24,2609.01,46.68,2900.00,1289.00
1246,987.54,2612.02,66.82,2786.00,1163.00
1248,987.83,2615.02,56.16,2921.00,1289.00
1250,988.12,2618.01,53.96,2953.00,1325.00
1252,988.41,2621.01,326.56,3039.00,1277.00
1254,988.71,2624.00,492.13,3037.00,1235.00
1256,989.00,2626.99,566.34,3128.00,1306.00
1258,989.29,2629.97,566.66,3102.00,1279.00
1260,989.58,2632.95,449.89,3107.00,1302.00
1262,989.87,2635.93,174.55,2993.00,1309.00
1264,990.16,2638.91,302.07,2971.00,1233.00
1266,990.46,2641.88,216.55,2984.00,1298.00
1268,990.75,2644.85,162.52,3024.00,1361.00
1270,991.04,2647.81,228.93,2957.00,1277.00
1272,991.33,2650.78,96.17,2897.00,1277.00
1274,991.62,2653.74,89.27,2916.00,1290.00
1276,991.91,2656.70,0.00,2834.00,1275.00
1278,992.20,2659.65,54.12,2900.00,1281.00
1280,992.49,2662.60,0.00,2824.00,1252.00
1282,992.78,2665.55,12.63,2936.00,1344.00
1284,993.07,2668.50,45.81,2950.00,1342.00
1286,993.36,2671.44,192.45,2999.00,1328.00
1288,993.65,2674.38,324.09,3075.00,1345.00
1290,993.94,2677.31,431.94,3045.00,1281.00
1292,994.23,2680.25,553.14,3064.00,1270.00
1294,994.52,2683.18,560.79,3096.00,1285.00
1296,994.81,2686.10,425.02,3084.00,1304.00
1298,995.10,2689.03,372.96,3065.00,1311.00
1300,995.39,2691.95,488.14,3037.00,1254.00
1302,995.68,2694.87,419.01,3092.00,1340.00
1304,995.97,2697.78,328.55,3067.00,1338.00
1306,996.26,2700.70,312.69,2957.00,1226.00
1308,996.55,2703.61,340.90,3026.00,1290.00
1310,996.84,2706.51,535.13,3128.00,1319.00
1312,997.13,2709.42,589.18,3136.00,1300.00
1314,997.41,2712.32,776.86,3233.00,1311.00
1316,997.70,2715.21,1051.85,3288.00,1268.00
1318,997.99,2718.11,1332.69,3402.00,1294.00
1320,998.28,2721.00,1653.56,3464.00,1251.00
1322,998.57,2723.89,1809.48,3586.00,1338.00
1324,998.86,2726.77,1824.59,3491.00,1258.00
1326,999.14,2729.66,1702.78,3487.00,1287.00
1328,999.43,2732.54,1181.86,3322.00,1279.00
1330,999.72,2735.41,943.97,3246.00,1277.00
1332,1000.01,2738.29,772.60,3215.00,1330.00
1334,1000.29,2741.16,650.37,3102.00,1287.00
1336,1000.58,2744.03,463.30,2991.00,1247.00
1338,1000.87,2746.89,340.44,3039.00,1330.00
1340,1001.15,2749.75,205.77,2933.00,1285.00
1342,1001.44,2752.61,347.47,2978.00,1290.00
1344,1001.73,2755.47,243.46,2897.00,1256.00
1346,1002.01,2758.32,195.07,2897.00,1279.00
1348,1002.30,2761.17,181.24,2948.00,1330.00
1350,1002.59,2764.02,31.16,2908.00,1340.00
1352,1002.87,2766.86,26.85,2853.00,1283.00
1354,1003.16,2769.70,0.00,2805.00,1281.00
1356,1003.44,2772.54,0.00,2764.00,1237.00
1358,1003.73,2775.38,0.00,2807.00,1287.00
1360,1004.01,2778.21,0.00,2752.00,1211.00
1362,1004.30,2781.04,27.52,2841.00,1283.00
1364,1004.58,2783.87,0.00,2794.00,1260.00
1366,1004.87,2786.69,0.07,2754.00,1192.00
1368,1005.15,2789.51,0.00,2878.00,1317.00
1370,1005.44,2792.33,0.00,2879.00,1308.00
1372,1005.72,2795.14,0.00,2931.00,1321.00
1374,1006.01,2797.95,0.00,2934.00,1327.00
1376,1006.29,2800.76,165.73,2969.00,1264.00
1378,1006.58,2803.57,0.00,3045.00,1378.00
1380,1006.86,2806.37,97.68,2995.00,1256.00
1382,1007.14,2809.17,118.87,3041.00,1277.00
1384,1007.43,2811.97,23.37,3018.00,1262.00
1386,1007.71,2814.77,195.81,3081.00,1237.00
1388,1008.00,2817.56,176.95,3113.00,1260.00
1390,1008.28,2820.35,207.78,3183.00,1313.00
1392,1008.56,2823.13,419.41,3196.00,1258.00
1394,1008.85,2825.91,171.38,3181.00,1279.00
1396,1009.13,2828.69,93.58,3187.00,1283.00
1398,1009.41,2831.47,97.40,3276.00,1311.00
1400,1009.69,2834.24,0.00,3117.00,1249.00
1402,1009.98,2837.02,0.00,3166.00,1264.00
1404,1010.26,2839.78,0.00,3282.00,1321.00
1406,1010.54,2842.55,0.00,3208.00,1245.00
1408,1010.82,2845.31,0.00,3276.00,1315.00
1410,1011.11,2848.07,0.00,3331.00,1308.00
1412,1011.39,2850.83,0.00,3365.00,1315.00
1414,1011.67,2853.58,0.00,3430.00,1300.00
1416,1011.95,2856.33,0.00,3515.00,1285.00
1418,1012.23,2859.08,0.00,3593.00,1281.00
1420,1012.51,2861.83,0.00,3648.00,1260.00
1422,1012.80,2864.57,4.22,3927.00,1382.00
1424,1013.08,2867.31,45.29,4028.00,1345.00
1426,1013.36,2870.04,224.45,4146.00,1327.00
1428,1013.64,2872.78,956.04,4377.00,1300.00
1430,1013.92,2875.51,2245.21,4740.00,1361.00
1432,1014.20,2878.24,3825.55,5057.00,1302.00
1434,1014.48,2880.96,5540.58,5488.00,1273.00
1436,1014.76,2883.68,7658.05,6057.00,1243.00
1438,1015.04,2886.40,10173.24,6743.00,1256.00
1440,1015.32,2889.12,14025.28,7719.00,1332.00
1442,1015.60,2891.83,18873.28,8579.00,1256.00
1444,1015.88,2894.54,23687.33,9492.00,1313.00
1446,1016.16,2897.25,24721.41,9685.00,1233.00
1448,1016.44,2899.96,22130.76,9558.00,1317.00
1450,1016.72,2902.66,19797.92,9368.00,1304.00
1452,1017.00,2905.36,21511.89,9940.00,1364.00
1454,1017.28,2908.06,27856.32,10925.00,1270.00
1456,1017.55,2910.75,38402.47,12510.00,1349.00
1458,1017.83,2913.44,43485.82,13021.00,1260.00
1460,1018.11,2916.13,36878.89,12142.00,1304.00
1462,1018.39,2918.81,27061.34,10593.00,1309.00
1464,1018.67,2921.49,22343.10,9600.00,1309.00
1466,1018.95,2924.17,22729.08,9366.00,1296.00
1468,1019.22,2926.85,24177.29,9359.00,1311.00
1470,1019.50,2929.52,24227.62,9215.00,1222.00
1472,1019.78,2932.20,23958.97,9353.00,1262.00
1474,1020.06,2934.86,24364.26,9516.00,1279.00
1476,1020.33,2937.53,28332.12,10173.00,1363.00
1478,1020.61,2940.19,35293.95,10893.00,1289.00
1480,1020.89,2942.85,39205.96,11217.00,1315.00
1482,1021.17,2945.51,32302.30,10130.00,1277.00
1484,1021.44,2948.16,20714.08,8379.00,1290.00
1486,1021.72,2950.81,13416.51,6986.00,1283.00
1488,1022.00,2953.46,11606.33,6445.00,1336.00
1490,1022.27,2956.11,12978.78,6302.00,1273.00
1492,1022.55,2958.75,14447.19,6390.00,1334.00
1494,1022.82,2961.39,13380.69,6166.00,1292.00
1496,1023.10,2964.03,11029.78,5875.00,1374.00
1498,1023.38,2966.66,11635.52,5839.00,1266.00
1500,1023.65,2969.29,13573.03,6027.00,1306.00
1502,1023.93,2971.92,14930.53,6175.00,1328.00
1504,1024.20,2974.55,12504.15,5890.00,1317.00
1506,1024.48,2977.17,9364.79,5456.00,1321.00
1508,1024.75,2979.79,10416.01,5541.00,1241.00
1510,1025.03,2982.41,14428.53,6067.00,1292.00
1512,1025.30,2985.02,17194.77,6342.00,1262.00
1514,1025.58,2987.63,15699.95,6242.00,1323.00
1516,1025.85,2990.24,14262.19,5923.00,1268.00
1518,1026.13,2992.85,17242.88,6226.00,1349.00
1520,1026.40,2995.45,17689.45,6046.00,1319.00
1522,1026.68,2998.05,11044.17,5190.00,1258.00
1524,1026.95,3000.65,4249.79,4326.00,1349.00
1526,1027.22,3003.25,1814.91,3766.00,1287.00
1528,1027.50,3005.84,1509.16,3569.00,1254.00
1530,1027.77,3008.43,2969.17,3774.00,1308.00
1532,1028.04,3011.02,6981.42,4155.00,1347.00
1534,1028.32,3013.60,12084.64,4446.00,1298.00
1536,1028.59,3016.18,9360.56,4132.00,1317.00
1538,1028.86,3018.76,3915.39,3487.00,1213.00
1540,1029.14,3021.34,882.51,3090.00,1304.00
1542,1029.41,3023.91,69.31,2691.00,1271.00
1544,1029.68,3026.48,2.76,2523.00,1249.00
1546,1029.95,3029.05,0.00,2445.00,1292.00
1548,1030.22,3031.61,0.00,2331.00,1287.00
1550,1030.50,3034.17,0.00,2245.00,1264.00
1552,1030.77,3036.73,0.00,2221.00,1252.00
1554,1031.04,3039.29,0.00,2223.00,1327.00
1556,1031.31,3041.84,0.00,2086.00,1207.00
1558,1031.58,3044.39,8.98,2240.00,1351.00
1560,1031.85,3046.94,0.00,2187.00,1349.00
1562,1032.13,3049.49,122.52,2092.00,1243.00
1564,1032.40,3052.03,15.56,2160.00,1340.00
1566,1032.67,3054.57,0.00,2031.00,1264.00
1568,1032.94,3057.11,0.00,2141.00,1374.00
1570,1033.21,3059.64,6.82,2018.00,1239.00
1572,1033.48,3062.18,175.07,2124.00,1327.00
1574,1033.75,3064.70,276.42,2097.00,1311.00
1576,1034.02,3067.23,87.10,2092.00,1338.00
1578,1034.29,3069.75,256.49,1999.00,1232.00
1580,1034.56,3072.28,400.04,2080.00,1302.00
1582,1034.83,3074.79,38.99,1972.00,1247.00
1584,1035.10,3077.31,32.11,2019.00,1300.00
1586,1035.37,3079.82,82.46,1983.00,1258.00
1588,1035.64,3082.33,0.00,2074.00,1383.00
1590,1035.91,3084.84,48.31,2016.00,1313.00
1592,1036.17,3087.34,125.15,1987.00,1275.00
1594,1036.44,3089.85,0.00,2061.00,1370.00
1596,1036.71,3092.35,0.00,1959.00,1279.00
1598,1036.98,3094.84,0.00,1944.00,1271.00
1600,1037.25,3097.34,0.00,1925.00,1249.00
1602,1037.52,3099.83,131.32,1976.00,1270.00
1604,1037.78,3102.32,180.89,1995.00,1287.00
1606,1038.05,3104.80,0.00,2027.00,1338.00
1608,1038.32,3107.29,37.00,1989.00,1287.00
1610,1038.59,3109.77,8.72,1987.00,1290.00
1612,1038.85,3112.24,0.00,1959.00,1289.00
1614,1039.12,3114.72,66.72,2046.00,1336.00
1616,1039.39,3117.19,68.81,1928.00,1211.00
1618,1039.66,3119.66,0.00,2042.00,1342.00
1620,1039.92,3122.13,0.00,2052.00,1342.00
1622,1040.19,3124.59,247.96,2040.00,1289.00
1624,1040.45,3127.05,198.80,2012.00,1254.00
1626,1040.72,3129.51,30.51,2084.00,1332.00
1628,1040.99,3131.97,4.10,2074.00,1319.00
1630,1041.25,3134.42,0.00,2124.00,1376.00
1632,1041.52,3136.87,34.88,2016.00,1237.00
1634,1041.78,3139.32,0.00,2050.00,1292.00
1636,1042.05,3141.77,0.00,2299.00,1501.00
1638,1042.32,3144.21,73.83,2107.00,1281.00
1640,1042.58,3146.65,38.34,2192.00,1361.00
1642,1042.85,3149.09,0.00,2152.00,1317.00
1644,1043.11,3151.52,9.80,2168.00,1309.00
1646,1043.38,3153.96,142.34,2228.00,1336.00
1648,1043.64,3156.39,0.00,2181.00,1294.00
1650,1043.90,3158.81,0.00,2207.00,1309.00
1652,1044.17,3161.24,197.52,2276.00,1328.00
1654,1044.43,3163.66,388.67,2217.00,1252.00
1656,1044.70,3166.08,246.81,2359.00,1391.00
1658,1044.96,3168.49,238.71,2302.00,1308.00
1660,1045.22,3170.91,14.51,2274.00,1294.00
1662,1045.49,3173.32,66.66,2310.00,1309.00
1664,1045.75,3175.73,298.06,2371.00,1334.00
1666,1046.01,3178.13,213.42,2331.00,1296.00
1668,1046.28,3180.54,816.10,2448.00,1351.00
1670,1046.54,3182.94,788.01,2466.00,1364.00
1672,1046.80,3185.34,287.06,2405.00,1340.00
1674,1047.07,3187.73,634.20,2388.00,1279.00
1676,1047.33,3190.12,1560.12,2496.00,1309.00
1678,1047.59,3192.51,1624.20,2502.00,1328.00
1680,1047.85,3194.90,2030.53,2616.00,1408.00
1682,1048.11,3197.29,2105.32,2591.00,1378.00
1684,1048.38,3199.67,2415.61,2597.00,1361.00
1686,1048.64,3202.05,2947.45,2654.00,1374.00
1688,1048.90,3204.43,3036.78,2593.00,1313.00
1690,1049.16,3206.80,3775.53,2636.00,1304.00
1692,1049.42,3209.17,4460.27,2716.00,1336.00
1694,1049.68,3211.54,4493.11,2688.00,1308.00
1696,1049.94,3213.91,4974.88,2733.00,1313.00
1698,1050.20,3216.27,5141.45,2769.00,1344.00
1700,1050.46,3218.63,5723.72,2866.00,1408.00
1702,1050.72,3220.99,6461.30,2822.00,1319.00
1704,1050.98,3223.35,6573.75,2830.00,1323.00
1706,1051.24,3225.70,6505.29,2817.00,1313.00
1708,1051.50,3228.05,6538.62,2807.00,1306.00
1710,1051.76,3230.40,7203.42,2919.00,1385.00
1712,1052.02,3232.75,8467.68,2940.00,1332.00
1714,1052.28,3235.09,8323.03,2961.00,1376.00
1716,1052.54,3237.43,8172.51,2908.00,1332.00
1718,1052.80,3239.77,7992.39,2878.00,1317.00
1720,1053.06,3242.11,9079.53,2952.00,1319.00
1722,1053.32,3244.44,9045.10,2898.00,1287.00
1724,1053.58,3246.77,9573.73,3035.00,1402.00
1726,1053.84,3249.10,9219.77,2934.00,1342.00
1728,1054.10,3251.42,9892.45,2969.00,1338.00
1730,1054.35,3253.75,10310.99,2948.00,1294.00
1732,1054.61,3256.07,10208.31,3005.00,1366.00
1734,1054.87,3258.39,10165.38,2938.00,1311.00
1736,1055.13,3260.70,10012.57,2917.00,1313.00
1738,1055.38,3263.01,10374.62,2916.00,1302.00
1740,1055.64,3265.32,10706.92,2946.00,1325.00
1742,1055.90,3267.63,11185.53,2917.00,1275.00
1744,1056.16,3269.94,10632.19,3007.00,1412.00
1746,1056.41,3272.24,10340.43,2959.00,1397.00
1748,1056.67,3274.54,11195.31,2952.00,1349.00
1750,1056.93,3276.84,10818.23,2910.00,1344.00
1752,1057.18,3279.13,10852.20,2879.00,1321.00
1754,1057.44,3281.42,10995.38,2847.00,1292.00
1756,1057.69,3283.71,11002.28,2841.00,1294.00
1758,1057.95,3286.00,9517.17,2859.00,1412.00
1760,1058.21,3288.28,10547.28,2815.00,1309.00
1762,1058.46,3290.57,9976.88,2826.00,1370.00
1764,1058.72,3292.85,9922.35,2794.00,1361.00
1766,1058.97,3295.12,11072.29,2764.00,1281.00
1768,1059.23,3297.40,10619.52,2722.00,1277.00
1770,1059.48,3299.67,10426.05,2803.00,1374.00
1772,1059.74,3301.94,10531.94,2699.00,1270.00
1774,1059.99,3304.21,9830.18,2743.00,1363.00
1776,1060.25,3306.47,10025.90,2785.00,1402.00
1778,1060.50,3308.73,10083.73,2678.00,1306.00
1780,1060.76,3310.99,10584.17,2690.00,1306.00
1782,1061.01,3313.25,11316.11,2737.00,1325.00
1784,1061.26,3315.50,10436.41,2661.00,1308.00
1786,1061.52,3317.76,11128.67,2731.00,1347.00
1788,1061.77,3320.01,10589.00,2716.00,1368.00
1790,1062.02,3322.25,10601.51,2648.00,1309.00
1792,1062.28,3324.50,10901.43,2671.00,1332.00
1794,1062.53,3326.74,11077.81,2600.00,1268.00
1796,1062.78,3328.98,11649.52,2663.00,1311.00
1798,1063.04,3331.22,10929.39,2616.00,1309.00
1800,1063.29,3333.45,11258.64,2616.00,1302.00
1802,1063.54,3335.68,11630.21,2608.00,1283.00
1804,1063.79,3337.91,10582.96,2614.00,1345.00
1806,1064.05,3340.14,10524.61,2682.00,1423.00
1808,1064.30,3342.36,10636.66,2526.00,1283.00
1810,1064.55,3344.59,11689.15,2617.00,1349.00
1812,1064.80,3346.81,11441.33,2538.00,1292.00
1814,1065.05,3349.02,9997.19,2490.00,1306.00
1816,1065.30,3351.24,8955.10,2505.00,1366.00
1818,1065.55,3353.45,9429.70,2464.00,1309.00
1820,1065.81,3355.66,9512.01,2555.00,1416.00
1822,1066.06,3357.87,10253.99,2473.00,1321.00
1824,1066.31,3360.07,10005.42,2403.00,1273.00
1826,1066.56,3362.27,9549.74,2479.00,1370.00
1828,1066.81,3364.47,8697.94,2365.00,1298.00
1830,1067.06,3366.67,10129.23,2448.00,1330.00
1832,1067.31,3368.87,9797.36,2397.00,1309.00
1834,1067.56,3371.06,9486.32,2302.00,1233.00
1836,1067.81,3373.25,8868.49,2295.00,1251.00
1838,1068.06,3375.44,9561.71,2335.00,1262.00
1840,1068.31,3377.62,9173.21,2325.00,1283.00
1842,1068.56,3379.81,9907.22,2300.00,1249.00
1844,1068.80,3381.99,10331.32,2456.00,1404.00
1846,1069.05,3384.16,9912.04,2359.00,1327.00
1848,1069.30,3386.34,9926.39,2325.00,1292.00
1850,1069.55,3388.51,9997.96,2306.00,1277.00
1852,1069.80,3390.68,10005.18,2323.00,1306.00
1854,1070.05,3392.85,9327.29,2397.00,1418.00
1856,1070.30,3395.02,9407.11,2295.00,1323.00
1858,1070.54,3397.18,9485.81,2236.00,1268.00
1860,1070.79,3399.34,8614.84,2259.00,1325.00
1862,1071.04,3401.50,8503.30,2232.00,1302.00
1864,1071.29,3403.66,8820.99,2156.00,1220.00
1866,1071.53,3405.81,8487.92,2226.00,1315.00
1868,1071.78,3407.96,8374.08,2185.00,1290.00
1870,1072.03,3410.11,8830.36,2230.00,1328.00
1872,1072.27,3412.26,8988.91,2209.00,1311.00
1874,1072.52,3414.40,7674.37,2141.00,1298.00
1876,1072.77,3416.54,8931.16,2162.00,1279.00
1878,1073.01,3418.68,8898.37,2226.00,1342.00
1880,1073.26,3420.82,7394.88,2033.00,1207.00
1882,1073.51,3422.96,8827.12,2175.00,1317.00
1884,1073.75,3425.09,8054.11,2126.00,1308.00
1886,1074.00,3427.22,7256.00,2042.00,1247.00
1888,1074.24,3429.35,5882.68,2137.00,1382.00
1890,1074.49,3431.47,5412.50,2012.00,1281.00
1892,1074.73,3433.59,7452.88,2016.00,1237.00
1894,1074.98,3435.71,7710.21,2116.00,1340.00
1896,1075.22,3437.83,5465.66,2006.00,1296.00
1898,1075.47,3439.95,4883.55,2033.00,1340.00
1900,1075.71,3442.06,5319.71,2050.00,1353.00
1902,1075.96,3444.17,5548.09,1976.00,1287.00
1904,1076.20,3446.28,5876.61,1833.00,1140.00
1906,1076.44,3448.38,4151.38,2038.00,1395.00
1908,1076.69,3450.49,3228.68,1966.00,1355.00
1910,1076.93,3452.59,3942.25,1934.00,1311.00
1912,1077.17,3454.69,4544.30,1915.00,1279.00
1914,1077.42,3456.79,3411.95,1906.00,1298.00
1916,1077.66,3458.88,2241.52,1860.00,1287.00
1918,1077.90,3460.97,3003.23,1849.00,1258.00
1920,1078.15,3463.06,3428.67,1947.00,1357.00
1922,1078.39,3465.15,3892.17,1887.00,1298.00
1924,1078.63,3467.23,3060.15,1799.00,1239.00
1926,1078.87,3469.32,4095.73,1906.00,1321.00
1928,1079.12,3471.40,1894.27,1805.00,1285.00
1930,1079.36,3473.47,2742.24,1961.00,1427.00
1932,1079.60,3475.55,2991.02,1778.00,1243.00
1934,1079.84,3477.62,1840.71,1831.00,1328.00
1936,1080.08,3479.69,1690.86,1773.00,1279.00
1938,1080.33,3481.76,2305.71,1744.00,1245.00
1940,1080.57,3483.83,3431.19,1813.00,1298.00
1942,1080.81,3485.89,1058.64,1771.00,1319.00
1944,1081.05,3487.95,1051.14,1807.00,1359.00
1946,1081.29,3490.01,1522.55,1778.00,1323.00
1948,1081.53,3492.07,2170.14,1723.00,1262.00
1950,1081.77,3494.12,1579.60,1710.00,1275.00
1952,1082.01,3496.18,2427.21,1771.00,1325.00
1954,1082.25,3498.23,1604.26,1689.00,1266.00
1956,1082.49,3500.27,3132.25,1731.00,1277.00
1958,1082.73,3502.32,2212.66,1670.00,1245.00
1960,1082.97,3504.36,2404.90,1727.00,1306.00
1962,1083.21,3506.40,1901.65,1668.00,1266.00
1964,1083.45,3508.44,1326.31,1609.00,1226.00
1966,1083.69,3510.48,2132.59,1794.00,1397.00
1968,1083.93,3512.51,1553.21,1682.00,1304.00
1970,1084.16,3514.54,1757.30,1655.00,1279.00
1972,1084.40,3516.57,1710.92,1644.00,1279.00
1974,1084.64,3518.60,2701.69,1625.00,1251.00
1976,1084.88,3520.62,2448.75,1695.00,1334.00
1978,1085.12,3522.65,2186.24,1712.00,1359.00
1980,1085.36,3524.67,542.69,1609.00,1294.00
1982,1085.59,3526.68,1554.14,1611.00,1279.00
1984,1085.83,3528.70,1189.70,1663.00,1345.00
1986,1086.07,3530.71,0.00,1562.00,1285.00
1988,1086.31,3532.72,684.83,1638.00,1342.00
1990,1086.54,3534.73,2136.97,1564.00,1245.00
1992,1086.78,3536.74,988.69,1674.00,1382.00
1994,1087.02,3538.74,360.77,1606.00,1330.00
1996,1087.25,3540.74,974.28,1516.00,1230.00
1998,1087.49,3542.74,2684.35,1617.00,1300.00
2000,1087.73,3544.74,1500.00,1566.00,1281.00
2002,1087.96,3546.74,3226.60,1588.00,1277.00
2004,1088.20,3548.73,1878.16,1647.00,1363.00
2006,1088.43,3550.72,2865.17,1600.00,1300.00
2008,1088.67,3552.71,3606.60,1596.00,1285.00
2010,1088.90,3554.69,2452.91,1505.00,1218.00
2012,1089.14,3556.68,2151.67,1604.00,1325.00
2014,1089.38,3558.66,2620.08,1545.00,1262.00
2016,1089.61,3560.64,5782.47,1581.00,1251.00
2018,1089.84,3562.62,7336.61,1649.00,1302.00
2020,1090.08,3564.59,3685.59,1556.00,1271.00
2022,1090.31,3566.56,6432.97,1568.00,1239.00
2024,1090.55,3568.53,5447.06,1581.00,1275.00
2026,1090.78,3570.50,4489.16,1505.00,1222.00
2028,1091.02,3572.47,5874.46,1524.00,1224.00
2030,1091.25,3574.43,6845.04,1541.00,1218.00
2032,1091.48,3576.39,1996.25,1421.00,1175.00
2034,1091.72,3578.35,2467.80,1425.00,1169.00
2036,1091.95,3580.31,787.88,1469.00,1254.00
2038,1092.18,3582.26,4042.91,1410.00,1156.00
2040,1092.42,3584.22,3612.17,1408.00,1167.00
2042,1092.65,3586.17,757.32,1425.00,1220.00
2044,1092.88,3588.12,951.88,1389.00,1169.00
2046,1093.11,3590.06,0.00,1357.00,1186.00
2047,1093.23,3591.03,44.23,1332.00,1133.00