File: plugins/Raman/MatchingLibrary/785X/sunflower oil.csv
ENLIGHTEN Version,4.1.22
Measurement ID,20250220-202058-672760-WP-01977
Serial Number,WP-01977
Model,WP-785X-F13-R-ILC
Detector,S16011-1106
Label,sunflower oil
Declared Match,
Declared Score,0
Scan Averaging,3
Boxcar,0
Technique,Raman
Baseline Correction Algo,AirPLS
ROI Pixel Start,47
ROI Pixel End,2047
ROI Start Line,0
ROI Stop Line,63
CCD C4,1.38617e-12
Slit Width,25
Cropped,True
Interpolated,False
Wavenumber Correction,-0.100481
Raman Intensity Corrected,True
Deconvolved,True
Region,
High Gain Mode,False
Laser Power mW,
Electrical Dark Correction,False
Battery %,
Device ID,<DeviceID USB:0x24aa:0x1000:0:1>
FW Version,10.0.0.10
FPGA Version,035-001
BLE Version,
Prefix,enlighten
Suffix,
Preset,
Auto-Raman,True
Session Count,0
Plugin Name,
Integration Time,368
Timestamp,2025-02-20 20:20:58.6728
Note,
Temperature,0
CCD C0,793.274
CCD C1,0.153259
CCD C2,1.40788e-05
CCD C3,-1.132e-08
CCD Offset,0
CCD Gain,1.9
CCD Offset Odd,0
CCD Gain Odd,1.9
Laser Wavelength,785.032
Laser Enable,False
Laser Power %,0
Laser Temperature,0
Pixel Count,2048

Pixel,Wavelength,Wavenumber,Processed,Raw,Dark
0,793.27,132.25,NA,1038.67,926.33
2,793.58,137.12,NA,1051.67,937.00
4,793.89,141.99,NA,1050.33,935.67
6,794.19,146.86,NA,1055.67,938.00
8,794.50,151.72,NA,1065.67,941.67
10,794.81,156.58,NA,1078.00,946.33
12,795.12,161.44,NA,1059.33,930.33
14,795.42,166.30,NA,1072.33,933.00
16,795.73,171.16,NA,1079.67,932.33
18,796.04,176.01,NA,1095.67,952.33
20,796.35,180.86,NA,1099.67,949.33
22,796.65,185.71,NA,1116.00,964.67
24,796.96,190.56,NA,1115.33,943.67
26,797.27,195.41,NA,1141.00,954.00
28,797.58,200.25,NA,1138.00,953.67
30,797.88,205.09,NA,1135.33,934.67
32,798.19,209.93,NA,1159.33,947.67
34,798.50,214.77,NA,1177.33,938.33
36,798.81,219.60,NA,1221.33,944.33
38,799.12,224.43,NA,1415.67,941.67
40,799.43,229.27,NA,2418.00,962.00
42,799.74,234.09,NA,6418.00,954.00
44,800.04,238.92,NA,12378.00,982.33
46,800.35,243.75,NA,14981.33,949.33
48,800.66,248.57,920.09,15367.33,967.33
50,800.97,253.39,858.26,15351.67,974.67
52,801.28,258.21,838.71,15412.00,973.00
54,801.59,263.02,748.60,15277.67,979.00
56,801.90,267.83,770.83,15226.67,962.67
58,802.21,272.65,638.13,15054.67,968.33
60,802.52,277.46,592.50,14962.00,965.33
62,802.83,282.26,535.21,14857.33,978.33
64,803.14,287.07,322.06,14591.67,976.33
66,803.45,291.87,286.95,14468.00,971.33
68,803.76,296.67,171.62,14299.67,983.33
70,804.07,301.47,147.61,14215.00,958.67
72,804.38,306.26,52.52,14055.67,952.00
74,804.69,311.06,62.99,14010.33,957.33
76,805.00,315.85,31.72,13932.33,957.00
78,805.31,320.64,0.00,13847.00,963.33
80,805.62,325.42,0.00,13756.33,971.33
82,805.93,330.21,0.00,13755.67,966.33
84,806.24,334.99,0.00,13664.67,952.00
86,806.55,339.77,0.00,13665.67,960.00
88,806.86,344.55,0.00,13679.33,964.67
90,807.17,349.32,23.80,13737.33,953.33
92,807.48,354.10,60.56,13731.00,960.00
94,807.80,358.87,88.40,13770.67,969.00
96,808.11,363.63,116.69,13801.33,963.33
98,808.42,368.40,261.76,13933.00,953.33
100,808.73,373.16,236.02,13894.67,961.67
102,809.04,377.93,273.38,13903.67,948.67
104,809.35,382.68,196.26,13799.33,957.00
106,809.66,387.44,96.10,13671.33,962.67
108,809.98,392.19,159.49,13712.67,945.00
110,810.29,396.95,228.33,13771.33,970.00
112,810.60,401.70,246.63,13754.67,955.00
114,810.91,406.44,254.34,13736.00,951.67
116,811.22,411.19,165.37,13628.33,966.67
118,811.54,415.93,159.70,13583.00,960.67
120,811.85,420.67,210.75,13591.33,944.33
122,812.16,425.41,187.84,13547.33,946.67
124,812.47,430.14,245.95,13568.00,954.67
126,812.79,434.87,153.36,13448.67,955.00
128,813.10,439.60,190.53,13448.67,943.67
130,813.41,444.33,175.89,13395.33,962.67
132,813.72,449.06,189.98,13377.33,951.33
134,814.04,453.78,157.32,13308.67,954.33
136,814.35,458.50,214.02,13336.67,942.33
138,814.66,463.22,206.77,13306.00,944.33
140,814.98,467.93,292.08,13357.33,945.67
142,815.29,472.65,264.06,13330.67,956.33
144,815.60,477.36,343.45,13404.00,960.33
146,815.92,482.06,364.94,13353.00,941.00
148,816.23,486.77,318.54,13284.00,960.00
150,816.54,491.47,322.96,13247.67,974.00
152,816.86,496.17,294.52,13136.00,941.67
154,817.17,500.87,207.30,13007.33,960.67
156,817.48,505.57,193.95,12923.67,952.67
158,817.80,510.26,218.49,12890.33,943.67
160,818.11,514.95,184.87,12826.33,956.33
162,818.42,519.64,202.83,12795.33,957.67
164,818.74,524.32,197.59,12725.00,946.33
166,819.05,529.00,140.51,12611.67,962.67
168,819.37,533.68,88.47,12491.00,957.33
170,819.68,538.36,64.62,12384.67,957.00
172,819.99,543.04,47.62,12354.67,967.67
174,820.31,547.71,0.00,12175.67,959.33
176,820.62,552.38,0.00,12089.00,942.67
178,820.94,557.05,0.00,12013.33,951.00
180,821.25,561.71,5.47,12062.67,935.00
182,821.57,566.37,0.00,12004.67,939.00
184,821.88,571.03,85.72,12160.33,945.00
186,822.20,575.69,206.21,12251.00,954.00
188,822.51,580.34,206.38,12271.00,948.00
190,822.83,584.99,284.35,12364.00,951.33
192,823.14,589.64,385.12,12467.33,952.67
194,823.46,594.29,472.74,12559.33,946.33
196,823.77,598.93,531.59,12630.67,945.67
198,824.09,603.57,568.79,12602.00,939.33
200,824.40,608.21,486.44,12463.67,951.33
202,824.72,612.85,355.60,12261.33,963.67
204,825.03,617.48,231.89,12029.00,959.00
206,825.35,622.11,103.80,11783.67,964.67
208,825.66,626.74,58.09,11680.33,958.33
210,825.98,631.36,0.00,11499.00,947.00
212,826.29,635.99,9.58,11493.33,954.00
214,826.61,640.61,0.00,11417.33,952.00
216,826.92,645.22,55.46,11467.67,949.33
218,827.24,649.84,0.00,11334.00,934.00
220,827.56,654.45,0.00,11265.67,956.33
222,827.87,659.06,0.00,11270.67,952.33
224,828.19,663.67,0.00,11243.00,947.67
226,828.50,668.27,0.00,11275.67,984.67
228,828.82,672.87,0.00,11190.33,963.33
230,829.13,677.47,0.00,11269.67,943.00
232,829.45,682.06,0.00,11298.33,954.67
234,829.77,686.66,29.24,11522.33,1028.33
236,830.08,691.25,83.25,11463.00,947.33
238,830.40,695.83,176.47,11647.67,946.00
240,830.72,700.42,249.96,11807.67,948.67
242,831.03,705.00,329.34,11932.33,923.33
244,831.35,709.58,509.38,12263.67,947.67
246,831.66,714.15,609.83,12434.67,931.00
248,831.98,718.73,788.04,12737.00,951.33
250,832.30,723.30,846.39,12836.00,943.33
252,832.61,727.87,839.20,12866.67,964.67
254,832.93,732.43,700.42,12628.00,917.67
256,833.25,736.99,580.71,12489.33,958.00
258,833.56,741.55,432.49,12258.00,942.67
260,833.88,746.11,184.34,11904.00,941.67
262,834.20,750.66,132.41,11826.67,948.33
264,834.51,755.22,153.83,11845.33,944.33
266,834.83,759.76,145.02,11864.00,954.00
268,835.15,764.31,152.88,11888.33,955.33
270,835.47,768.85,190.16,11914.00,937.33
272,835.78,773.39,147.09,11882.33,954.00
274,836.10,777.93,59.62,11774.33,947.33
276,836.42,782.46,2.19,11705.33,940.00
278,836.73,787.00,0.00,11647.67,943.00
280,837.05,791.52,0.00,11643.33,935.67
282,837.37,796.05,0.07,11765.33,950.00
284,837.69,800.57,70.15,11991.67,937.00
286,838.00,805.09,294.77,12315.67,941.00
288,838.32,809.61,466.73,12676.00,952.67
290,838.64,814.13,611.55,13029.00,955.67
292,838.95,818.64,899.36,13567.67,942.67
294,839.27,823.15,1336.30,14357.00,934.67
296,839.59,827.65,1937.20,15411.67,950.00
298,839.91,832.15,2717.34,16644.00,939.67
300,840.22,836.65,3301.97,17651.33,972.67
302,840.54,841.15,3585.71,18115.00,940.67
304,840.86,845.65,3562.23,18189.00,957.00
306,841.18,850.14,3298.72,17896.33,950.67
308,841.50,854.63,3031.74,17599.67,990.67
310,841.81,859.11,2946.65,17501.00,950.67
312,842.13,863.60,3127.31,17816.33,953.67
314,842.45,868.07,3486.36,18285.33,943.67
316,842.77,872.55,3658.01,18547.33,956.33
318,843.08,877.03,3491.91,18404.33,965.33
320,843.40,881.50,3135.45,17921.00,937.00
322,843.72,885.97,2887.62,17530.67,959.00
324,844.04,890.43,2698.92,17194.33,943.67
326,844.36,894.89,2340.83,16736.00,946.33
328,844.67,899.35,2205.31,16597.00,956.33
330,844.99,903.81,2313.70,16711.67,935.00
332,845.31,908.26,2495.36,16982.67,956.67
334,845.63,912.71,2583.69,17127.67,950.67
336,845.95,917.16,2474.00,16979.00,945.67
338,846.27,921.61,2123.32,16725.67,1155.67
340,846.58,926.05,1819.06,16115.00,947.67
342,846.90,930.49,1752.41,16035.67,955.00
344,847.22,934.92,1775.89,16049.67,947.67
346,847.54,939.36,1847.55,16170.67,931.33
348,847.86,943.79,1995.23,16414.33,936.33
350,848.18,948.21,2001.88,16481.00,937.33
352,848.49,952.64,1936.12,16493.67,944.00
354,848.81,957.06,2048.63,16722.67,928.00
356,849.13,961.48,2221.38,17119.00,969.00
358,849.45,965.89,2633.24,17734.67,952.67
360,849.77,970.31,3060.17,18223.33,944.33
362,850.09,974.71,2983.56,18032.67,948.67
364,850.40,979.12,2073.65,16852.33,950.67
366,850.72,983.52,1097.96,15444.33,970.67
368,851.04,987.92,543.52,14476.33,939.67
370,851.36,992.32,320.41,14068.67,932.67
372,851.68,996.72,256.37,13963.67,947.67
374,852.00,1001.11,353.97,14059.00,936.00
376,852.32,1005.50,462.00,14224.67,924.00
378,852.63,1009.88,645.98,14554.33,958.00
380,852.95,1014.26,907.89,14913.67,952.00
382,853.27,1018.64,1074.06,15170.00,952.00
384,853.59,1023.02,1154.26,15285.67,942.33
386,853.91,1027.39,1233.92,15401.00,927.33
388,854.23,1031.76,1231.69,15452.00,944.67
390,854.55,1036.13,1332.56,15589.00,943.33
392,854.87,1040.49,1482.52,15752.00,936.00
394,855.18,1044.86,1550.76,15883.00,947.67
396,855.50,1049.21,1539.89,15990.00,943.67
398,855.82,1053.57,1799.51,16580.00,955.00
400,856.14,1057.92,2628.83,17855.00,947.67
402,856.46,1062.27,3946.03,19580.67,938.00
404,856.78,1066.62,4437.56,20469.67,936.00
406,857.10,1070.96,4508.76,20860.33,933.67
408,857.42,1075.30,4901.23,21418.00,956.67
410,857.74,1079.64,5175.07,21686.00,937.00
412,858.06,1083.97,5013.47,21374.00,934.00
414,858.37,1088.30,4506.35,20540.33,931.67
416,858.69,1092.63,3749.73,19388.33,936.00
418,859.01,1096.95,2968.32,18169.00,932.67
420,859.33,1101.27,2507.45,17366.00,946.33
422,859.65,1105.59,2314.92,16909.33,938.33
424,859.97,1109.91,2188.42,16566.00,929.00
426,860.29,1114.22,1912.05,16100.67,938.00
428,860.61,1118.53,1563.98,15485.33,929.67
430,860.93,1122.84,1233.50,14841.67,936.00
432,861.25,1127.14,672.80,14060.00,953.00
434,861.56,1131.44,151.35,13218.33,933.00
436,861.88,1135.74,29.63,12889.67,934.67
438,862.20,1140.03,1.96,12772.00,934.33
440,862.52,1144.32,0.84,12761.00,947.00
442,862.84,1148.61,0.00,12657.00,947.67
444,863.16,1152.89,0.00,12616.33,939.67
446,863.48,1157.17,0.00,12648.67,936.00
448,863.80,1161.45,0.00,12599.33,941.33
450,864.12,1165.73,0.00,12673.00,944.33
452,864.44,1170.00,0.00,12671.00,935.33
454,864.76,1174.27,0.00,12740.67,938.33
456,865.07,1178.53,0.00,12791.67,931.00
458,865.39,1182.80,0.00,12960.00,942.33
460,865.71,1187.06,0.00,13073.33,940.33
462,866.03,1191.31,57.14,13269.00,947.33
464,866.35,1195.57,77.16,13375.67,934.67
466,866.67,1199.82,9.81,13430.00,946.33
468,866.99,1204.06,2.16,13493.33,940.00
470,867.31,1208.31,15.16,13640.33,955.33
472,867.63,1212.55,200.70,14000.33,943.00
474,867.95,1216.79,356.45,14216.33,927.33
476,868.27,1221.02,450.30,14505.00,940.33
478,868.58,1225.25,607.54,14854.00,932.00
480,868.90,1229.48,898.31,15394.33,949.33
482,869.22,1233.71,1201.09,15959.00,952.67
484,869.54,1237.93,1608.74,16796.33,963.33
486,869.86,1242.15,2311.44,18072.00,948.33
488,870.18,1246.36,3527.84,20065.00,933.00
490,870.50,1250.58,4974.42,22381.33,942.33
492,870.82,1254.79,6621.42,24972.00,970.00
494,871.14,1258.99,8020.97,27108.67,947.67
496,871.46,1263.20,8909.48,28512.33,949.00
498,871.78,1267.40,9035.78,28745.67,941.33
500,872.10,1271.59,8372.98,27863.67,937.33
502,872.41,1275.79,7277.36,26365.33,937.67
504,872.73,1279.98,6356.73,25058.33,941.00
506,873.05,1284.17,5648.02,24181.00,949.33
508,873.37,1288.35,5650.67,24406.33,921.00
510,873.69,1292.53,6846.49,26268.00,934.00
512,874.01,1296.71,8991.80,29050.00,935.00
514,874.33,1300.88,10821.63,31193.00,924.67
516,874.65,1305.06,10285.41,30658.00,939.67
518,874.97,1309.22,8156.72,28089.67,927.67
520,875.29,1313.39,6211.46,25348.33,946.33
522,875.60,1317.55,5109.69,23414.67,941.00
524,875.92,1321.71,4412.10,22046.67,937.67
526,876.24,1325.87,3463.19,20628.00,951.33
528,876.56,1330.02,2446.56,19202.67,938.33
530,876.88,1334.17,1761.97,18205.33,947.00
532,877.20,1338.32,1480.99,17695.33,928.67
534,877.52,1342.46,1402.66,17511.00,927.67
536,877.84,1346.60,1435.65,17563.00,945.67
538,878.16,1350.73,1291.96,17413.33,932.33
540,878.47,1354.87,1202.26,17368.00,934.67
542,878.79,1359.00,1210.30,17392.00,939.67
544,879.11,1363.13,1318.70,17525.67,942.67
546,879.43,1367.25,1266.64,17441.67,937.33
548,879.75,1371.37,1026.14,17153.00,937.67
550,880.07,1375.49,663.18,16686.67,935.33
552,880.39,1379.60,382.26,16312.00,937.33
554,880.71,1383.71,160.59,16057.00,933.67
556,881.03,1387.82,99.40,15985.33,931.67
558,881.34,1391.93,271.82,16242.00,924.67
560,881.66,1396.03,815.22,16816.00,931.67
562,881.98,1400.13,1261.04,17257.67,946.33
564,882.30,1404.22,1231.70,17332.00,943.00
566,882.62,1408.31,1100.48,17262.67,933.00
568,882.94,1412.40,1586.65,17935.33,944.33
570,883.26,1416.49,2479.53,19064.33,933.67
572,883.57,1420.57,3202.57,20354.67,950.00
574,883.89,1424.65,4227.67,22476.67,929.33
576,884.21,1428.73,6976.69,26983.67,960.67
578,884.53,1432.80,12313.95,33955.00,957.33
580,884.85,1436.87,17658.75,40178.33,934.00
582,885.17,1440.93,18885.42,42123.67,924.00
584,885.49,1445.00,16569.85,39978.67,934.67
586,885.80,1449.06,14240.09,36907.67,934.00
588,886.12,1453.11,12789.48,34273.00,951.33
590,886.44,1457.17,11590.90,31900.67,946.33
592,886.76,1461.22,9632.97,28894.33,940.33
594,887.08,1465.26,7258.17,25471.33,951.33
596,887.40,1469.31,5116.15,22191.00,926.00
598,887.71,1473.35,3459.60,19621.00,927.33
600,888.03,1477.38,2229.88,17644.33,941.00
602,888.35,1481.42,1501.50,16385.00,950.33
604,888.67,1485.45,1028.24,15506.67,947.67
606,888.99,1489.48,773.60,14975.67,932.67
608,889.31,1493.50,511.10,14494.00,941.67
610,889.62,1497.52,358.93,14143.67,944.67
612,889.94,1501.54,223.28,13882.67,918.00
614,890.26,1505.56,29.12,13552.00,933.33
616,890.58,1509.57,0.00,13295.67,935.00
618,890.90,1513.57,0.00,13219.67,930.33
620,891.21,1517.58,2.94,13140.33,939.67
622,891.53,1521.58,6.02,13039.33,937.00
624,891.85,1525.58,60.28,13004.33,935.33
626,892.17,1529.57,81.71,12911.33,943.67
628,892.49,1533.57,6.16,12715.33,937.33
630,892.80,1537.56,25.50,12624.67,934.33
632,893.12,1541.54,7.48,12510.33,931.67
634,893.44,1545.52,0.00,12376.00,946.00
636,893.76,1549.50,0.00,12212.67,924.67
638,894.07,1553.48,0.00,12129.33,945.00
640,894.39,1557.45,0.00,12111.00,930.00
642,894.71,1561.42,0.00,11951.33,943.67
644,895.03,1565.39,0.00,11925.00,920.33
646,895.34,1569.35,0.00,11912.33,951.33
648,895.66,1573.31,27.46,11912.33,930.33
650,895.98,1577.26,2.07,11833.67,929.33
652,896.30,1581.22,0.00,11774.33,929.67
654,896.61,1585.17,0.00,11685.00,938.00
656,896.93,1589.11,0.00,11705.67,942.67
658,897.25,1593.06,0.00,11585.33,929.67
660,897.57,1597.00,3.10,11643.67,934.67
662,897.88,1600.93,0.00,11583.67,933.00
664,898.20,1604.87,22.99,11654.67,941.00
666,898.52,1608.80,119.19,11736.00,929.33
668,898.84,1612.72,277.23,11905.33,924.67
670,899.15,1616.65,556.09,12247.33,941.67
672,899.47,1620.57,790.64,12537.67,927.33
674,899.79,1624.49,1138.31,13007.67,941.00
676,900.10,1628.40,1635.78,13643.67,930.67
678,900.42,1632.31,2193.12,14414.33,945.00
680,900.74,1636.22,2937.45,15451.67,924.00
682,901.05,1640.12,3782.38,16976.00,963.33
684,901.37,1644.02,5464.00,19794.33,932.33
686,901.69,1647.92,9096.65,24880.00,940.33
688,902.00,1651.82,15042.02,31661.67,939.00
690,902.32,1655.71,20723.01,36833.67,928.67
692,902.64,1659.60,20156.98,35961.67,931.67
694,902.95,1663.48,12682.93,28651.00,949.67
696,903.27,1667.36,6147.49,20800.67,933.67
698,903.59,1671.24,2983.63,15876.00,948.00
700,903.90,1675.11,1616.41,13353.67,941.67
702,904.22,1678.99,928.10,12072.67,923.67
704,904.54,1682.85,551.40,11435.00,967.00
706,904.85,1686.72,337.93,11026.67,930.67
708,905.17,1690.58,207.36,10782.33,939.67
710,905.49,1694.44,161.92,10630.33,930.67
712,905.80,1698.29,122.97,10526.33,933.33
714,906.12,1702.15,63.06,10394.33,944.33
716,906.43,1706.00,30.34,10282.00,948.33
718,906.75,1709.84,10.39,10192.33,950.00
720,907.07,1713.68,2.49,10081.33,929.00
722,907.38,1717.52,8.34,10034.67,943.67
724,907.70,1721.36,69.87,10058.00,932.33
726,908.01,1725.19,207.70,10189.67,937.67
728,908.33,1729.02,437.49,10462.33,948.67
730,908.65,1732.85,968.25,11073.00,941.00
732,908.96,1736.67,1716.47,11898.33,942.67
734,909.28,1740.49,2441.12,12663.00,931.00
736,909.59,1744.30,3104.86,13306.33,945.00
738,909.91,1748.12,3228.36,13309.33,935.33
740,910.22,1751.93,2754.92,12694.00,938.33
742,910.54,1755.73,1890.47,11688.00,969.00
744,910.85,1759.54,1077.49,10644.33,946.33
746,911.17,1763.34,454.01,9739.00,932.67
748,911.49,1767.13,150.91,9202.67,937.33
750,911.80,1770.93,25.24,8945.00,927.33
752,912.12,1774.72,0.00,8745.00,939.33
754,912.43,1778.50,0.00,8652.33,925.33
756,912.75,1782.29,2.38,8605.67,926.67
758,913.06,1786.07,11.01,8543.33,926.00
760,913.38,1789.84,16.10,8492.00,935.00
762,913.69,1793.62,30.45,8449.67,947.00
764,914.01,1797.39,56.06,8382.33,932.67
766,914.32,1801.15,9.68,8271.00,930.67
768,914.64,1804.92,0.00,8171.00,925.67
770,914.95,1808.68,0.00,8119.33,939.33
772,915.26,1812.44,0.00,8034.67,945.00
774,915.58,1816.19,4.24,8006.33,924.00
776,915.89,1819.94,1.80,7961.67,940.33
778,916.21,1823.69,23.08,7931.33,935.33
780,916.52,1827.43,83.63,7956.00,951.33
782,916.84,1831.17,48.28,7846.00,927.00
784,917.15,1834.91,138.80,7889.67,925.33
786,917.47,1838.64,143.53,7833.67,933.67
788,917.78,1842.38,146.91,7787.00,929.00
790,918.09,1846.10,93.96,7673.67,929.33
792,918.41,1849.83,64.87,7601.00,937.33
794,918.72,1853.55,65.90,7526.33,922.00
796,919.04,1857.27,104.89,7520.33,936.33
798,919.35,1860.98,66.09,7420.67,927.33
800,919.66,1864.69,74.37,7393.33,933.00
802,919.98,1868.40,123.82,7394.67,938.67
804,920.29,1872.11,216.34,7420.33,933.67
806,920.60,1875.81,199.45,7347.33,924.00
808,920.92,1879.51,178.16,7288.67,930.67
810,921.23,1883.20,188.75,7257.00,937.33
812,921.55,1886.90,202.44,7190.67,922.00
814,921.86,1890.58,235.23,7185.67,947.00
816,922.17,1894.27,165.78,7066.00,940.33
818,922.49,1897.95,156.79,7008.33,939.33
820,922.80,1901.63,123.61,6901.67,931.33
822,923.11,1905.31,130.54,6853.33,930.67
824,923.42,1908.98,129.54,6810.33,941.00
826,923.74,1912.65,125.57,6758.67,942.33
828,924.05,1916.31,144.52,6717.67,934.00
830,924.36,1919.98,159.61,6662.00,921.67
832,924.68,1923.64,218.97,6678.67,924.67
834,924.99,1927.29,160.55,6565.00,924.00
836,925.30,1930.94,204.45,6554.67,919.67
838,925.61,1934.59,164.11,6475.67,931.67
840,925.93,1938.24,154.02,6410.00,932.00
842,926.24,1941.88,128.68,6334.67,933.67
844,926.55,1945.52,113.70,6256.00,922.67
846,926.86,1949.16,92.34,6194.00,938.00
848,927.18,1952.79,87.72,6134.00,928.00
850,927.49,1956.42,75.95,6070.67,928.67
852,927.80,1960.05,86.45,6076.67,983.00
854,928.11,1963.67,91.58,5986.67,934.00
856,928.42,1967.29,92.77,5952.33,942.00
858,928.74,1970.91,85.60,5876.33,931.67
860,929.05,1974.52,114.13,5855.00,929.67
862,929.36,1978.13,54.37,5749.33,931.00
864,929.67,1981.74,51.26,5699.67,934.00
866,929.98,1985.35,58.01,5651.67,935.67
868,930.29,1988.95,52.55,5598.00,933.00
870,930.61,1992.54,33.93,5527.00,920.67
872,930.92,1996.14,24.31,5473.00,931.67
874,931.23,1999.73,9.56,5425.33,939.67
876,931.54,2003.32,0.00,5332.33,935.33
878,931.85,2006.90,3.42,5322.00,934.00
880,932.16,2010.48,13.61,5274.33,928.00
882,932.47,2014.06,51.02,5257.33,925.33
884,932.78,2017.63,27.73,5202.67,934.67
886,933.09,2021.21,9.61,5143.00,934.33
888,933.41,2024.77,16.17,5112.67,939.00
890,933.72,2028.34,15.14,5076.67,950.67
892,934.03,2031.90,23.14,5032.00,940.67
894,934.34,2035.46,0.35,4972.33,944.33
896,934.65,2039.01,0.00,4895.00,928.67
898,934.96,2042.57,0.00,4875.33,944.67
900,935.27,2046.11,15.51,4874.00,953.00
902,935.58,2049.66,0.00,4775.67,915.33
904,935.89,2053.20,0.00,4755.67,936.00
906,936.20,2056.74,1.14,4738.67,936.67
908,936.51,2060.28,19.78,4717.00,934.00
910,936.82,2063.81,0.00,4648.00,938.33
912,937.13,2067.34,23.22,4677.33,938.33
914,937.44,2070.86,57.69,4656.00,936.00
916,937.75,2074.39,10.54,4583.33,919.67
918,938.06,2077.91,7.15,4557.67,927.33
920,938.37,2081.42,47.80,4554.33,929.67
922,938.68,2084.94,1.64,4491.67,927.33
924,938.99,2088.45,0.00,4445.33,931.33
926,939.30,2091.95,0.00,4430.00,938.67
928,939.60,2095.46,1.41,4413.00,929.33
930,939.91,2098.96,0.00,4382.00,947.67
932,940.22,2102.45,6.91,4380.67,940.67
934,940.53,2105.95,11.32,4344.67,921.33
936,940.84,2109.44,14.08,4335.00,931.67
938,941.15,2112.92,41.45,4342.00,932.33
940,941.46,2116.41,22.19,4305.67,933.33
942,941.77,2119.89,8.96,4275.00,940.67
944,942.07,2123.37,55.70,4275.00,928.00
946,942.38,2126.84,25.76,4252.00,938.33
948,942.69,2130.31,0.00,4178.67,935.33
950,943.00,2133.78,12.47,4192.00,932.33
952,943.31,2137.24,0.00,4149.00,934.67
954,943.62,2140.70,0.26,4140.33,933.67
956,943.92,2144.16,7.60,4124.33,924.00
958,944.23,2147.62,30.30,4127.33,930.00
960,944.54,2151.07,26.10,4121.67,948.33
962,944.85,2154.52,47.22,4125.33,950.67
964,945.16,2157.96,2.82,4065.33,946.33
966,945.46,2161.40,59.35,4107.67,941.67
968,945.77,2164.84,110.53,4084.33,912.67
970,946.08,2168.28,83.20,4074.67,933.67
972,946.39,2171.71,72.81,4053.67,931.67
974,946.69,2175.14,121.17,4075.00,933.67
976,947.00,2178.57,165.11,4084.33,929.00
978,947.31,2181.99,170.98,4076.67,924.67
980,947.61,2185.41,192.05,4089.33,936.67
982,947.92,2188.82,192.10,4064.00,939.67
984,948.23,2192.24,208.44,4052.67,927.67
986,948.53,2195.65,150.85,3997.00,933.00
988,948.84,2199.05,181.99,3988.33,915.33
990,949.15,2202.46,121.48,3932.33,931.67
992,949.45,2205.86,131.93,3925.00,937.67
994,949.76,2209.25,132.38,3890.00,922.67
996,950.07,2212.65,91.72,3854.00,929.33
998,950.37,2216.04,98.29,3831.00,918.00
1000,950.68,2219.43,101.59,3817.67,927.67
1002,950.98,2222.81,92.28,3800.00,934.33
1004,951.29,2226.19,91.51,3776.33,927.33
1006,951.60,2229.57,83.38,3749.00,920.33
1008,951.90,2232.94,98.32,3746.00,924.00
1010,952.21,2236.32,116.58,3739.33,924.67
1012,952.51,2239.68,117.87,3736.67,932.67
1014,952.82,2243.05,84.70,3671.67,914.00
1016,953.12,2246.41,107.14,3697.00,945.67
1018,953.43,2249.77,75.80,3680.67,958.00
1020,953.73,2253.12,37.23,3617.67,941.00
1022,954.04,2256.48,45.63,3568.67,912.00
1024,954.34,2259.83,80.34,3599.67,937.67
1026,954.65,2263.17,38.11,3547.00,926.33
1028,954.95,2266.51,41.24,3545.67,938.00
1030,955.26,2269.85,49.56,3531.33,943.00
1032,955.56,2273.19,49.59,3517.00,936.00
1034,955.87,2276.52,11.57,3475.00,938.00
1036,956.17,2279.85,7.34,3454.00,942.00
1038,956.48,2283.18,37.51,3438.00,916.33
1040,956.78,2286.50,2.65,3402.33,926.67
1042,957.08,2289.82,32.11,3403.67,918.67
1044,957.39,2293.14,34.57,3402.67,933.67
1046,957.69,2296.45,77.71,3401.33,919.33
1048,957.99,2299.76,47.91,3394.33,948.33
1050,958.30,2303.07,65.20,3390.33,941.00
1052,958.60,2306.38,37.93,3349.00,935.67
1054,958.91,2309.68,48.08,3335.33,934.00
1056,959.21,2312.98,21.04,3291.00,926.67
1058,959.51,2316.27,46.58,3303.67,926.00
1060,959.82,2319.56,0.00,3252.00,947.33
1062,960.12,2322.85,40.93,3256.67,927.33
1064,960.42,2326.14,19.82,3233.33,919.00
1066,960.72,2329.42,0.00,3209.00,933.67
1068,961.03,2332.70,2.64,3204.33,936.33
1070,961.33,2335.97,3.30,3187.00,936.00
1072,961.63,2339.25,23.58,3180.00,927.00
1074,961.93,2342.52,52.32,3180.33,922.67
1076,962.24,2345.78,57.98,3180.00,931.00
1078,962.54,2349.05,18.80,3151.67,933.33
1080,962.84,2352.31,16.86,3129.00,930.00
1082,963.14,2355.56,25.13,3105.67,922.00
1084,963.45,2358.82,33.11,3111.67,927.33
1086,963.75,2362.07,3.30,3083.67,935.67
1088,964.05,2365.32,20.76,3101.67,950.33
1090,964.35,2368.56,0.56,3058.00,936.33
1092,964.65,2371.80,3.25,3052.33,938.00
1094,964.95,2375.04,39.28,3049.33,926.00
1096,965.25,2378.27,30.61,3028.67,922.67
1098,965.56,2381.51,22.15,3025.00,930.67
1100,965.86,2384.73,39.59,3031.00,929.67
1102,966.16,2387.96,35.79,3008.33,928.33
1104,966.46,2391.18,53.98,3020.00,945.00
1106,966.76,2394.40,52.27,2997.67,928.67
1108,967.06,2397.62,36.09,2992.67,939.00
1110,967.36,2400.83,18.56,2953.33,929.33
1112,967.66,2404.04,73.99,2987.00,945.67
1114,967.96,2407.25,46.97,2947.00,920.67
1116,968.26,2410.45,13.09,2922.67,930.00
1118,968.56,2413.65,67.82,2943.33,922.00
1120,968.86,2416.85,78.55,2952.67,949.33
1122,969.16,2420.04,82.44,2932.67,932.67
1124,969.46,2423.23,82.72,2915.33,921.33
1126,969.76,2426.42,121.12,2941.67,933.67
1128,970.06,2429.60,124.56,2912.33,918.67
1130,970.36,2432.79,129.79,2915.00,930.67
1132,970.66,2435.96,100.83,2890.00,929.00
1134,970.96,2439.14,100.58,2881.33,933.67
1136,971.26,2442.31,136.77,2885.67,935.00
1138,971.56,2445.48,68.71,2835.67,930.67
1140,971.86,2448.65,41.03,2806.00,924.00
1142,972.16,2451.81,45.19,2812.67,941.33
1144,972.45,2454.97,56.07,2792.00,932.33
1146,972.75,2458.13,46.65,2777.33,929.33
1148,973.05,2461.28,8.95,2735.00,921.00
1150,973.35,2464.43,8.18,2735.33,933.67
1152,973.65,2467.58,8.93,2720.67,928.00
1154,973.95,2470.72,5.64,2716.00,933.33
1156,974.24,2473.86,0.26,2696.00,929.33
1158,974.54,2477.00,15.40,2685.67,919.67
1160,974.84,2480.13,7.36,2691.00,935.33
1162,975.14,2483.27,0.00,2663.67,933.00
1164,975.43,2486.40,0.00,2654.00,920.33
1166,975.73,2489.52,50.65,2686.67,935.33
1168,976.03,2492.64,0.00,2639.00,927.00
1170,976.33,2495.76,13.21,2661.67,936.00
1172,976.62,2498.88,0.00,2630.00,924.67
1174,976.92,2501.99,0.00,2633.67,933.00
1176,977.22,2505.10,0.00,2626.00,934.33
1178,977.51,2508.21,12.42,2630.67,922.00
1180,977.81,2511.31,21.53,2640.33,930.00
1182,978.11,2514.41,0.00,2620.67,931.67
1184,978.40,2517.51,1.03,2634.33,930.33
1186,978.70,2520.61,0.00,2635.33,937.67
1188,979.00,2523.70,14.71,2666.00,943.00
1190,979.29,2526.79,73.75,2679.33,931.00
1192,979.59,2529.87,82.33,2685.33,938.00
1194,979.88,2532.95,94.61,2691.67,925.33
1196,980.18,2536.03,37.19,2674.33,934.33
1198,980.48,2539.11,90.34,2716.67,948.67
1200,980.77,2542.18,71.81,2689.00,934.00
1202,981.07,2545.25,20.70,2669.00,939.00
1204,981.36,2548.32,42.45,2670.33,927.33
1206,981.66,2551.38,21.76,2680.67,942.33
1208,981.95,2554.44,10.49,2660.67,927.33
1210,982.25,2557.50,7.72,2677.33,945.67
1212,982.54,2560.56,0.00,2661.67,951.33
1214,982.84,2563.61,0.81,2679.33,949.67
1216,983.13,2566.66,0.00,2676.33,948.00
1218,983.43,2569.70,0.00,2672.00,943.00
1220,983.72,2572.74,3.03,2691.00,943.00
1222,984.01,2575.78,0.40,2688.33,940.33
1224,984.31,2578.82,14.87,2689.33,924.00
1226,984.60,2581.85,100.41,2754.33,943.67
1228,984.90,2584.88,103.44,2732.00,920.00
1230,985.19,2587.91,110.51,2768.00,941.00
1232,985.48,2590.93,152.43,2801.00,945.67
1234,985.78,2593.96,185.67,2805.33,937.67
1236,986.07,2596.97,194.73,2808.00,934.67
1238,986.36,2599.99,152.12,2813.00,952.67
1240,986.66,2603.00,141.57,2810.33,948.00
1242,986.95,2606.01,119.81,2809.67,950.67
1244,987.24,2609.01,103.81,2799.33,940.33
1246,987.54,2612.02,66.17,2756.67,916.00
1248,987.83,2615.02,64.90,2787.67,949.00
1250,988.12,2618.01,40.01,2776.33,946.33
1252,988.41,2621.01,22.52,2767.00,943.00
1254,988.71,2624.00,114.72,2811.67,934.67
1256,989.00,2626.99,102.78,2806.33,941.00
1258,989.29,2629.97,174.62,2836.67,947.67
1260,989.58,2632.95,219.66,2846.00,938.33
1262,989.87,2635.93,156.99,2824.33,941.67
1264,990.16,2638.91,244.64,2849.33,930.33
1266,990.46,2641.88,280.47,2880.67,947.67
1268,990.75,2644.85,234.86,2877.00,959.00
1270,991.04,2647.81,237.28,2855.67,939.67
1272,991.33,2650.78,311.28,2883.67,941.67
1274,991.62,2653.74,324.69,2891.33,944.33
1276,991.91,2656.70,393.27,2911.00,933.67
1278,992.20,2659.65,482.61,2943.67,935.00
1280,992.49,2662.60,580.56,2979.67,932.33
1282,992.78,2665.55,535.05,2996.67,964.67
1284,993.07,2668.50,648.67,3038.67,957.00
1286,993.36,2671.44,770.20,3072.33,953.00
1288,993.65,2674.38,853.98,3099.00,952.33
1290,993.94,2677.31,824.46,3087.67,949.33
1292,994.23,2680.25,920.78,3123.33,942.33
1294,994.52,2683.18,955.68,3129.00,942.67
1296,994.81,2686.10,1076.75,3168.00,944.33
1298,995.10,2689.03,1110.19,3177.67,945.67
1300,995.39,2691.95,1042.50,3150.00,942.33
1302,995.68,2694.87,1123.53,3198.00,952.00
1304,995.97,2697.78,1128.16,3202.33,950.00
1306,996.26,2700.70,1222.14,3224.33,932.33
1308,996.55,2703.61,1490.19,3339.33,948.33
1310,996.84,2706.51,1789.93,3448.00,953.33
1312,997.13,2709.42,2084.48,3543.67,943.67
1314,997.41,2712.32,2357.37,3652.67,955.67
1316,997.70,2715.21,2714.84,3767.67,943.00
1318,997.99,2718.11,2982.67,3855.67,938.33
1320,998.28,2721.00,3126.76,3893.33,933.67
1322,998.57,2723.89,3296.35,3957.67,952.00
1324,998.86,2726.77,3322.91,3934.33,938.33
1326,999.14,2729.66,3117.27,3844.00,943.67
1328,999.43,2732.54,2930.36,3764.33,944.33
1330,999.72,2735.41,2507.95,3603.00,936.00
1332,1000.01,2738.29,1987.92,3429.00,951.33
1334,1000.29,2741.16,1546.60,3246.33,940.00
1336,1000.58,2744.03,1170.05,3082.00,924.67
1338,1000.87,2746.89,778.44,2951.67,953.67
1340,1001.15,2749.75,544.97,2842.67,941.00
1342,1001.44,2752.61,277.39,2760.00,942.33
1344,1001.73,2755.47,62.10,2693.67,942.33
1346,1002.01,2758.32,0.44,2620.00,940.00
1348,1002.30,2761.17,0.00,2616.33,953.67
1350,1002.59,2764.02,0.00,2599.00,955.33
1352,1002.87,2766.86,0.00,2583.67,946.33
1354,1003.16,2769.70,0.00,2568.33,937.33
1356,1003.44,2772.54,0.00,2593.33,936.33
1358,1003.73,2775.38,0.00,2621.33,943.67
1360,1004.01,2778.21,0.00,2638.33,927.33
1362,1004.30,2781.04,0.00,2694.67,945.33
1364,1004.58,2783.87,0.00,2760.33,942.67
1366,1004.87,2786.69,0.00,2786.67,922.33
1368,1005.15,2789.51,0.00,2869.00,949.33
1370,1005.44,2792.33,0.00,2921.67,951.67
1372,1005.72,2795.14,0.00,2974.67,950.67
1374,1006.01,2797.95,0.00,3031.33,953.67
1376,1006.29,2800.76,0.00,3048.67,944.33
1378,1006.58,2803.57,0.00,3175.67,968.33
1380,1006.86,2806.37,0.00,3274.33,935.00
1382,1007.14,2809.17,0.03,3385.00,938.00
1384,1007.43,2811.97,23.20,3540.67,934.33
1386,1007.71,2814.77,308.42,3752.33,931.33
1388,1008.00,2817.56,1096.42,3997.00,928.00
1390,1008.28,2820.35,2294.50,4368.33,948.00
1392,1008.56,2823.13,3599.77,4767.33,933.00
1394,1008.85,2825.91,5079.53,5272.00,946.33
1396,1009.13,2828.69,7223.67,5965.67,949.67
1398,1009.41,2831.47,9902.55,6815.33,956.00
1400,1009.69,2834.24,12874.77,7773.00,934.33
1402,1009.98,2837.02,16642.65,9105.67,945.00
1404,1010.26,2839.78,21953.35,10911.00,954.33
1406,1010.54,2842.55,30688.05,13447.33,940.67
1408,1010.82,2845.31,43636.70,16666.00,949.67
1410,1011.11,2848.07,57718.83,19793.33,946.33
1412,1011.39,2850.83,66960.08,21910.67,956.00
1414,1011.67,2853.58,68215.11,22452.00,950.67
1416,1011.95,2856.33,65450.75,22102.33,949.33
1418,1012.23,2859.08,61625.54,21306.33,941.33
1420,1012.51,2861.83,58036.99,20408.33,940.67
1422,1012.80,2864.57,55632.68,19722.33,959.67
1424,1013.08,2867.31,55307.75,19445.33,963.00
1426,1013.36,2870.04,56589.78,19474.67,962.67
1428,1013.64,2872.78,58666.72,19744.00,953.00
1430,1013.92,2875.51,59281.72,19849.00,975.67
1432,1014.20,2878.24,59102.62,19826.67,952.00
1434,1014.48,2880.96,59523.44,19897.67,943.00
1436,1014.76,2883.68,61973.01,20343.33,937.33
1438,1015.04,2886.40,64464.11,20728.67,937.33
1440,1015.32,2889.12,66887.24,21180.33,962.00
1442,1015.60,2891.83,68034.32,21331.67,942.33
1444,1015.88,2894.54,68664.39,21412.00,959.33
1446,1016.16,2897.25,69034.35,21384.00,933.00
1448,1016.44,2899.96,68805.70,21241.00,956.67
1450,1016.72,2902.66,68869.81,21108.33,948.00
1452,1017.00,2905.36,68708.50,20936.00,963.33
1454,1017.28,2908.06,67976.01,20615.00,941.00
1456,1017.55,2910.75,66865.14,20250.33,954.67
1458,1017.83,2913.44,66525.66,20036.00,941.33
1460,1018.11,2916.13,65224.19,19600.67,955.00
1462,1018.39,2918.81,64842.17,19378.00,952.67
1464,1018.67,2921.49,63798.30,19016.33,953.33
1466,1018.95,2924.17,63231.12,18753.33,952.00
1468,1019.22,2926.85,62388.05,18409.33,959.00
1470,1019.50,2929.52,61399.17,18004.33,939.33
1472,1019.78,2932.20,60200.66,17539.33,939.33
1474,1020.06,2934.86,58770.16,16983.67,941.33
1476,1020.33,2937.53,55728.35,16159.67,966.67
1478,1020.61,2940.19,50718.67,15029.00,947.67
1480,1020.89,2942.85,44193.39,13696.00,957.33
1482,1021.17,2945.51,38206.81,12420.33,945.00
1484,1021.44,2948.16,33997.94,11450.67,945.67
1486,1021.72,2950.81,31170.08,10701.67,945.00
1488,1022.00,2953.46,29449.29,10188.67,959.33
1490,1022.27,2956.11,27899.43,9695.33,941.00
1492,1022.55,2958.75,26727.45,9338.00,960.00
1494,1022.82,2961.39,24998.16,8862.33,943.00
1496,1023.10,2964.03,22523.70,8331.67,959.33
1498,1023.38,2966.66,19594.39,7721.33,942.00
1500,1023.65,2969.29,16235.84,7051.00,957.00
1502,1023.93,2971.92,13693.26,6515.00,958.67
1504,1024.20,2974.55,11262.21,5980.00,950.67
1506,1024.48,2977.17,8992.30,5489.67,952.33
1508,1024.75,2979.79,7203.58,5097.33,937.00
1510,1025.03,2982.41,5518.10,4765.67,938.33
1512,1025.30,2985.02,4114.94,4489.33,932.67
1514,1025.58,2987.63,3168.97,4305.33,947.00
1516,1025.85,2990.24,3210.18,4225.67,938.33
1518,1026.13,2992.85,3337.30,4194.00,958.67
1520,1026.40,2995.45,4162.43,4289.33,955.67
1522,1026.68,2998.05,5707.83,4495.67,940.33
1524,1026.95,3000.65,7989.45,4832.33,958.00
1526,1027.22,3003.25,11104.73,5235.33,946.33
1528,1027.50,3005.84,14324.98,5613.33,945.67
1530,1027.77,3008.43,16873.00,5875.67,951.33
1532,1028.04,3011.02,17805.86,5906.33,954.00
1534,1028.32,3013.60,16901.90,5693.67,945.67
1536,1028.59,3016.18,13939.42,5210.33,953.67
1538,1028.86,3018.76,10544.58,4618.00,931.67
1540,1029.14,3021.34,7618.32,4097.67,947.00
1542,1029.41,3023.91,5187.08,3598.33,943.67
1544,1029.68,3026.48,3510.33,3214.67,937.67
1546,1029.95,3029.05,2244.80,2922.00,947.00
1548,1030.22,3031.61,1232.84,2665.33,934.33
1550,1030.50,3034.17,551.66,2509.33,938.67
1552,1030.77,3036.73,79.36,2348.67,934.67
1554,1031.04,3039.29,3.80,2256.33,943.67
1556,1031.31,3041.84,0.00,2140.00,932.33
1558,1031.58,3044.39,0.00,2105.00,961.33
1560,1031.85,3046.94,0.00,2039.00,958.00
1562,1032.13,3049.49,0.00,1963.67,933.00
1564,1032.40,3052.03,0.00,1935.33,954.33
1566,1032.67,3054.57,0.00,1874.00,936.00
1568,1032.94,3057.11,0.00,1877.00,966.67
1570,1033.21,3059.64,0.00,1820.00,926.67
1572,1033.48,3062.18,0.00,1818.00,951.00
1574,1033.75,3064.70,16.50,1800.67,953.67
1576,1034.02,3067.23,149.88,1782.67,952.00
1578,1034.29,3069.75,102.20,1726.33,931.00
1580,1034.56,3072.28,51.79,1713.00,950.67
1582,1034.83,3074.79,114.45,1673.33,931.00
1584,1035.10,3077.31,68.15,1661.33,943.67
1586,1035.37,3079.82,0.00,1589.67,940.33
1588,1035.64,3082.33,0.00,1613.00,961.33
1590,1035.91,3084.84,0.00,1580.67,953.67
1592,1036.17,3087.34,0.00,1536.67,939.00
1594,1036.44,3089.85,36.74,1557.33,962.00
1596,1036.71,3092.35,168.90,1524.67,933.00
1598,1036.98,3094.84,0.00,1492.33,934.33
1600,1037.25,3097.34,0.00,1469.67,929.33
1602,1037.52,3099.83,0.00,1458.33,938.67
1604,1037.78,3102.32,0.00,1457.33,942.33
1606,1038.05,3104.80,12.33,1466.00,952.00
1608,1038.32,3107.29,0.00,1438.00,939.00
1610,1038.59,3109.77,0.00,1432.67,941.67
1612,1038.85,3112.24,0.00,1421.00,939.00
1614,1039.12,3114.72,137.75,1441.67,951.67
1616,1039.39,3117.19,0.00,1383.33,924.00
1618,1039.66,3119.66,14.56,1414.00,952.33
1620,1039.92,3122.13,14.33,1406.33,950.33
1622,1040.19,3124.59,5.39,1388.67,941.67
1624,1040.45,3127.05,0.00,1376.00,941.00
1626,1040.72,3129.51,27.99,1384.33,946.33
1628,1040.99,3131.97,0.00,1381.00,957.33
1630,1041.25,3134.42,0.00,1384.00,963.33
1632,1041.52,3136.87,24.71,1360.00,932.33
1634,1041.78,3139.32,104.40,1379.00,944.33
1636,1042.05,3141.77,0.00,1402.33,984.00
1638,1042.32,3144.21,143.23,1364.33,934.33
1640,1042.58,3146.65,14.43,1376.00,960.00
1642,1042.85,3149.09,121.37,1375.33,946.33
1644,1043.11,3151.52,0.00,1352.00,949.33
1646,1043.38,3153.96,5.08,1363.00,949.33
1648,1043.64,3156.39,0.00,1358.67,948.00
1650,1043.90,3158.81,16.49,1360.67,947.67
1652,1044.17,3161.24,133.15,1369.33,947.67
1654,1044.43,3163.66,0.00,1343.00,933.33
1656,1044.70,3166.08,189.60,1388.33,960.00
1658,1044.96,3168.49,0.00,1356.33,949.00
1660,1045.22,3170.91,30.55,1361.00,946.67
1662,1045.49,3173.32,18.83,1351.00,940.33
1664,1045.75,3175.73,131.21,1369.67,948.67
1666,1046.01,3178.13,115.04,1359.00,943.00
1668,1046.28,3180.54,23.76,1362.67,955.00
1670,1046.54,3182.94,51.47,1365.33,955.00
1672,1046.80,3185.34,187.01,1374.67,949.67
1674,1047.07,3187.73,110.29,1354.33,941.67
1676,1047.33,3190.12,240.59,1364.33,942.33
1678,1047.59,3192.51,446.29,1385.33,948.67
1680,1047.85,3194.90,452.98,1393.33,962.67
1682,1048.11,3197.29,606.47,1390.67,952.33
1684,1048.38,3199.67,782.06,1397.00,947.67
1686,1048.64,3202.05,726.08,1401.33,958.33
1688,1048.90,3204.43,761.76,1396.00,951.67
1690,1049.16,3206.80,945.70,1400.33,943.33
1692,1049.42,3209.17,921.27,1406.00,956.67
1694,1049.68,3211.54,1135.98,1396.67,934.00
1696,1049.94,3213.91,1153.37,1412.67,953.00
1698,1050.20,3216.27,1289.03,1422.33,954.33
1700,1050.46,3218.63,1335.67,1434.00,966.67
1702,1050.72,3220.99,1644.60,1441.67,955.00
1704,1050.98,3223.35,1744.64,1440.67,951.33
1706,1051.24,3225.70,1792.83,1437.33,946.33
1708,1051.50,3228.05,1653.96,1417.00,940.33
1710,1051.76,3230.40,2050.05,1458.67,955.67
1712,1052.02,3232.75,2038.96,1445.00,950.00
1714,1052.28,3235.09,2113.69,1457.67,962.33
1716,1052.54,3237.43,2173.37,1445.67,949.33
1718,1052.80,3239.77,2213.63,1441.00,943.67
1720,1053.06,3242.11,2190.98,1441.67,949.33
1722,1053.32,3244.44,2261.01,1432.67,941.00
1724,1053.58,3246.77,2607.63,1473.33,962.67
1726,1053.84,3249.10,2719.07,1459.33,946.33
1728,1054.10,3251.42,2765.19,1467.67,956.33
1730,1054.35,3253.75,2878.47,1466.67,952.67
1732,1054.61,3256.07,2878.65,1473.00,963.33
1734,1054.87,3258.39,2917.76,1462.00,951.67
1736,1055.13,3260.70,2929.81,1452.00,943.67
1738,1055.38,3263.01,3053.68,1461.33,950.00
1740,1055.64,3265.32,3172.73,1464.33,952.00
1742,1055.90,3267.63,3348.17,1456.33,938.67
1744,1056.16,3269.94,3371.54,1479.33,966.67
1746,1056.41,3272.24,3590.21,1486.00,965.33
1748,1056.67,3274.54,3682.47,1477.00,955.00
1750,1056.93,3276.84,3734.21,1477.67,953.67
1752,1057.18,3279.13,3399.54,1448.67,947.00
1754,1057.44,3281.42,3371.08,1439.33,943.00
1756,1057.69,3283.71,3373.89,1433.67,946.00
1758,1057.95,3286.00,3769.00,1462.67,959.33
1760,1058.21,3288.28,3738.69,1439.33,943.00
1762,1058.46,3290.57,3665.94,1449.67,960.67
1764,1058.72,3292.85,3749.05,1445.33,956.00
1766,1058.97,3295.12,3732.06,1421.67,939.33
1768,1059.23,3297.40,3675.50,1418.67,943.67
1770,1059.48,3299.67,3710.01,1430.00,954.67
1772,1059.74,3301.94,3473.36,1393.00,934.67
1774,1059.99,3304.21,3568.53,1408.00,950.00
1776,1060.25,3306.47,3650.39,1426.00,971.00
1778,1060.50,3308.73,3880.18,1403.67,941.00
1780,1060.76,3310.99,3521.46,1382.33,943.67
1782,1061.01,3313.25,3675.30,1394.33,951.67
1784,1061.26,3315.50,3797.19,1386.67,941.67
1786,1061.52,3317.76,3507.61,1378.33,951.67
1788,1061.77,3320.01,3166.74,1370.67,966.33
1790,1062.02,3322.25,3620.27,1359.67,936.33
1792,1062.28,3324.50,3431.41,1355.67,947.00
1794,1062.53,3326.74,3060.57,1328.33,941.67
1796,1062.78,3328.98,3240.00,1342.33,949.67
1798,1063.04,3331.22,3249.04,1333.00,946.33
1800,1063.29,3333.45,3452.45,1338.67,947.67
1802,1063.54,3335.68,3212.66,1322.33,946.67
1804,1063.79,3337.91,3047.68,1331.33,965.33
1806,1064.05,3340.14,3134.42,1339.67,970.33
1808,1064.30,3342.36,2791.55,1291.00,941.67
1810,1064.55,3344.59,2930.20,1305.67,954.33
1812,1064.80,3346.81,3185.22,1300.67,943.00
1814,1065.05,3349.02,3054.54,1289.33,943.00
1816,1065.30,3351.24,3071.13,1312.33,969.00
1818,1065.55,3353.45,3012.53,1285.00,947.67
1820,1065.81,3355.66,3274.67,1316.00,969.00
1822,1066.06,3357.87,2974.08,1279.67,948.33
1824,1066.31,3360.07,2836.27,1265.00,942.33
1826,1066.56,3362.27,2813.84,1271.00,953.33
1828,1066.81,3364.47,2808.27,1258.00,945.00
1830,1067.06,3366.67,2883.07,1269.33,956.00
1832,1067.31,3368.87,2513.20,1246.00,951.33
1834,1067.56,3371.06,2705.08,1232.33,932.33
1836,1067.81,3373.25,2952.74,1241.00,933.33
1838,1068.06,3375.44,2497.54,1219.00,933.00
1840,1068.31,3377.62,2794.53,1234.00,938.00
1842,1068.56,3379.81,2978.93,1226.00,927.33
1844,1068.80,3381.99,2940.86,1252.33,960.67
1846,1069.05,3384.16,2721.87,1233.00,953.67
1848,1069.30,3386.34,2910.41,1223.33,938.00
1850,1069.55,3388.51,2648.26,1214.00,939.33
1852,1069.80,3390.68,2437.07,1219.67,954.33
1854,1070.05,3392.85,2409.39,1233.00,971.67
1856,1070.30,3395.02,2401.02,1202.00,945.67
1858,1070.54,3397.18,2573.90,1197.00,938.67
1860,1070.79,3399.34,2751.46,1208.33,945.67
1862,1071.04,3401.50,2433.68,1190.33,939.67
1864,1071.29,3403.66,2132.15,1171.33,933.33
1866,1071.53,3405.81,2562.54,1194.33,944.33
1868,1071.78,3407.96,2678.34,1193.33,944.33
1870,1072.03,3410.11,2505.79,1190.67,950.00
1872,1072.27,3412.26,2376.35,1183.33,947.33
1874,1072.52,3414.40,2211.69,1175.67,947.00
1876,1072.77,3416.54,2180.73,1167.67,943.67
1878,1073.01,3418.68,2467.75,1181.67,951.33
1880,1073.26,3420.82,2008.43,1143.67,931.33
1882,1073.51,3422.96,2108.04,1168.00,954.33
1884,1073.75,3425.09,2294.79,1159.33,941.33
1886,1074.00,3427.22,2050.42,1142.33,933.00
1888,1074.24,3429.35,1983.76,1160.33,953.33
1890,1074.49,3431.47,1931.98,1144.00,941.00
1892,1074.73,3433.59,2136.65,1137.33,931.67
1894,1074.98,3435.71,1835.04,1159.33,967.00
1896,1075.22,3437.83,2255.73,1142.67,939.67
1898,1075.47,3439.95,2331.80,1151.33,948.33
1900,1075.71,3442.06,2022.82,1144.33,952.67
1902,1075.96,3444.17,2134.29,1140.33,946.00
1904,1076.20,3446.28,1759.09,1095.67,913.00
1906,1076.44,3448.38,1746.55,1146.00,964.67
1908,1076.69,3450.49,2109.47,1144.33,954.33
1910,1076.93,3452.59,1812.53,1126.67,949.33
1912,1077.17,3454.69,2002.54,1118.00,938.67
1914,1077.42,3456.79,1867.55,1118.33,945.00
1916,1077.66,3458.88,1603.67,1106.33,941.00
1918,1077.90,3460.97,1387.40,1097.67,938.67
1920,1078.15,3463.06,1687.53,1126.00,958.67
1922,1078.39,3465.15,1283.95,1103.00,948.67
1924,1078.63,3467.23,1076.83,1078.33,932.33
1926,1078.87,3469.32,1513.20,1103.33,948.67
1928,1079.12,3471.40,1581.32,1089.33,935.33
1930,1079.36,3473.47,1529.63,1126.00,973.33
1932,1079.60,3475.55,1135.40,1080.00,937.33
1934,1079.84,3477.62,1490.67,1100.33,948.33
1936,1080.08,3479.69,1307.12,1081.00,937.00
1938,1080.33,3481.76,1163.81,1073.00,936.33
1940,1080.57,3483.83,1733.49,1090.67,943.33
1942,1080.81,3485.89,1486.52,1081.00,940.33
1944,1081.05,3487.95,1074.19,1090.00,958.33
1946,1081.29,3490.01,983.64,1079.67,949.33
1948,1081.53,3492.07,704.76,1062.00,940.00
1950,1081.77,3494.12,971.72,1062.00,935.33
1952,1082.01,3496.18,1139.42,1077.33,949.67
1954,1082.25,3498.23,915.92,1055.67,935.33
1956,1082.49,3500.27,985.30,1062.00,941.67
1958,1082.73,3502.32,1600.88,1065.67,933.00
1960,1082.97,3504.36,773.61,1067.00,952.67
1962,1083.21,3506.40,772.04,1051.33,936.67
1964,1083.45,3508.44,788.53,1040.00,925.33
1966,1083.69,3510.48,795.50,1077.67,964.67
1968,1083.93,3512.51,824.49,1064.00,952.67
1970,1084.16,3514.54,1050.25,1055.33,941.00
1972,1084.40,3516.57,584.74,1043.00,939.67
1974,1084.64,3518.60,760.38,1039.33,933.67
1976,1084.88,3520.62,644.59,1057.67,955.67
1978,1085.12,3522.65,268.82,1057.33,963.33
1980,1085.36,3524.67,535.47,1048.33,948.00
1982,1085.59,3526.68,249.98,1031.67,938.00
1984,1085.83,3528.70,232.58,1045.33,953.33
1986,1086.07,3530.71,663.94,1039.00,939.33
1988,1086.31,3532.72,383.08,1045.00,953.33
1990,1086.54,3534.73,74.75,1020.33,936.00
1992,1086.78,3536.74,720.15,1053.00,957.67
1994,1087.02,3538.74,415.70,1042.00,954.33
1996,1087.25,3540.74,668.48,1018.00,927.00
1998,1087.49,3542.74,418.99,1035.67,948.67
2000,1087.73,3544.74,162.92,1027.67,946.33
2002,1087.96,3546.74,526.60,1030.33,941.00
2004,1088.20,3548.73,481.09,1037.67,953.00
2006,1088.43,3550.72,1072.42,1031.67,940.33
2008,1088.67,3552.71,787.27,1020.33,935.00
2010,1088.90,3554.69,250.98,1003.67,927.33
2012,1089.14,3556.68,636.06,1030.33,947.00
2014,1089.38,3558.66,888.50,1020.33,932.00
2016,1089.61,3560.64,17.87,1011.00,941.67
2018,1089.84,3562.62,1.55,1022.67,954.67
2020,1090.08,3564.59,843.92,1012.33,933.00
2022,1090.31,3566.56,349.88,1006.33,935.00
2024,1090.55,3568.53,413.46,1007.00,934.00
2026,1090.78,3570.50,149.02,997.67,930.00
2028,1091.02,3572.47,20.78,998.33,934.67
2030,1091.25,3574.43,53.64,996.67,933.33
2032,1091.48,3576.39,476.81,985.33,916.00
2034,1091.72,3578.35,554.69,987.00,918.00
2036,1091.95,3580.31,460.80,997.67,931.00
2038,1092.18,3582.26,0.00,976.67,920.00
2040,1092.42,3584.22,769.44,982.00,914.33
2042,1092.65,3586.17,363.15,983.67,922.00
2044,1092.88,3588.12,0.00,971.00,915.33
2046,1093.11,3590.06,0.00,974.67,920.33
2047,1093.23,3591.03,14.56,968.67,910.67