File: plugins/Raman/MatchingLibrary/785X/tert-butyl methyl ether.csv
ENLIGHTEN Version,4.1.22
Measurement ID,20250220-195655-717989-WP-01977
Serial Number,WP-01977
Model,WP-785X-F13-R-ILC
Detector,S16011-1106
Label,tert-butyl methyl ether
Declared Match,
Declared Score,0
Scan Averaging,7
Boxcar,0
Technique,Raman
Baseline Correction Algo,AirPLS
ROI Pixel Start,47
ROI Pixel End,2047
ROI Start Line,0
ROI Stop Line,63
CCD C4,1.38617e-12
Slit Width,25
Cropped,True
Interpolated,False
Wavenumber Correction,-0.100481
Raman Intensity Corrected,True
Deconvolved,True
Region,
High Gain Mode,False
Laser Power mW,
Electrical Dark Correction,False
Battery %,
Device ID,<DeviceID USB:0x24aa:0x1000:0:1>
FW Version,10.0.0.10
FPGA Version,035-001
BLE Version,
Prefix,enlighten
Suffix,
Preset,
Auto-Raman,True
Session Count,0
Plugin Name,
Integration Time,165
Timestamp,2025-02-20 19:56:55.718
Note,
Temperature,0
CCD C0,793.274
CCD C1,0.153259
CCD C2,1.40788e-05
CCD C3,-1.132e-08
CCD Offset,0
CCD Gain,1.9
CCD Offset Odd,0
CCD Gain Odd,1.9
Laser Wavelength,785.032
Laser Enable,False
Laser Power %,0
Laser Temperature,0
Pixel Count,2048

Pixel,Wavelength,Wavenumber,Processed,Raw,Dark
0,793.27,132.25,NA,890.43,880.57
2,793.58,137.12,NA,895.71,886.00
4,793.89,141.99,NA,896.86,881.86
6,794.19,146.86,NA,899.00,881.29
8,794.50,151.72,NA,902.43,888.14
10,794.81,156.58,NA,905.00,889.14
12,795.12,161.44,NA,894.86,880.00
14,795.42,166.30,NA,901.71,881.14
16,795.73,171.16,NA,898.43,880.29
18,796.04,176.01,NA,906.43,886.29
20,796.35,180.86,NA,904.57,886.86
22,796.65,185.71,NA,914.57,896.00
24,796.96,190.56,NA,908.71,888.00
26,797.27,195.41,NA,912.57,896.43
28,797.58,200.25,NA,912.43,896.86
30,797.88,205.09,NA,909.43,884.71
32,798.19,209.93,NA,909.86,885.71
34,798.50,214.77,NA,910.43,886.00
36,798.81,219.60,NA,913.43,888.00
38,799.12,224.43,NA,923.86,885.71
40,799.43,229.27,NA,983.00,897.00
42,799.74,234.09,NA,1190.71,889.86
44,800.04,238.92,NA,1529.14,899.00
46,800.35,243.75,NA,1700.86,886.29
48,800.66,248.57,79.98,1809.29,893.14
50,800.97,253.39,205.26,1920.86,898.71
52,801.28,258.21,298.16,2056.57,895.57
54,801.59,263.02,400.77,2191.71,897.86
56,801.90,267.83,522.76,2353.71,895.57
58,802.21,272.65,713.81,2583.86,895.71
60,802.52,277.46,887.58,2797.71,896.43
62,802.83,282.26,1045.75,2985.29,902.43
64,803.14,287.07,1069.64,3004.14,900.86
66,803.45,291.87,940.62,2857.57,898.14
68,803.76,296.67,733.54,2612.43,902.00
70,804.07,301.47,538.76,2353.14,893.43
72,804.38,306.26,384.86,2154.00,893.71
74,804.69,311.06,299.78,2030.00,895.29
76,805.00,315.85,247.81,1949.71,893.29
78,805.31,320.64,264.43,1966.14,895.43
80,805.62,325.42,272.12,1990.86,898.43
82,805.93,330.21,361.62,2125.29,895.29
84,806.24,334.99,563.57,2416.00,885.14
86,806.55,339.77,968.13,2948.71,892.14
88,806.86,344.55,1541.36,3567.57,898.14
90,807.17,349.32,1689.05,3733.14,891.57
92,807.48,354.10,1298.99,3403.57,894.43
94,807.80,358.87,1042.51,3147.71,899.43
96,808.11,363.63,1167.84,3286.86,896.29
98,808.42,368.40,1596.63,3708.43,891.71
100,808.73,373.16,1813.02,3877.00,891.43
102,809.04,377.93,1383.92,3432.57,892.14
104,809.35,382.68,818.16,2753.86,890.57
106,809.66,387.44,506.99,2291.57,894.00
108,809.98,392.19,342.42,2019.29,891.57
110,810.29,396.95,274.21,1909.57,895.29
112,810.60,401.70,262.85,1890.14,891.43
114,810.91,406.44,326.58,1972.57,892.29
116,811.22,411.19,475.39,2120.14,891.29
118,811.54,415.93,529.83,2164.57,896.00
120,811.85,420.67,381.83,2001.29,886.43
122,812.16,425.41,224.97,1804.86,892.43
124,812.47,430.14,177.52,1717.57,893.57
126,812.79,434.87,168.00,1681.14,887.71
128,813.10,439.60,204.26,1719.29,883.29
130,813.41,444.33,238.29,1789.57,894.14
132,813.72,449.06,352.85,1943.43,887.71
134,814.04,453.78,509.42,2142.71,890.57
136,814.35,458.50,662.99,2309.14,888.00
138,814.66,463.22,621.13,2258.57,886.29
140,814.98,467.93,464.46,2072.57,888.57
142,815.29,472.65,329.77,1878.14,884.86
144,815.60,477.36,272.22,1783.29,889.71
146,815.92,482.06,256.62,1742.71,883.29
148,816.23,486.77,296.75,1806.71,894.00
150,816.54,491.47,389.84,1975.43,898.57
152,816.86,496.17,565.24,2322.43,883.00
154,817.17,500.87,1094.37,3212.57,893.00
156,817.48,505.57,2306.76,4645.29,887.71
158,817.80,510.26,3031.70,5326.29,886.29
160,818.11,514.95,1936.82,4248.43,888.00
162,818.42,519.64,888.41,2871.29,895.14
164,818.74,524.32,442.83,2066.00,890.57
166,819.05,529.00,248.52,1688.14,896.71
168,819.37,533.68,161.73,1502.14,886.29
170,819.68,538.36,103.83,1402.29,891.14
172,819.99,543.04,59.40,1323.71,893.00
174,820.31,547.71,41.66,1279.71,889.71
176,820.62,552.38,24.19,1238.00,884.29
178,820.94,557.05,19.32,1220.43,889.43
180,821.25,561.71,13.89,1192.14,879.71
182,821.57,566.37,0.10,1171.71,887.14
184,821.88,571.03,0.00,1157.43,887.14
186,822.20,575.69,0.00,1149.14,889.86
188,822.51,580.34,0.00,1133.14,885.29
190,822.83,584.99,0.00,1125.00,886.57
192,823.14,589.64,0.00,1120.43,888.29
194,823.46,594.29,0.00,1114.71,883.71
196,823.77,598.93,0.00,1114.14,889.14
198,824.09,603.57,0.00,1099.00,883.00
200,824.40,608.21,0.00,1105.71,885.29
202,824.72,612.85,0.00,1112.43,895.00
204,825.03,617.48,7.22,1120.86,889.14
206,825.35,622.11,0.01,1119.86,895.57
208,825.66,626.74,0.00,1111.00,890.29
210,825.98,631.36,0.00,1100.00,882.43
212,826.29,635.99,0.00,1106.71,890.57
214,826.61,640.61,0.00,1110.14,890.43
216,826.92,645.22,0.00,1116.71,886.86
218,827.24,649.84,0.49,1132.00,881.00
220,827.56,654.45,3.59,1155.86,891.43
222,827.87,659.06,13.86,1171.29,887.71
224,828.19,663.67,20.26,1185.43,888.14
226,828.50,668.27,21.37,1214.14,905.57
228,828.82,672.87,34.92,1229.14,890.57
230,829.13,677.47,49.16,1262.14,885.43
232,829.45,682.06,94.76,1355.29,889.14
234,829.77,686.66,185.26,1498.71,891.29
236,830.08,691.25,299.86,1658.29,887.71
238,830.40,695.83,337.62,1746.43,889.14
240,830.72,700.42,361.26,1832.86,887.14
242,831.03,705.00,482.62,2087.71,876.00
244,831.35,709.58,803.84,2962.71,891.86
246,831.66,714.15,1615.41,5790.29,881.14
248,831.98,718.73,5834.93,15598.29,890.86
250,832.30,723.30,24377.38,37058.29,885.14
252,832.61,727.87,30299.91,41744.14,895.14
254,832.93,732.43,8208.06,19896.43,878.14
256,833.25,736.99,1544.14,6425.71,894.57
258,833.56,741.55,667.32,2949.71,892.29
260,833.88,746.11,414.67,2020.71,886.86
262,834.20,750.66,249.93,1697.00,889.14
264,834.51,755.22,147.14,1527.57,888.86
266,834.83,759.76,89.53,1431.57,889.71
268,835.15,764.31,43.53,1355.86,884.57
270,835.47,768.85,20.10,1310.57,881.86
272,835.78,773.39,12.88,1305.86,885.29
274,836.10,777.93,3.04,1294.29,882.00
276,836.42,782.46,0.19,1292.71,886.00
278,836.73,787.00,0.72,1292.71,880.29
280,837.05,791.52,1.77,1304.29,884.29
282,837.37,796.05,13.71,1334.00,889.86
284,837.69,800.57,35.26,1358.00,880.29
286,838.00,805.09,48.82,1392.14,883.71
288,838.32,809.61,93.35,1470.43,886.57
290,838.64,814.13,136.68,1547.86,889.29
292,838.95,818.64,195.29,1638.86,885.29
294,839.27,823.15,247.14,1735.14,886.29
296,839.59,827.65,301.41,1855.29,889.71
298,839.91,832.15,415.84,2069.71,885.43
300,840.22,836.65,612.28,2498.71,896.86
302,840.54,841.15,1014.30,3351.71,885.71
304,840.86,845.65,2059.79,5087.29,892.57
306,841.18,850.14,3847.36,7207.29,888.29
308,841.50,854.63,4094.52,7471.86,904.71
310,841.81,859.11,2283.59,5409.57,888.00
312,842.13,863.60,1094.47,3544.57,888.57
314,842.45,868.07,678.43,2643.71,883.86
316,842.77,872.55,510.82,2261.43,890.86
318,843.08,877.03,445.51,2130.43,895.71
320,843.40,881.50,434.90,2099.29,878.86
322,843.72,885.97,480.21,2202.43,891.71
324,844.04,890.43,611.81,2453.86,885.71
326,844.36,894.89,872.30,2949.86,882.86
328,844.67,899.35,1379.88,3800.86,889.14
330,844.99,903.81,2134.97,4897.00,883.14
332,845.31,908.26,2635.63,5702.00,889.14
334,845.63,912.71,2804.50,6018.00,891.86
336,845.95,917.16,2805.53,5913.86,891.14
338,846.27,921.61,2247.88,5185.71,986.14
340,846.58,926.05,1445.20,3928.86,888.71
342,846.90,930.49,896.62,3009.14,887.71
344,847.22,934.92,594.11,2436.71,887.43
346,847.54,939.36,410.94,2081.14,880.29
348,847.86,943.79,284.54,1855.14,881.29
350,848.18,948.21,209.51,1714.57,883.29
352,848.49,952.64,135.14,1594.00,884.14
354,848.81,957.06,80.58,1492.29,877.14
356,849.13,961.48,51.76,1448.86,890.29
358,849.45,965.89,13.52,1401.71,893.00
360,849.77,970.31,0.17,1363.71,884.57
362,850.09,974.71,0.00,1347.14,886.29
364,850.40,979.12,0.00,1355.57,891.57
366,850.72,983.52,0.00,1375.71,895.86
368,851.04,987.92,4.52,1393.71,881.00
370,851.36,992.32,36.44,1458.57,881.00
372,851.68,996.72,92.56,1578.29,884.57
374,852.00,1001.11,276.86,1831.14,883.00
376,852.32,1005.50,335.48,1958.43,878.00
378,852.63,1009.88,367.79,2125.14,893.43
380,852.95,1014.26,618.52,2496.43,885.43
382,853.27,1018.64,924.80,2846.86,891.29
384,853.59,1023.02,915.05,2825.43,883.43
386,853.91,1027.39,549.63,2388.71,880.86
388,854.23,1031.76,266.15,1952.29,883.00
390,854.55,1036.13,139.96,1711.00,883.00
392,854.87,1040.49,58.77,1561.43,883.14
394,855.18,1044.86,12.37,1499.00,890.00
396,855.50,1049.21,0.17,1463.00,884.43
398,855.82,1053.57,0.00,1457.43,890.29
400,856.14,1057.92,1.30,1488.71,883.57
402,856.46,1062.27,26.17,1542.57,883.29
404,856.78,1066.62,94.18,1669.29,879.43
406,857.10,1070.96,212.77,1914.43,881.29
408,857.42,1075.30,434.04,2370.86,888.86
410,857.74,1079.64,912.56,3146.86,885.14
412,858.06,1083.97,1674.46,4056.57,881.86
414,858.37,1088.30,1785.78,4180.00,881.00
416,858.69,1092.63,1088.30,3400.57,879.29
418,859.01,1096.95,540.90,2581.14,880.00
420,859.33,1101.27,293.08,2113.14,884.14
422,859.65,1105.59,146.73,1827.29,883.00
424,859.97,1109.91,68.43,1684.29,881.43
426,860.29,1114.22,14.18,1610.14,881.14
428,860.61,1118.53,0.11,1571.00,879.43
430,860.93,1122.84,0.00,1549.71,879.86
432,861.25,1127.14,0.00,1581.86,892.86
434,861.56,1131.44,0.38,1607.57,879.71
436,861.88,1135.74,21.93,1676.14,884.57
438,862.20,1140.03,87.12,1787.71,885.57
440,862.52,1144.32,160.87,1934.29,886.29
442,862.84,1148.61,302.65,2170.86,885.86
444,863.16,1152.89,448.05,2376.29,884.57
446,863.48,1157.17,503.04,2496.86,884.57
448,863.80,1161.45,484.69,2554.71,885.71
450,864.12,1165.73,573.67,2767.43,886.00
452,864.44,1170.00,853.39,3207.86,884.29
454,864.76,1174.27,1271.76,3732.86,885.71
456,865.07,1178.53,1442.94,3919.71,878.00
458,865.39,1182.80,1107.28,3584.71,886.57
460,865.71,1187.06,738.57,3117.86,885.43
462,866.03,1191.31,625.43,2947.71,888.00
464,866.35,1195.57,707.90,3048.57,881.86
466,866.67,1199.82,943.20,3349.00,891.00
468,866.99,1204.06,1123.22,3556.57,884.57
470,867.31,1208.31,999.70,3453.00,886.29
472,867.63,1212.55,782.53,3226.00,884.71
474,867.95,1216.79,749.18,3212.43,878.57
476,868.27,1221.02,921.71,3514.29,887.43
478,868.58,1225.25,1271.09,4059.57,878.86
480,868.90,1229.48,1799.15,4783.43,887.71
482,869.22,1233.71,2183.72,5240.14,890.71
484,869.54,1237.93,1941.58,4991.86,893.14
486,869.86,1242.15,1434.89,4371.71,888.00
488,870.18,1246.36,1111.73,3912.71,880.14
490,870.50,1250.58,1019.49,3791.57,884.43
492,870.82,1254.79,1193.38,4076.43,895.43
494,871.14,1258.99,1628.74,4639.86,888.86
496,871.46,1263.20,2085.12,5132.71,889.14
498,871.78,1267.40,1919.36,4928.14,881.57
500,872.10,1271.59,1286.93,4165.71,879.57
502,872.41,1275.79,792.76,3442.71,884.29
504,872.73,1279.98,554.53,3016.57,887.14
506,873.05,1284.17,395.70,2733.00,888.29
508,873.37,1288.35,280.64,2530.00,872.14
510,873.69,1292.53,196.68,2412.00,878.14
512,874.01,1296.71,133.93,2323.00,883.71
514,874.33,1300.88,97.06,2258.00,875.86
516,874.65,1305.06,61.41,2221.57,881.14
518,874.97,1309.22,28.70,2178.71,879.14
520,875.29,1313.39,22.99,2180.00,886.29
522,875.60,1317.55,14.41,2180.71,885.14
524,875.92,1321.71,1.55,2166.86,883.43
526,876.24,1325.87,1.42,2183.57,887.71
528,876.56,1330.02,0.00,2177.14,882.57
530,876.88,1334.17,0.00,2192.86,888.57
532,877.20,1338.32,0.24,2201.57,877.00
534,877.52,1342.46,6.08,2228.00,880.29
536,877.84,1346.60,19.34,2264.71,883.43
538,878.16,1350.73,66.25,2344.57,879.43
540,878.47,1354.87,136.64,2456.71,883.14
542,878.79,1359.00,233.20,2597.43,883.43
544,879.11,1363.13,349.51,2741.86,882.71
546,879.43,1367.25,385.12,2785.86,881.86
548,879.75,1371.37,300.13,2705.71,882.29
550,880.07,1375.49,233.87,2629.14,880.71
552,880.39,1379.60,219.07,2608.71,884.86
554,880.71,1383.71,267.34,2661.71,882.00
556,881.03,1387.82,336.81,2745.00,882.43
558,881.34,1391.93,335.63,2758.57,879.14
560,881.66,1396.03,350.64,2802.00,877.29
562,881.98,1400.13,400.99,2890.43,887.14
564,882.30,1404.22,500.12,3032.71,883.14
566,882.62,1408.31,588.14,3173.14,883.43
568,882.94,1412.40,712.21,3381.00,887.14
570,883.26,1416.49,862.36,3631.14,884.00
572,883.57,1420.57,1099.88,4041.00,890.29
574,883.89,1424.65,1457.03,4673.29,880.29
576,884.21,1428.73,2068.27,5751.14,890.14
578,884.53,1432.80,3258.26,7535.29,891.86
580,884.85,1436.87,4938.94,9748.29,882.43
582,885.17,1440.93,6245.23,11515.57,881.43
584,885.49,1445.00,6784.84,12395.14,881.71
586,885.80,1449.06,6797.37,12524.00,879.43
588,886.12,1453.11,6367.12,12026.14,894.71
590,886.44,1457.17,5883.32,11365.71,886.57
592,886.76,1461.22,5534.56,10777.43,887.71
594,887.08,1465.26,5292.21,10238.00,889.86
596,887.40,1469.31,4760.72,9354.14,878.57
598,887.71,1473.35,3880.73,8131.71,883.00
600,888.03,1477.38,2894.95,6763.86,888.86
602,888.35,1481.42,2107.46,5591.86,889.71
604,888.67,1485.45,1535.70,4694.43,886.57
606,888.99,1489.48,1143.14,4057.86,881.29
608,889.31,1493.50,869.51,3614.29,882.29
610,889.62,1497.52,665.45,3291.71,885.29
612,889.94,1501.54,508.12,3042.86,877.57
614,890.26,1505.56,374.66,2842.43,883.57
616,890.58,1509.57,290.88,2708.86,882.43
618,890.90,1513.57,214.07,2593.14,882.71
620,891.21,1517.58,168.57,2523.29,885.14
622,891.53,1521.58,140.49,2469.57,881.00
624,891.85,1525.58,108.47,2425.00,882.00
626,892.17,1529.57,66.39,2369.14,881.57
628,892.49,1533.57,52.91,2344.71,885.29
630,892.80,1537.56,26.28,2290.57,879.14
632,893.12,1541.54,25.25,2276.14,878.14
634,893.44,1545.52,5.30,2243.86,888.57
636,893.76,1549.50,6.50,2216.71,877.71
638,894.07,1553.48,0.00,2191.86,887.43
640,894.39,1557.45,6.31,2180.00,877.14
642,894.71,1561.42,14.53,2171.29,880.71
644,895.03,1565.39,0.00,2132.43,878.43
646,895.34,1569.35,0.00,2126.71,892.57
648,895.66,1573.31,9.38,2118.57,881.00
650,895.98,1577.26,0.03,2093.71,883.43
652,896.30,1581.22,0.21,2076.00,879.57
654,896.61,1585.17,9.16,2074.71,882.71
656,896.93,1589.11,0.00,2039.43,890.14
658,897.25,1593.06,0.14,2035.14,878.14
660,897.57,1597.00,0.00,2029.14,885.71
662,897.88,1600.93,5.33,2031.86,883.14
664,898.20,1604.87,35.65,2049.00,884.71
666,898.52,1608.80,34.88,2035.14,878.86
668,898.84,1612.72,41.57,2034.71,875.29
670,899.15,1616.65,42.66,2037.14,887.71
672,899.47,1620.57,38.43,2013.71,880.57
674,899.79,1624.49,46.98,2017.29,882.14
676,900.10,1628.40,51.29,2008.43,880.29
678,900.42,1632.31,55.64,2007.86,886.00
680,900.74,1636.22,68.55,2002.57,873.29
682,901.05,1640.12,53.02,1993.14,893.71
684,901.37,1644.02,67.45,1989.86,883.71
686,901.69,1647.92,69.76,1982.43,885.43
688,902.00,1651.82,60.86,1959.57,881.43
690,902.32,1655.71,67.50,1954.14,877.71
692,902.64,1659.60,80.16,1956.86,876.71
694,902.95,1663.48,86.89,1958.00,881.57
696,903.27,1667.36,86.98,1947.86,880.29
698,903.59,1671.24,68.13,1923.71,889.86
700,903.90,1675.11,84.46,1924.29,884.29
702,904.22,1678.99,82.55,1910.29,876.71
704,904.54,1682.85,69.85,1900.29,892.29
706,904.85,1686.72,84.20,1888.14,878.71
708,905.17,1690.58,87.85,1888.71,883.71
710,905.49,1694.44,88.90,1881.57,881.43
712,905.80,1698.29,113.59,1897.00,877.71
714,906.12,1702.15,125.05,1901.14,882.71
716,906.43,1706.00,128.65,1893.71,880.57
718,906.75,1709.84,115.13,1876.86,889.43
720,907.07,1713.68,109.95,1848.29,876.71
722,907.38,1717.52,89.34,1821.00,881.86
724,907.70,1721.36,84.83,1802.43,882.14
726,908.01,1725.19,93.37,1798.71,884.86
728,908.33,1729.02,87.25,1783.29,886.86
730,908.65,1732.85,73.69,1750.86,881.43
732,908.96,1736.67,59.85,1730.29,886.00
734,909.28,1740.49,41.77,1691.00,878.57
736,909.59,1744.30,39.68,1681.57,886.86
738,909.91,1748.12,34.64,1660.00,882.57
740,910.22,1751.93,32.59,1652.57,886.00
742,910.54,1755.73,21.04,1640.29,897.71
744,910.85,1759.54,18.68,1612.71,886.86
746,911.17,1763.34,9.51,1589.14,883.00
748,911.49,1767.13,2.35,1572.57,883.71
750,911.80,1770.93,5.41,1559.14,877.57
752,912.12,1774.72,15.28,1566.14,884.29
754,912.43,1778.50,0.05,1535.86,880.86
756,912.75,1782.29,0.13,1522.29,875.57
758,913.06,1786.07,4.75,1518.29,875.14
760,913.38,1789.84,1.56,1507.29,877.86
762,913.69,1793.62,3.51,1512.57,888.00
764,914.01,1797.39,3.07,1495.43,880.57
766,914.32,1801.15,4.23,1488.14,879.29
768,914.64,1804.92,1.03,1478.14,879.71
770,914.95,1808.68,4.48,1474.00,880.29
772,915.26,1812.44,4.00,1469.71,882.57
774,915.58,1816.19,0.00,1445.14,875.86
776,915.89,1819.94,5.46,1457.00,881.29
778,916.21,1823.69,9.88,1454.86,883.57
780,916.52,1827.43,2.92,1448.00,889.43
782,916.84,1831.17,9.48,1440.43,880.43
784,917.15,1834.91,18.28,1438.14,875.86
786,917.47,1838.64,12.45,1438.14,888.00
788,917.78,1842.38,21.40,1433.43,879.14
790,918.09,1846.10,20.22,1426.71,879.71
792,918.41,1849.83,17.30,1421.43,883.57
794,918.72,1853.55,21.68,1412.14,875.86
796,919.04,1857.27,35.41,1424.43,881.14
798,919.35,1860.98,28.17,1410.86,878.71
800,919.66,1864.69,27.70,1406.86,881.43
802,919.98,1868.40,41.78,1413.43,881.57
804,920.29,1872.11,33.49,1399.14,880.43
806,920.60,1875.81,42.55,1404.00,882.43
808,920.92,1879.51,42.51,1394.43,878.14
810,921.23,1883.20,32.48,1383.86,882.29
812,921.55,1886.90,45.59,1384.29,878.86
814,921.86,1890.58,51.24,1392.86,887.43
816,922.17,1894.27,40.05,1379.86,890.29
818,922.49,1897.95,43.83,1365.43,880.57
820,922.80,1901.63,41.03,1355.71,879.43
822,923.11,1905.31,28.52,1341.29,883.29
824,923.42,1908.98,40.79,1348.57,883.43
826,923.74,1912.65,41.52,1343.43,883.57
828,924.05,1916.31,38.38,1333.71,881.43
830,924.36,1919.98,49.76,1333.14,876.14
832,924.68,1923.64,63.11,1343.57,880.86
834,924.99,1927.29,64.62,1338.14,879.43
836,925.30,1930.94,61.60,1327.43,877.14
838,925.61,1934.59,57.71,1323.14,881.86
840,925.93,1938.24,50.96,1309.43,880.00
842,926.24,1941.88,41.07,1291.29,880.14
844,926.55,1945.52,44.01,1285.43,879.57
846,926.86,1949.16,34.83,1273.86,881.57
848,927.18,1952.79,34.62,1265.57,877.14
850,927.49,1956.42,29.69,1254.71,879.86
852,927.80,1960.05,35.34,1274.71,902.14
854,928.11,1963.67,37.99,1252.43,883.14
856,928.42,1967.29,29.78,1242.57,884.86
858,928.74,1970.91,23.16,1226.14,881.57
860,929.05,1974.52,26.11,1218.43,877.57
862,929.36,1978.13,25.28,1211.00,876.57
864,929.67,1981.74,17.52,1199.71,879.71
866,929.98,1985.35,21.61,1199.57,880.57
868,930.29,1988.95,15.22,1188.00,881.57
870,930.61,1992.54,10.47,1175.14,878.57
872,930.92,1996.14,8.19,1168.71,880.71
874,931.23,1999.73,7.16,1165.14,882.86
876,931.54,2003.32,3.81,1156.14,883.00
878,931.85,2006.90,0.00,1145.86,884.57
880,932.16,2010.48,0.68,1139.00,880.29
882,932.47,2014.06,2.17,1135.29,878.57
884,932.78,2017.63,8.04,1137.29,881.00
886,933.09,2021.21,9.62,1133.43,880.29
888,933.41,2024.77,16.42,1136.43,882.14
890,933.72,2028.34,13.94,1138.57,891.00
892,934.03,2031.90,10.80,1122.29,881.29
894,934.34,2035.46,22.53,1134.29,886.43
896,934.65,2039.01,20.98,1119.43,876.86
898,934.96,2042.57,41.78,1144.00,881.86
900,935.27,2046.11,60.04,1163.14,891.00
902,935.58,2049.66,81.47,1157.29,875.57
904,935.89,2053.20,83.90,1158.14,883.14
906,936.20,2056.74,62.08,1140.14,882.00
908,936.51,2060.28,28.24,1106.14,882.00
910,936.82,2063.81,21.05,1091.00,881.43
912,937.13,2067.34,10.87,1078.71,885.29
914,937.44,2070.86,0.37,1056.00,880.00
916,937.75,2074.39,0.00,1047.14,879.43
918,938.06,2077.91,0.00,1048.00,882.29
920,938.37,2081.42,0.00,1040.71,881.14
922,938.68,2084.94,2.72,1041.86,879.86
924,938.99,2088.45,0.00,1034.14,879.43
926,939.30,2091.95,0.26,1037.29,882.00
928,939.60,2095.46,0.00,1029.86,881.43
930,939.91,2098.96,9.30,1042.86,884.86
932,940.22,2102.45,8.03,1036.71,882.71
934,940.53,2105.95,3.91,1028.71,879.14
936,940.84,2109.44,8.43,1032.43,881.43
938,941.15,2112.92,12.45,1033.57,882.00
940,941.46,2116.41,0.79,1021.00,880.57
942,941.77,2119.89,1.53,1023.57,883.14
944,942.07,2123.37,3.69,1022.43,880.57
946,942.38,2126.84,7.57,1027.71,884.00
948,942.69,2130.31,30.79,1043.29,881.86
950,943.00,2133.78,41.84,1046.14,879.86
952,943.31,2137.24,43.65,1048.57,882.14
954,943.62,2140.70,41.13,1047.86,882.86
956,943.92,2144.16,22.28,1031.71,881.43
958,944.23,2147.62,22.26,1033.57,884.86
960,944.54,2151.07,41.57,1046.71,884.43
962,944.85,2154.52,47.76,1054.71,890.86
964,945.16,2157.96,61.60,1056.86,883.71
966,945.46,2161.40,74.11,1065.29,884.29
968,945.77,2164.84,66.43,1047.29,873.14
970,946.08,2168.28,58.91,1047.57,879.43
972,946.39,2171.71,43.20,1035.14,881.57
974,946.69,2175.14,39.39,1028.00,881.43
976,947.00,2178.57,38.82,1025.57,884.57
978,947.31,2181.99,34.27,1010.14,874.57
980,947.61,2185.41,15.17,1003.14,885.29
982,947.92,2188.82,18.06,1000.29,880.86
984,948.23,2192.24,6.07,983.14,876.29
986,948.53,2195.65,6.42,986.71,880.43
988,948.84,2199.05,4.68,973.14,872.57
990,949.15,2202.46,6.30,983.29,883.57
992,949.45,2205.86,1.99,978.57,881.14
994,949.76,2209.25,0.00,967.57,878.86
996,950.07,2212.65,0.82,971.86,880.00
998,950.37,2216.04,0.00,962.00,877.86
1000,950.68,2219.43,0.00,968.71,880.43
1002,950.98,2222.81,1.54,977.29,882.57
1004,951.29,2226.19,4.50,974.29,879.00
1006,951.60,2229.57,9.90,973.71,873.29
1008,951.90,2232.94,7.52,977.57,879.00
1010,952.21,2236.32,27.95,990.00,877.57
1012,952.51,2239.68,32.02,996.43,881.43
1014,952.82,2243.05,13.90,985.57,880.14
1016,953.12,2246.41,18.73,996.00,885.00
1018,953.43,2249.77,19.06,1004.00,896.00
1020,953.73,2253.12,18.64,994.71,886.29
1022,954.04,2256.48,10.23,978.71,876.14
1024,954.34,2259.83,22.08,997.57,885.57
1026,954.65,2263.17,23.37,991.29,879.43
1028,954.95,2266.51,29.60,1002.71,885.43
1030,955.26,2269.85,37.77,1011.86,887.14
1032,955.56,2273.19,34.79,1009.86,885.00
1034,955.87,2276.52,39.44,1011.43,882.43
1036,956.17,2279.85,50.58,1025.43,889.14
1038,956.48,2283.18,69.76,1026.57,876.71
1040,956.78,2286.50,77.79,1037.00,880.43
1042,957.08,2289.82,83.03,1037.86,876.57
1044,957.39,2293.14,90.76,1050.43,883.14
1046,957.69,2296.45,82.93,1039.86,877.57
1048,957.99,2299.76,85.17,1052.00,889.57
1050,958.30,2303.07,90.01,1048.14,884.00
1052,958.60,2306.38,78.17,1037.00,881.00
1054,958.91,2309.68,61.23,1023.14,878.86
1056,959.21,2312.98,47.22,1012.14,877.57
1058,959.51,2316.27,38.04,1009.00,881.29
1060,959.82,2319.56,37.65,1007.00,881.00
1062,960.12,2322.85,34.18,1001.43,879.14
1064,960.42,2326.14,29.58,994.00,876.00
1066,960.72,2329.42,25.97,996.86,882.43
1068,961.03,2332.70,25.29,999.14,883.43
1070,961.33,2335.97,10.85,988.57,882.71
1072,961.63,2339.25,17.50,989.86,879.00
1074,961.93,2342.52,23.82,992.29,879.57
1076,962.24,2345.78,19.69,992.43,881.14
1078,962.54,2349.05,16.14,991.57,881.00
1080,962.84,2352.31,32.72,1005.14,882.71
1082,963.14,2355.56,40.99,1005.43,878.57
1084,963.45,2358.82,45.05,1012.57,881.29
1086,963.75,2362.07,69.89,1031.71,881.86
1088,964.05,2365.32,87.97,1048.71,886.86
1090,964.35,2368.56,96.15,1049.86,881.14
1092,964.65,2371.80,112.15,1066.86,885.57
1094,964.95,2375.04,138.75,1079.57,882.29
1096,965.25,2378.27,169.86,1093.43,878.14
1098,965.56,2381.51,169.15,1095.71,882.14
1100,965.86,2384.73,161.69,1088.86,879.43
1102,966.16,2387.96,129.81,1070.29,880.86
1104,966.46,2391.18,107.32,1058.00,883.00
1106,966.76,2394.40,82.46,1042.86,884.29
1108,967.06,2397.62,65.35,1036.00,889.71
1110,967.36,2400.83,76.30,1028.14,876.57
1112,967.66,2404.04,62.61,1030.14,890.43
1114,967.96,2407.25,62.50,1018.14,878.00
1116,968.26,2410.45,52.70,1014.14,881.43
1118,968.56,2413.65,50.87,1006.29,875.57
1120,968.86,2416.85,25.53,1005.29,891.00
1122,969.16,2420.04,19.42,992.57,880.43
1124,969.46,2423.23,11.19,984.00,877.71
1126,969.76,2426.42,14.11,989.71,882.00
1128,970.06,2429.60,16.35,982.14,873.29
1130,970.36,2432.79,22.83,992.71,880.71
1132,970.66,2435.96,34.22,995.29,877.57
1134,970.96,2439.14,36.45,1000.00,879.29
1136,971.26,2442.31,33.50,1005.57,885.57
1138,971.56,2445.48,38.56,1005.57,883.43
1140,971.86,2448.65,48.28,1006.00,878.71
1142,972.16,2451.81,63.78,1018.57,881.43
1144,972.45,2454.97,52.85,1012.43,881.00
1146,972.75,2458.13,61.02,1019.29,881.71
1148,973.05,2461.28,63.75,1015.29,878.29
1150,973.35,2464.43,83.09,1028.86,882.29
1152,973.65,2467.58,64.96,1021.29,884.71
1154,973.95,2470.72,67.30,1022.00,883.00
1156,974.24,2473.86,63.54,1015.29,880.00
1158,974.54,2477.00,55.85,1008.00,876.57
1160,974.84,2480.13,46.40,1008.57,883.29
1162,975.14,2483.27,52.00,1006.14,878.57
1164,975.43,2486.40,35.03,995.86,877.57
1166,975.73,2489.52,29.82,993.71,879.71
1168,976.03,2492.64,35.28,995.29,879.86
1170,976.33,2495.76,20.33,989.57,880.57
1172,976.62,2498.88,4.90,980.29,882.00
1174,976.92,2501.99,16.61,985.57,881.86
1176,977.22,2505.10,3.50,985.71,885.29
1178,977.51,2508.21,0.00,976.14,881.86
1180,977.81,2511.31,0.00,976.57,883.00
1182,978.11,2514.41,1.70,976.00,878.57
1184,978.40,2517.51,8.88,982.86,883.00
1186,978.70,2520.61,12.01,986.86,884.86
1188,979.00,2523.70,4.85,986.71,887.71
1190,979.29,2526.79,11.62,981.86,879.14
1192,979.59,2529.87,7.04,983.86,882.86
1194,979.88,2532.95,0.00,970.43,876.43
1196,980.18,2536.03,6.42,986.14,884.57
1198,980.48,2539.11,0.00,984.86,889.57
1200,980.77,2542.18,1.73,981.00,880.29
1202,981.07,2545.25,0.00,982.86,884.57
1204,981.36,2548.32,0.18,981.14,879.71
1206,981.66,2551.38,0.94,991.86,888.86
1208,981.95,2554.44,6.47,990.43,881.71
1210,982.25,2557.50,13.42,1004.43,889.71
1212,982.54,2560.56,20.90,1008.86,891.43
1214,982.84,2563.61,42.97,1017.57,889.14
1216,983.13,2566.66,43.50,1018.71,887.14
1218,983.43,2569.70,48.13,1025.14,888.00
1220,983.72,2572.74,67.33,1034.14,886.57
1222,984.01,2575.78,87.03,1040.14,882.14
1224,984.31,2578.82,84.38,1037.00,878.29
1226,984.60,2581.85,128.50,1063.14,881.29
1228,984.90,2584.88,147.26,1067.86,879.00
1230,985.19,2587.91,150.19,1077.14,885.14
1232,985.48,2590.93,162.21,1084.71,883.86
1234,985.78,2593.96,173.95,1090.14,883.57
1236,986.07,2596.97,182.91,1091.86,882.29
1238,986.36,2599.99,177.94,1098.14,891.00
1240,986.66,2603.00,169.14,1092.29,888.29
1242,986.95,2606.01,144.77,1083.14,890.29
1244,987.24,2609.01,137.19,1079.00,888.00
1246,987.54,2612.02,105.87,1051.57,874.57
1248,987.83,2615.02,99.28,1061.86,888.00
1250,988.12,2618.01,83.29,1053.14,886.57
1252,988.41,2621.01,81.31,1053.14,886.86
1254,988.71,2624.00,85.59,1047.86,881.14
1256,989.00,2626.99,85.32,1052.29,887.43
1258,989.29,2629.97,56.68,1037.71,885.14
1260,989.58,2632.95,63.72,1042.71,884.29
1262,989.87,2635.93,25.92,1029.29,887.14
1264,990.16,2638.91,22.14,1020.57,880.29
1266,990.46,2641.88,22.09,1028.29,887.29
1268,990.75,2644.85,7.82,1030.00,894.57
1270,991.04,2647.81,2.47,1016.57,883.57
1272,991.33,2650.78,0.00,1015.43,884.57
1274,991.62,2653.74,0.00,1013.43,883.29
1276,991.91,2656.70,0.00,1013.43,882.71
1278,992.20,2659.65,0.00,1013.57,884.14
1280,992.49,2662.60,1.58,1021.00,880.71
1282,992.78,2665.55,0.00,1035.43,893.14
1284,993.07,2668.50,1.44,1042.71,892.71
1286,993.36,2671.44,10.10,1047.86,886.57
1288,993.65,2674.38,23.00,1057.14,890.00
1290,993.94,2677.31,46.10,1065.29,886.00
1292,994.23,2680.25,33.22,1068.43,888.00
1294,994.52,2683.18,67.85,1088.00,885.57
1296,994.81,2686.10,85.70,1103.14,889.00
1298,995.10,2689.03,129.59,1124.00,887.14
1300,995.39,2691.95,173.09,1144.43,885.43
1302,995.68,2694.87,241.13,1188.43,889.71
1304,995.97,2697.78,300.47,1236.71,892.29
1306,996.26,2700.70,447.09,1315.29,881.14
1308,996.55,2703.61,791.35,1475.29,887.43
1310,996.84,2706.51,1501.19,1712.43,892.71
1312,997.13,2709.42,2264.67,1907.43,890.71
1314,997.41,2712.32,2362.11,1937.43,891.57
1316,997.70,2715.21,1924.06,1837.86,887.14
1318,997.99,2718.11,1377.34,1673.86,886.29
1320,998.28,2721.00,1022.72,1545.00,888.29
1322,998.57,2723.89,762.29,1439.00,890.14
1324,998.86,2726.77,528.58,1336.86,885.71
1326,999.14,2729.66,385.96,1279.29,887.14
1328,999.43,2732.54,253.80,1228.57,888.14
1330,999.72,2735.41,165.29,1190.14,881.71
1332,1000.01,2738.29,75.58,1168.00,893.71
1334,1000.29,2741.16,41.02,1153.71,886.71
1336,1000.58,2744.03,6.68,1137.43,881.14
1338,1000.87,2746.89,0.07,1141.86,891.71
1340,1001.15,2749.75,0.00,1136.00,888.86
1342,1001.44,2752.61,0.00,1143.43,890.86
1344,1001.73,2755.47,5.59,1168.29,884.14
1346,1002.01,2758.32,59.36,1217.00,886.00
1348,1002.30,2761.17,265.65,1311.29,892.43
1350,1002.59,2764.02,755.92,1443.00,893.29
1352,1002.87,2766.86,1302.84,1544.57,887.00
1354,1003.16,2769.70,1256.19,1536.86,883.86
1356,1003.44,2772.54,726.03,1435.00,881.14
1358,1003.73,2775.38,269.73,1329.00,890.29
1360,1004.01,2778.21,63.35,1255.29,883.71
1362,1004.30,2781.04,4.74,1226.71,888.86
1364,1004.58,2783.87,0.00,1207.14,886.29
1366,1004.87,2786.69,0.00,1192.29,879.14
1368,1005.15,2789.51,0.00,1204.14,888.00
1370,1005.44,2792.33,0.00,1223.14,890.86
1372,1005.72,2795.14,0.00,1238.86,889.14
1374,1006.01,2797.95,0.00,1273.29,887.14
1376,1006.29,2800.76,12.83,1319.00,885.71
1378,1006.58,2803.57,123.11,1392.14,898.29
1380,1006.86,2806.37,351.85,1460.57,887.71
1382,1007.14,2809.17,700.59,1603.43,886.29
1384,1007.43,2811.97,1291.14,1833.57,882.43
1386,1007.71,2814.77,2456.94,2213.43,883.43
1388,1008.00,2817.56,4277.36,2716.57,883.14
1390,1008.28,2820.35,6190.93,3232.14,888.14
1392,1008.56,2823.13,7550.11,3589.29,886.57
1394,1008.85,2825.91,9132.77,3951.71,890.29
1396,1009.13,2828.69,9980.62,4076.86,889.29
1398,1009.41,2831.47,8813.26,3812.57,891.57
1400,1009.69,2834.24,6245.85,3239.71,880.43
1402,1009.98,2837.02,4237.13,2745.29,888.14
1404,1010.26,2839.78,3048.87,2374.86,889.29
1406,1010.54,2842.55,2569.18,2176.29,880.71
1408,1010.82,2845.31,2377.90,2085.71,886.29
1410,1011.11,2848.07,2416.68,2082.86,892.86
1412,1011.39,2850.83,2615.50,2124.57,893.43
1414,1011.67,2853.58,3073.89,2226.00,885.71
1416,1011.95,2856.33,3599.78,2355.00,887.14
1418,1012.23,2859.08,3991.37,2458.71,887.43
1420,1012.51,2861.83,4382.15,2567.57,884.00
1422,1012.80,2864.57,4811.78,2699.57,897.14
1424,1013.08,2867.31,5324.45,2836.14,895.57
1426,1013.36,2870.04,5873.76,2983.86,891.71
1428,1013.64,2872.78,6492.05,3153.71,893.71
1430,1013.92,2875.51,7396.63,3386.00,895.71
1432,1014.20,2878.24,8467.56,3643.43,891.43
1434,1014.48,2880.96,9599.80,3921.43,886.14
1436,1014.76,2883.68,10606.75,4171.71,883.57
1438,1015.04,2886.40,11809.58,4458.57,889.00
1440,1015.32,2889.12,13195.26,4761.14,893.00
1442,1015.60,2891.83,14277.27,4977.57,886.43
1444,1015.88,2894.54,14998.34,5160.57,891.57
1446,1016.16,2897.25,15166.41,5240.86,882.71
1448,1016.44,2899.96,15433.27,5368.71,891.86
1450,1016.72,2902.66,16295.62,5588.14,889.43
1452,1017.00,2905.36,17988.44,5961.71,897.57
1454,1017.28,2908.06,20180.63,6387.86,890.14
1456,1017.55,2910.75,22645.78,6868.86,891.43
1458,1017.83,2913.44,24651.65,7267.29,883.71
1460,1018.11,2916.13,25740.39,7532.86,891.00
1462,1018.39,2918.81,26520.64,7738.29,887.43
1464,1018.67,2921.49,27401.89,7917.57,889.57
1466,1018.95,2924.17,28723.97,8121.57,892.00
1468,1019.22,2926.85,29749.73,8223.71,888.86
1470,1019.50,2929.52,29995.52,8186.00,885.43
1472,1019.78,2932.20,29150.43,7949.71,881.86
1474,1020.06,2934.86,27679.69,7613.29,889.43
1476,1020.33,2937.53,25582.02,7158.14,895.71
1478,1020.61,2940.19,23197.09,6636.57,890.86
1480,1020.89,2942.85,21195.46,6179.29,890.00
1482,1021.17,2945.51,19935.06,5855.29,892.86
1484,1021.44,2948.16,18876.15,5558.86,889.00
1486,1021.72,2950.81,17984.39,5317.14,890.14
1488,1022.00,2953.46,17452.34,5170.14,896.00
1490,1022.27,2956.11,17051.09,5047.14,889.57
1492,1022.55,2958.75,16953.13,5015.00,892.57
1494,1022.82,2961.39,16917.69,5004.29,887.14
1496,1023.10,2964.03,17290.36,5088.00,898.00
1498,1023.38,2966.66,18618.78,5315.71,885.14
1500,1023.65,2969.29,20345.65,5607.00,893.14
1502,1023.93,2971.92,22484.41,5932.57,893.14
1504,1024.20,2974.55,24697.44,6234.57,895.71
1506,1024.48,2977.17,26218.15,6398.57,891.29
1508,1024.75,2979.79,26031.66,6293.86,884.29
1510,1025.03,2982.41,24341.48,5988.43,892.57
1512,1025.30,2985.02,21206.73,5426.57,885.14
1514,1025.58,2987.63,17969.50,4856.00,892.14
1516,1025.85,2990.24,14796.30,4255.71,885.86
1518,1026.13,2992.85,12280.86,3766.43,896.29
1520,1026.40,2995.45,10299.43,3345.00,890.29
1522,1026.68,2998.05,8677.57,3000.29,888.29
1524,1026.95,3000.65,7300.21,2721.43,893.14
1526,1027.22,3003.25,6087.79,2468.00,887.43
1528,1027.50,3005.84,5171.18,2275.86,886.86
1530,1027.77,3008.43,4416.97,2120.71,886.86
1532,1028.04,3011.02,3663.65,1980.71,891.57
1534,1028.32,3013.60,2969.90,1849.00,889.71
1536,1028.59,3016.18,2369.54,1736.00,892.14
1538,1028.86,3018.76,2005.28,1646.00,876.00
1540,1029.14,3021.34,1625.21,1583.14,889.14
1542,1029.41,3023.91,1240.71,1504.43,883.43
1544,1029.68,3026.48,940.73,1453.57,884.29
1546,1029.95,3029.05,578.44,1396.86,888.71
1548,1030.22,3031.61,299.81,1344.86,887.43
1550,1030.50,3034.17,209.27,1320.71,886.57
1552,1030.77,3036.73,67.00,1281.71,885.71
1554,1031.04,3039.29,4.20,1249.71,890.14
1556,1031.31,3041.84,0.00,1214.86,882.14
1558,1031.58,3044.39,0.00,1208.86,896.57
1560,1031.85,3046.94,0.00,1185.57,891.86
1562,1032.13,3049.49,0.00,1162.00,882.86
1564,1032.40,3052.03,0.00,1152.43,893.29
1566,1032.67,3054.57,0.00,1136.14,886.29
1568,1032.94,3057.11,0.00,1128.43,893.29
1570,1033.21,3059.64,0.00,1099.43,884.14
1572,1033.48,3062.18,4.76,1107.43,892.00
1574,1033.75,3064.70,0.00,1087.71,890.86
1576,1034.02,3067.23,0.00,1083.29,889.57
1578,1034.29,3069.75,0.00,1066.00,884.43
1580,1034.56,3072.28,5.54,1064.29,887.86
1582,1034.83,3074.79,0.00,1045.29,880.57
1584,1035.10,3077.31,0.16,1048.71,889.71
1586,1035.37,3079.82,0.00,1036.00,886.29
1588,1035.64,3082.33,0.00,1036.71,898.57
1590,1035.91,3084.84,0.00,1027.29,890.14
1592,1036.17,3087.34,0.00,1012.57,884.71
1594,1036.44,3089.85,0.00,1019.86,895.71
1596,1036.71,3092.35,0.00,1009.29,887.14
1598,1036.98,3094.84,6.65,1003.71,883.71
1600,1037.25,3097.34,2.73,995.86,880.86
1602,1037.52,3099.83,0.00,996.43,887.00
1604,1037.78,3102.32,0.00,992.00,889.14
1606,1038.05,3104.80,0.00,995.14,893.86
1608,1038.32,3107.29,8.78,992.43,889.00
1610,1038.59,3109.77,38.91,985.86,881.71
1612,1038.85,3112.24,41.97,984.43,882.43
1614,1039.12,3114.72,0.00,985.86,892.14
1616,1039.39,3117.19,1.28,975.43,881.00
1618,1039.66,3119.66,0.00,983.00,894.43
1620,1039.92,3122.13,12.49,987.43,892.86
1622,1040.19,3124.59,11.30,984.14,892.00
1624,1040.45,3127.05,38.30,976.86,883.00
1626,1040.72,3129.51,64.77,983.43,887.71
1628,1040.99,3131.97,18.23,982.86,892.14
1630,1041.25,3134.42,47.35,987.29,893.00
1632,1041.52,3136.87,43.53,973.29,881.14
1634,1041.78,3139.32,87.67,982.71,887.00
1636,1042.05,3141.77,33.64,997.00,907.14
1638,1042.32,3144.21,60.54,978.71,885.71
1640,1042.58,3146.65,83.40,986.00,892.00
1642,1042.85,3149.09,82.83,983.57,891.43
1644,1043.11,3151.52,63.86,977.43,888.00
1646,1043.38,3153.96,106.07,985.57,891.29
1648,1043.64,3156.39,89.30,976.71,885.71
1650,1043.90,3158.81,202.55,988.57,888.29
1652,1044.17,3161.24,216.05,992.14,893.00
1654,1044.43,3163.66,173.71,981.43,886.57
1656,1044.70,3166.08,228.14,995.43,894.14
1658,1044.96,3168.49,126.20,982.43,891.71
1660,1045.22,3170.91,177.44,983.14,887.43
1662,1045.49,3173.32,198.25,987.00,891.71
1664,1045.75,3175.73,242.75,988.14,890.86
1666,1046.01,3178.13,232.47,981.14,886.00
1668,1046.28,3180.54,270.18,993.14,894.71
1670,1046.54,3182.94,285.35,991.29,891.43
1672,1046.80,3185.34,281.94,988.43,889.71
1674,1047.07,3187.73,344.18,987.57,885.14
1676,1047.33,3190.12,402.98,991.29,885.71
1678,1047.59,3192.51,321.32,992.57,894.57
1680,1047.85,3194.90,286.73,996.14,901.00
1682,1048.11,3197.29,370.42,993.29,890.86
1684,1048.38,3199.67,341.74,990.00,892.29
1686,1048.64,3202.05,382.59,995.43,895.86
1688,1048.90,3204.43,469.13,994.43,888.29
1690,1049.16,3206.80,472.94,992.71,887.14
1692,1049.42,3209.17,473.48,998.00,894.00
1694,1049.68,3211.54,516.26,990.86,884.86
1696,1049.94,3213.91,537.81,996.00,888.57
1698,1050.20,3216.27,475.85,994.43,891.86
1700,1050.46,3218.63,474.54,1000.00,897.86
1702,1050.72,3220.99,511.98,994.29,890.71
1704,1050.98,3223.35,537.13,993.57,890.29
1706,1051.24,3225.70,594.23,992.43,886.29
1708,1051.50,3228.05,639.66,994.71,886.00
1710,1051.76,3230.40,610.05,998.00,892.43
1712,1052.02,3232.75,602.56,995.29,891.14
1714,1052.28,3235.09,631.42,1002.43,896.71
1716,1052.54,3237.43,640.01,994.14,888.14
1718,1052.80,3239.77,536.96,985.00,888.29
1720,1053.06,3242.11,715.91,995.71,887.43
1722,1053.32,3244.44,692.10,989.86,885.29
1724,1053.58,3246.77,661.31,997.00,895.00
1726,1053.84,3249.10,584.03,988.43,892.43
1728,1054.10,3251.42,653.04,989.86,889.86
1730,1054.35,3253.75,651.08,987.86,889.86
1732,1054.61,3256.07,663.66,992.71,895.43
1734,1054.87,3258.39,655.19,986.00,890.00
1736,1055.13,3260.70,570.60,981.14,891.14
1738,1055.38,3263.01,604.61,982.57,890.57
1740,1055.64,3265.32,656.67,983.29,889.43
1742,1055.90,3267.63,676.30,977.29,884.57
1744,1056.16,3269.94,689.00,988.29,895.71
1746,1056.41,3272.24,627.51,987.29,897.86
1748,1056.67,3274.54,547.23,979.43,895.43
1750,1056.93,3276.84,579.08,979.57,895.71
1752,1057.18,3279.13,684.15,976.71,888.71
1754,1057.44,3281.42,551.05,967.14,888.00
1756,1057.69,3283.71,586.39,969.57,887.43
1758,1057.95,3286.00,588.35,979.29,897.43
1760,1058.21,3288.28,563.16,965.71,887.43
1762,1058.46,3290.57,706.26,978.57,893.57
1764,1058.72,3292.85,538.82,969.71,895.86
1766,1058.97,3295.12,611.98,963.29,884.86
1768,1059.23,3297.40,531.76,960.43,886.57
1770,1059.48,3299.67,526.29,968.14,895.14
1772,1059.74,3301.94,550.49,959.86,887.00
1774,1059.99,3304.21,600.80,967.71,893.86
1776,1060.25,3306.47,598.82,969.71,897.29
1778,1060.50,3308.73,552.47,956.43,887.00
1780,1060.76,3310.99,624.33,961.00,887.29
1782,1061.01,3313.25,485.03,955.71,890.00
1784,1061.26,3315.50,485.69,955.14,890.00
1786,1061.52,3317.76,591.13,963.43,893.57
1788,1061.77,3320.01,557.89,960.43,894.00
1790,1062.02,3322.25,524.80,949.29,886.00
1792,1062.28,3324.50,582.59,955.43,890.00
1794,1062.53,3326.74,573.68,947.14,882.29
1796,1062.78,3328.98,510.53,949.00,887.43
1798,1063.04,3331.22,582.97,952.00,887.14
1800,1063.29,3333.45,441.56,945.14,888.71
1802,1063.54,3335.68,552.11,950.14,888.86
1804,1063.79,3337.91,559.84,950.71,889.57
1806,1064.05,3340.14,589.29,958.86,896.71
1808,1064.30,3342.36,480.81,942.57,886.57
1810,1064.55,3344.59,481.04,951.29,896.14
1812,1064.80,3346.81,513.40,945.29,889.43
1814,1065.05,3349.02,521.09,943.86,888.00
1816,1065.30,3351.24,520.84,948.57,892.57
1818,1065.55,3353.45,387.02,939.43,890.29
1820,1065.81,3355.66,514.30,954.00,900.00
1822,1066.06,3357.87,502.55,941.43,889.57
1824,1066.31,3360.07,620.42,939.71,883.29
1826,1066.56,3362.27,432.55,942.29,894.14
1828,1066.81,3364.47,535.56,936.43,883.86
1830,1067.06,3366.67,470.31,940.43,891.29
1832,1067.31,3368.87,480.39,935.71,886.29
1834,1067.56,3371.06,320.24,924.14,882.29
1836,1067.81,3373.25,488.90,929.00,880.57
1838,1068.06,3375.44,521.14,934.29,885.71
1840,1068.31,3377.62,546.94,933.43,884.43
1842,1068.56,3379.81,561.71,929.57,880.43
1844,1068.80,3381.99,545.97,945.43,897.86
1846,1069.05,3384.16,526.63,939.71,893.71
1848,1069.30,3386.34,450.37,930.86,887.71
1850,1069.55,3388.51,492.36,932.14,886.43
1852,1069.80,3390.68,401.36,931.29,889.14
1854,1070.05,3392.85,474.09,944.71,900.29
1856,1070.30,3395.02,513.88,929.86,885.71
1858,1070.54,3397.18,554.24,928.00,884.14
1860,1070.79,3399.34,634.94,933.57,887.43
1862,1071.04,3401.50,543.30,931.00,887.71
1864,1071.29,3403.66,613.74,924.57,878.43
1866,1071.53,3405.81,527.73,932.71,890.57
1868,1071.78,3407.96,595.93,928.86,885.00
1870,1072.03,3410.11,379.52,927.71,891.86
1872,1072.27,3412.26,356.49,924.86,890.00
1874,1072.52,3414.40,446.49,925.86,888.57
1876,1072.77,3416.54,742.03,931.43,885.29
1878,1073.01,3418.68,474.24,931.00,894.00
1880,1073.26,3420.82,413.99,915.14,879.43
1882,1073.51,3422.96,414.64,927.29,891.00
1884,1073.75,3425.09,369.39,924.29,890.43
1886,1074.00,3427.22,518.54,915.57,878.29
1888,1074.24,3429.35,600.93,930.43,892.43
1890,1074.49,3431.47,721.62,921.71,880.86
1892,1074.73,3433.59,487.04,917.86,883.57
1894,1074.98,3435.71,549.93,930.86,893.57
1896,1075.22,3437.83,342.89,919.14,888.29
1898,1075.47,3439.95,443.21,924.57,890.29
1900,1075.71,3442.06,362.59,924.57,894.14
1902,1075.96,3444.17,568.60,920.43,885.29
1904,1076.20,3446.28,679.44,906.86,870.14
1906,1076.44,3448.38,468.61,927.71,896.86
1908,1076.69,3450.49,323.04,921.86,894.57
1910,1076.93,3452.59,446.80,920.29,888.86
1912,1077.17,3454.69,399.73,914.43,885.14
1914,1077.42,3456.79,529.42,918.00,885.71
1916,1077.66,3458.88,497.13,916.43,885.43
1918,1077.90,3460.97,416.62,913.57,885.29
1920,1078.15,3463.06,545.57,924.57,893.71
1922,1078.39,3465.15,468.51,918.00,889.86
1924,1078.63,3467.23,452.39,910.14,882.00
1926,1078.87,3469.32,234.25,915.71,893.14
1928,1079.12,3471.40,220.47,908.86,886.71
1930,1079.36,3473.47,331.11,923.43,898.43
1932,1079.60,3475.55,372.32,909.86,884.29
1934,1079.84,3477.62,496.96,916.57,888.43
1936,1080.08,3479.69,641.81,913.86,883.29
1938,1080.33,3481.76,532.71,909.86,882.86
1940,1080.57,3483.83,467.12,913.29,888.00
1942,1080.81,3485.89,368.50,912.00,888.86
1944,1081.05,3487.95,385.05,914.71,890.71
1946,1081.29,3490.01,438.60,917.43,891.14
1948,1081.53,3492.07,138.99,905.00,887.14
1950,1081.77,3494.12,332.81,907.86,884.86
1952,1082.01,3496.18,374.55,913.43,890.71
1954,1082.25,3498.23,440.89,910.29,887.43
1956,1082.49,3500.27,542.53,913.57,889.57
1958,1082.73,3502.32,571.55,905.57,881.14
1960,1082.97,3504.36,456.81,911.57,888.57
1962,1083.21,3506.40,219.27,907.57,889.00
1964,1083.45,3508.44,237.54,900.86,880.86
1966,1083.69,3510.48,119.56,915.14,899.29
1968,1083.93,3512.51,567.55,912.57,887.43
1970,1084.16,3514.54,692.80,909.29,884.57
1972,1084.40,3516.57,725.10,909.29,884.29
1974,1084.64,3518.60,431.65,904.14,883.29
1976,1084.88,3520.62,230.48,910.86,893.43
1978,1085.12,3522.65,191.08,913.86,897.14
1980,1085.36,3524.67,149.04,903.29,888.14
1982,1085.59,3526.68,263.83,901.00,884.14
1984,1085.83,3528.70,441.49,913.71,894.57
1986,1086.07,3530.71,444.19,905.00,886.29
1988,1086.31,3532.72,186.88,906.86,892.57
1990,1086.54,3534.73,276.13,899.29,882.86
1992,1086.78,3536.74,308.89,914.57,897.00
1994,1087.02,3538.74,108.19,904.71,891.86
1996,1087.25,3540.74,260.44,899.00,883.43
1998,1087.49,3542.74,439.58,905.29,887.14
2000,1087.73,3544.74,537.89,905.86,886.14
2002,1087.96,3546.74,169.25,903.14,890.00
2004,1088.20,3548.73,298.58,912.14,896.43
2006,1088.43,3550.72,437.58,904.43,886.00
2008,1088.67,3552.71,366.29,900.43,883.71
2010,1088.90,3554.69,360.51,899.29,883.43
2012,1089.14,3556.68,377.41,902.14,886.86
2014,1089.38,3558.66,567.07,899.43,881.43
2016,1089.61,3560.64,474.12,897.29,879.71
2018,1089.84,3562.62,197.50,903.86,890.57
2020,1090.08,3564.59,109.83,898.00,886.57
2022,1090.31,3566.56,152.11,895.14,883.29
2024,1090.55,3568.53,217.75,897.71,885.43
2026,1090.78,3570.50,411.86,894.14,879.57
2028,1091.02,3572.47,293.53,895.71,883.00
2030,1091.25,3574.43,255.75,895.86,883.43
2032,1091.48,3576.39,183.89,886.29,874.57
2034,1091.72,3578.35,104.87,887.71,877.29
2036,1091.95,3580.31,0.69,895.71,887.57
2038,1092.18,3582.26,197.25,886.71,875.57
2040,1092.42,3584.22,0.00,885.00,877.86
2042,1092.65,3586.17,176.66,889.43,879.43
2044,1092.88,3588.12,59.50,882.86,873.86
2046,1093.11,3590.06,28.63,883.57,874.00
2047,1093.23,3591.03,4.47,880.14,871.57