File: plugins/Raman/MatchingLibrary/785X/thiamine HCl.csv
ENLIGHTEN Version,4.1.22
Measurement ID,20250220-200904-961908-WP-01977
Serial Number,WP-01977
Model,WP-785X-F13-R-ILC
Detector,S16011-1106
Label,thiamine HCl
Declared Match,
Declared Score,0
Scan Averaging,2
Boxcar,0
Technique,Raman
Baseline Correction Algo,AirPLS
ROI Pixel Start,47
ROI Pixel End,2047
ROI Start Line,0
ROI Stop Line,63
CCD C4,1.38617e-12
Slit Width,25
Cropped,True
Interpolated,False
Wavenumber Correction,-0.100481
Raman Intensity Corrected,True
Deconvolved,True
Region,
High Gain Mode,False
Laser Power mW,
Electrical Dark Correction,False
Battery %,
Device ID,<DeviceID USB:0x24aa:0x1000:0:1>
FW Version,10.0.0.10
FPGA Version,035-001
BLE Version,
Prefix,enlighten
Suffix,
Preset,
Auto-Raman,True
Session Count,0
Plugin Name,
Integration Time,712
Timestamp,2025-02-20 20:09:04.961908
Note,
Temperature,0
CCD C0,793.274
CCD C1,0.153259
CCD C2,1.40788e-05
CCD C3,-1.132e-08
CCD Offset,0
CCD Gain,1.9
CCD Offset Odd,0
CCD Gain Odd,1.9
Laser Wavelength,785.032
Laser Enable,False
Laser Power %,0
Laser Temperature,0
Pixel Count,2048

Pixel,Wavelength,Wavenumber,Processed,Raw,Dark
0,793.27,132.25,NA,1090.00,1002.00
2,793.58,137.12,NA,1118.50,1026.50
4,793.89,141.99,NA,1098.50,1020.50
6,794.19,146.86,NA,1113.50,1020.00
8,794.50,151.72,NA,1130.00,1042.00
10,794.81,156.58,NA,1137.00,1039.00
12,795.12,161.44,NA,1097.50,1013.50
14,795.42,166.30,NA,1117.50,1011.50
16,795.73,171.16,NA,1114.50,1021.00
18,796.04,176.01,NA,1154.00,1051.50
20,796.35,180.86,NA,1152.50,1030.00
22,796.65,185.71,NA,1183.00,1082.50
24,796.96,190.56,NA,1167.00,1039.00
26,797.27,195.41,NA,1186.00,1069.00
28,797.58,200.25,NA,1187.00,1045.50
30,797.88,205.09,NA,1174.00,1026.50
32,798.19,209.93,NA,1189.00,1033.00
34,798.50,214.77,NA,1187.00,1030.50
36,798.81,219.60,NA,1212.50,1026.50
38,799.12,224.43,NA,1347.50,1041.50
40,799.43,229.27,NA,1896.00,1080.00
42,799.74,234.09,NA,3891.50,1048.50
44,800.04,238.92,NA,6984.50,1091.00
46,800.35,243.75,NA,9220.00,1059.00
48,800.66,248.57,2369.38,10635.50,1073.00
50,800.97,253.39,2608.23,10298.50,1073.00
52,801.28,258.21,429.14,8661.00,1084.50
54,801.59,263.02,0.48,7430.00,1077.00
56,801.90,267.83,0.00,6832.50,1072.50
58,802.21,272.65,0.00,6790.50,1080.50
60,802.52,277.46,0.24,7083.50,1063.50
62,802.83,282.26,393.82,7934.00,1094.00
64,803.14,287.07,1584.59,8761.00,1098.50
66,803.45,291.87,1596.52,8915.50,1097.00
68,803.76,296.67,968.84,8374.50,1087.00
70,804.07,301.47,823.71,8098.50,1068.50
72,804.38,306.26,916.23,8064.00,1056.00
74,804.69,311.06,749.52,7878.00,1061.50
76,805.00,315.85,703.21,7822.00,1052.00
78,805.31,320.64,776.48,7917.00,1069.00
80,805.62,325.42,1129.80,8315.50,1079.50
82,805.93,330.21,1332.37,8822.50,1079.00
84,806.24,334.99,2104.83,10348.50,1051.00
86,806.55,339.77,5376.55,14392.50,1073.50
88,806.86,344.55,9774.07,18340.50,1078.00
90,807.17,349.32,8328.99,17119.50,1057.00
92,807.48,354.10,3742.41,12391.50,1056.00
94,807.80,358.87,1328.97,8948.50,1083.50
96,808.11,363.63,382.20,7254.50,1069.00
98,808.42,368.40,38.25,6654.50,1043.50
100,808.73,373.16,0.08,6410.50,1049.50
102,809.04,377.93,0.00,6228.00,1041.00
104,809.35,382.68,0.00,6216.00,1047.50
106,809.66,387.44,0.00,6246.50,1063.50
108,809.98,392.19,0.04,6345.00,1035.00
110,810.29,396.95,53.02,6667.50,1062.50
112,810.60,401.70,679.33,7589.50,1055.00
114,810.91,406.44,1854.84,8876.00,1059.00
116,811.22,411.19,2444.42,9471.00,1072.50
118,811.54,415.93,1519.18,8583.50,1065.50
120,811.85,420.67,389.52,7302.50,1045.50
122,812.16,425.41,17.96,6643.00,1042.50
124,812.47,430.14,0.00,6493.00,1070.00
126,812.79,434.87,0.12,6521.00,1044.00
128,813.10,439.60,128.00,6839.50,1029.50
130,813.41,444.33,566.80,7242.00,1045.50
132,813.72,449.06,469.20,7312.50,1036.00
134,814.04,453.78,617.14,7611.50,1048.00
136,814.35,458.50,1069.31,8055.50,1030.00
138,814.66,463.22,1119.36,8065.00,1025.50
140,814.98,467.93,525.78,7520.00,1036.00
142,815.29,472.65,128.55,6965.00,1054.00
144,815.60,477.36,87.19,6843.50,1055.00
146,815.92,482.06,1.69,6702.50,1029.50
148,816.23,486.77,0.00,6675.50,1065.50
150,816.54,491.47,0.00,6754.00,1091.00
152,816.86,496.17,6.86,6908.00,1035.00
154,817.17,500.87,360.12,7610.50,1055.00
156,817.48,505.57,1293.97,8782.50,1041.50
158,817.80,510.26,1919.62,10040.00,1032.50
160,818.11,514.95,3579.72,12024.00,1057.00
162,818.42,519.64,4601.80,12676.50,1056.00
164,818.74,524.32,1527.09,9919.00,1046.50
166,819.05,529.00,287.45,8011.00,1069.00
168,819.37,533.68,734.83,9222.00,1052.50
170,819.68,538.36,4293.69,14258.50,1065.50
172,819.99,543.04,9527.65,18986.50,1072.00
174,820.31,547.71,6721.57,16806.50,1054.00
176,820.62,552.38,2135.18,11545.00,1029.50
178,820.94,557.05,962.60,9380.50,1037.50
180,821.25,561.71,1908.29,10576.50,1013.50
182,821.57,566.37,4295.07,13371.00,1036.00
184,821.88,571.03,5342.73,15432.00,1054.00
186,822.20,575.69,5525.67,16824.50,1057.50
188,822.51,580.34,9536.38,21030.50,1055.00
190,822.83,584.99,10417.16,21264.00,1064.50
192,823.14,589.64,3662.56,14368.00,1048.50
194,823.46,594.29,1349.53,10271.00,1040.00
196,823.77,598.93,1711.65,9961.00,1053.00
198,824.09,603.57,1932.24,9758.50,1018.00
200,824.40,608.21,1158.37,8944.00,1043.50
202,824.72,612.85,172.68,7831.50,1067.00
204,825.03,617.48,27.15,7409.50,1050.50
206,825.35,622.11,549.08,8975.50,1072.00
208,825.66,626.74,3551.73,12158.00,1059.00
210,825.98,631.36,4535.26,13304.00,1040.50
212,826.29,635.99,2513.82,11640.00,1049.00
214,826.61,640.61,2444.37,11190.00,1050.00
216,826.92,645.22,3353.00,11437.00,1033.50
218,827.24,649.84,1347.07,9448.00,1020.00
220,827.56,654.45,378.70,8030.00,1057.00
222,827.87,659.06,1021.94,9142.50,1061.00
224,828.19,663.67,3265.34,11528.50,1040.00
226,828.50,668.27,4109.25,12439.00,1099.50
228,828.82,672.87,2137.53,10502.50,1056.00
230,829.13,677.47,1311.11,9265.50,1036.00
232,829.45,682.06,1727.33,9637.00,1055.00
234,829.77,686.66,2497.19,10485.50,1128.00
236,830.08,691.25,2836.97,10660.00,1048.50
238,830.40,695.83,1964.90,9588.50,1034.00
240,830.72,700.42,879.62,8042.50,1050.50
242,831.03,705.00,422.87,7059.00,989.50
244,831.35,709.58,137.04,6604.00,1045.50
246,831.66,714.15,1.83,6229.50,1006.50
248,831.98,718.73,0.00,6033.50,1050.50
250,832.30,723.30,0.00,5889.00,1028.50
252,832.61,727.87,0.00,5986.50,1063.50
254,832.93,732.43,9.34,6321.50,995.00
256,833.25,736.99,389.59,7688.00,1064.00
258,833.56,741.55,1999.00,12350.00,1047.50
260,833.88,746.11,10471.99,26837.00,1038.00
262,834.20,750.66,28463.79,44101.00,1042.50
264,834.51,755.22,20444.36,37660.00,1068.00
266,834.83,759.76,5372.01,19412.00,1055.00
268,835.15,764.31,1868.22,11404.50,1053.00
270,835.47,768.85,2164.15,10319.50,1019.00
272,835.78,773.39,3265.16,10877.50,1042.00
274,836.10,777.93,1924.48,9489.00,1034.00
276,836.42,782.46,566.95,7698.50,1038.00
278,836.73,787.00,287.56,7020.00,1023.50
280,837.05,791.52,412.94,7047.50,1010.00
282,837.37,796.05,521.48,7222.00,1054.00
284,837.69,800.57,693.23,7604.00,1030.00
286,838.00,805.09,1323.02,8776.50,1023.00
288,838.32,809.61,2729.80,10868.50,1046.50
290,838.64,814.13,4199.27,12875.00,1053.00
292,838.95,818.64,4873.84,13611.50,1032.00
294,839.27,823.15,4180.07,12526.50,1034.00
296,839.59,827.65,1924.98,9523.00,1049.50
298,839.91,832.15,439.86,7258.00,1022.50
300,840.22,836.65,6.24,6154.50,1080.50
302,840.54,841.15,0.00,5688.50,1023.00
304,840.86,845.65,0.00,5634.50,1059.00
306,841.18,850.14,0.00,5719.50,1050.50
308,841.50,854.63,11.64,6217.00,1107.00
310,841.81,859.11,419.74,7335.00,1036.00
312,842.13,863.60,2337.00,10047.00,1051.00
314,842.45,868.07,4601.70,12196.00,1030.00
316,842.77,872.55,2781.77,10653.50,1046.50
318,843.08,877.03,712.85,8001.50,1069.50
320,843.40,881.50,177.16,6728.50,1011.00
322,843.72,885.97,127.75,6598.50,1068.50
324,844.04,890.43,402.72,6973.50,1025.50
326,844.36,894.89,888.76,7562.50,1030.00
328,844.67,899.35,1030.56,7852.50,1058.00
330,844.99,903.81,814.38,7726.50,1013.00
332,845.31,908.26,896.73,7914.50,1051.50
334,845.63,912.71,1456.77,8499.50,1058.00
336,845.95,917.16,1331.10,8503.50,1056.00
338,846.27,921.61,998.02,8735.00,1339.50
340,846.58,926.05,1837.35,10048.00,1037.00
342,846.90,930.49,4156.78,13233.50,1052.00
344,847.22,934.92,5959.21,15632.50,1050.50
346,847.54,939.36,6046.73,16125.00,1004.50
348,847.86,943.79,5121.10,15171.00,1033.00
350,848.18,948.21,4733.24,14223.50,1020.00
352,848.49,952.64,4180.12,12881.50,1043.50
354,848.81,957.06,2270.07,10328.00,1001.00
356,849.13,961.48,700.64,8097.50,1068.00
358,849.45,965.89,391.17,7323.00,1067.50
360,849.77,970.31,1001.84,7858.00,1034.00
362,850.09,974.71,1157.77,7944.50,1033.00
364,850.40,979.12,479.67,7319.00,1064.50
366,850.72,983.52,399.22,7208.50,1080.50
368,851.04,987.92,771.84,7506.00,1014.50
370,851.36,992.32,899.89,7622.50,1007.50
372,851.68,996.72,565.61,7346.50,1044.00
374,852.00,1001.11,454.81,7124.00,1022.00
376,852.32,1005.50,553.60,7053.00,1004.50
378,852.63,1009.88,294.47,6905.50,1066.50
380,852.95,1014.26,3.08,6390.00,1039.50
382,853.27,1018.64,0.00,6244.50,1057.00
384,853.59,1023.02,55.08,6570.00,1026.50
386,853.91,1027.39,486.93,6927.00,1024.00
388,854.23,1031.76,384.29,6910.00,1027.50
390,854.55,1036.13,241.72,6846.00,1025.50
392,854.87,1040.49,486.52,7286.00,1024.00
394,855.18,1044.86,1087.13,8093.50,1050.00
396,855.50,1049.21,1458.30,8718.50,1038.00
398,855.82,1053.57,1650.54,9192.00,1052.00
400,856.14,1057.92,2277.18,9869.50,1032.00
402,856.46,1062.27,2191.00,9745.00,1027.00
404,856.78,1066.62,1476.92,8974.50,1013.50
406,857.10,1070.96,1309.73,8644.00,1014.50
408,857.42,1075.30,1568.27,8865.50,1061.00
410,857.74,1079.64,1469.40,8814.00,1030.50
412,858.06,1083.97,1447.73,8883.00,1019.00
414,858.37,1088.30,2020.12,9523.00,1014.00
416,858.69,1092.63,2149.92,9528.00,1008.50
418,859.01,1096.95,1653.73,8862.50,1006.00
420,859.33,1101.27,813.56,7752.50,1029.50
422,859.65,1105.59,280.90,6849.00,1023.00
424,859.97,1109.91,49.48,6418.00,1011.50
426,860.29,1114.22,0.00,6210.00,1015.50
428,860.61,1118.53,0.00,6176.50,1013.50
430,860.93,1122.84,0.00,6189.50,1020.00
432,861.25,1127.14,0.00,6192.00,1048.00
434,861.56,1131.44,0.00,6145.50,1014.50
436,861.88,1135.74,0.00,6204.00,1018.00
438,862.20,1140.03,0.00,6300.50,1040.00
440,862.52,1144.32,0.00,6348.50,1039.00
442,862.84,1148.61,0.00,6480.00,1048.50
444,863.16,1152.89,0.00,6565.00,1019.00
446,863.48,1157.17,0.00,6624.00,1020.50
448,863.80,1161.45,0.00,6941.00,1020.00
450,864.12,1165.73,18.13,7390.00,1038.00
452,864.44,1170.00,431.06,8144.50,1016.00
454,864.76,1174.27,901.00,8936.50,1044.00
456,865.07,1178.53,1101.88,9631.00,1018.00
458,865.39,1182.80,1483.04,10493.00,1049.00
460,865.71,1187.06,2389.15,11514.50,1037.00
462,866.03,1191.31,2085.65,11284.00,1029.50
464,866.35,1195.57,662.01,9921.00,1029.50
466,866.67,1199.82,223.50,9235.50,1037.00
468,866.99,1204.06,446.03,9575.00,1037.00
470,867.31,1208.31,640.65,9973.00,1048.50
472,867.63,1212.55,562.00,10336.50,1039.00
474,867.95,1216.79,1198.15,11749.00,1007.00
476,868.27,1221.02,2974.00,14182.50,1029.00
478,868.58,1225.25,4175.20,15991.00,1004.00
480,868.90,1229.48,3773.49,16332.50,1050.50
482,869.22,1233.71,4810.63,17592.50,1047.50
484,869.54,1237.93,5407.13,18327.00,1066.50
486,869.86,1242.15,2973.41,16290.00,1030.50
488,870.18,1246.36,3384.48,17231.00,1009.50
490,870.50,1250.58,7407.47,20887.00,1033.50
492,870.82,1254.79,6512.56,19828.50,1076.00
494,871.14,1258.99,1421.80,14876.50,1050.00
496,871.46,1263.20,41.94,11975.00,1046.50
498,871.78,1267.40,0.00,11280.00,1021.50
500,872.10,1271.59,3.29,11687.50,1025.00
502,872.41,1275.79,355.59,13265.00,1015.50
504,872.73,1279.98,2954.82,16756.00,1033.50
506,873.05,1284.17,6396.50,19784.00,1047.50
508,873.37,1288.35,3695.50,17795.50,998.00
510,873.69,1292.53,952.61,14551.00,1014.50
512,874.01,1296.71,366.26,13388.00,1011.00
514,874.33,1300.88,499.60,13803.00,995.00
516,874.65,1305.06,1860.41,16400.00,1017.00
518,874.97,1309.22,5382.37,20295.50,1014.00
520,875.29,1313.39,6780.32,21725.00,1023.00
522,875.60,1317.55,3371.18,18926.50,1039.00
524,875.92,1321.71,1574.36,16728.00,1022.00
526,876.24,1325.87,2241.23,17607.50,1049.50
528,876.56,1330.02,4857.45,20012.00,1029.50
530,876.88,1334.17,4939.79,20107.00,1047.50
532,877.20,1338.32,1987.30,17301.00,1000.00
534,877.52,1342.46,854.97,15673.00,998.50
536,877.84,1346.60,1009.58,15857.50,1046.50
538,878.16,1350.73,2015.19,17197.50,1016.00
540,878.47,1354.87,2843.19,18570.00,1030.50
542,878.79,1359.00,3886.89,20166.50,1023.00
544,879.11,1363.13,4915.72,21359.00,1036.00
546,879.43,1367.25,4188.25,20818.50,1014.00
548,879.75,1371.37,2939.48,20016.00,1013.00
550,880.07,1375.49,3186.81,21077.50,1019.00
552,880.39,1379.60,6531.43,25610.50,1027.50
554,880.71,1383.71,11391.01,30326.50,1023.50
556,881.03,1387.82,10722.73,29774.50,1015.00
558,881.34,1391.93,5386.26,24385.00,1001.00
560,881.66,1396.03,2307.99,19933.00,1008.50
562,881.98,1400.13,1594.06,18318.50,1044.00
564,882.30,1404.22,1596.98,17839.00,1036.50
566,882.62,1408.31,1202.03,17307.50,1020.00
568,882.94,1412.40,475.53,16706.50,1035.00
570,883.26,1416.49,195.27,16342.50,1029.50
572,883.57,1420.57,516.61,16875.50,1055.00
574,883.89,1424.65,1424.33,17897.00,1008.00
576,884.21,1428.73,2374.66,19076.00,1044.50
578,884.53,1432.80,2888.67,19985.50,1059.00
580,884.85,1436.87,3197.65,20715.00,1017.00
582,885.17,1440.93,4486.19,22369.50,1003.00
584,885.49,1445.00,6237.37,24018.50,1012.50
586,885.80,1449.06,6077.19,23654.00,1011.50
588,886.12,1453.11,4065.73,21410.00,1060.00
590,886.44,1457.17,2398.75,19129.50,1034.00
592,886.76,1461.22,1548.65,17634.00,1029.50
594,887.08,1465.26,1455.84,17432.00,1048.50
596,887.40,1469.31,1537.95,17810.50,1006.00
598,887.71,1473.35,2965.58,20248.50,1004.50
600,888.03,1477.38,7243.56,24732.50,1043.50
602,888.35,1481.42,10054.18,26836.00,1038.00
604,888.67,1485.45,5085.41,22656.50,1035.00
606,888.99,1489.48,1930.58,18503.50,1014.00
608,889.31,1493.50,1754.02,17608.50,1041.50
610,889.62,1497.52,2663.26,18195.00,1025.50
612,889.94,1501.54,3117.65,18560.50,1002.00
614,890.26,1505.56,3280.74,18712.50,1012.00
616,890.58,1509.57,3043.96,18275.00,1016.50
618,890.90,1513.57,2125.49,17105.00,1016.00
620,891.21,1517.58,1329.12,16009.00,1019.00
622,891.53,1521.58,970.53,15334.00,1017.00
624,891.85,1525.58,902.88,15041.50,1018.00
626,892.17,1529.57,975.88,15031.00,1040.00
628,892.49,1533.57,879.23,14838.50,1035.00
630,892.80,1537.56,921.40,14800.00,1016.00
632,893.12,1541.54,946.67,14709.50,1006.50
634,893.44,1545.52,1003.52,14653.50,1033.00
636,893.76,1549.50,880.26,14315.50,1005.00
638,894.07,1553.48,450.91,13850.50,1032.50
640,894.39,1557.45,34.00,13219.50,1011.50
642,894.71,1561.42,0.00,12837.00,1036.00
644,895.03,1565.39,0.00,12721.00,995.00
646,895.34,1569.35,0.00,12717.00,1053.00
648,895.66,1573.31,0.00,12664.00,1025.50
650,895.98,1577.26,29.23,12727.50,1013.00
652,896.30,1581.22,206.33,13007.50,1001.00
654,896.61,1585.17,714.74,13831.50,1004.50
656,896.93,1589.11,2058.00,15465.50,1037.00
658,897.25,1593.06,3824.20,17204.00,1005.50
660,897.57,1597.00,4056.72,17757.50,1029.50
662,897.88,1600.93,3712.46,17635.00,1018.00
664,898.20,1604.87,4268.18,18069.00,1029.00
666,898.52,1608.80,4504.94,17961.50,1011.00
668,898.84,1612.72,3753.62,16885.00,988.00
670,899.15,1616.65,2769.33,15667.00,1047.50
672,899.47,1620.57,1407.43,13893.00,1001.00
674,899.79,1624.49,692.22,12797.00,1020.00
676,900.10,1628.40,480.50,12287.00,1004.50
678,900.42,1632.31,556.49,12268.00,1034.00
680,900.74,1636.22,688.40,12363.50,990.00
682,901.05,1640.12,899.75,12985.00,1070.00
684,901.37,1644.02,1782.24,14690.50,1033.50
686,901.69,1647.92,5184.43,18693.50,1046.50
688,902.00,1651.82,10403.17,22594.50,1009.50
690,902.32,1655.71,7837.83,20779.50,1005.50
692,902.64,1659.60,3002.33,16085.00,1007.00
694,902.95,1663.48,1656.01,13747.00,1035.00
696,903.27,1667.36,1703.53,13019.00,1016.00
698,903.59,1671.24,1536.17,12505.50,1053.50
700,903.90,1675.11,750.33,11595.00,1025.00
702,904.22,1678.99,297.96,10894.00,996.50
704,904.54,1682.85,135.40,10571.00,1068.50
706,904.85,1686.72,50.08,10283.00,1005.00
708,905.17,1690.58,20.52,10142.50,1010.50
710,905.49,1694.44,68.95,10091.50,1006.00
712,905.80,1698.29,131.31,10030.00,1019.00
714,906.12,1702.15,150.96,9942.50,1026.50
716,906.43,1706.00,117.28,9786.00,1021.00
718,906.75,1709.84,21.67,9620.00,1045.50
720,907.07,1713.68,0.00,9364.50,1005.00
722,907.38,1717.52,0.00,9278.00,1029.50
724,907.70,1721.36,0.00,9170.00,1016.00
726,908.01,1725.19,0.00,9045.50,1032.50
728,908.33,1729.02,1.82,9026.50,1036.00
730,908.65,1732.85,69.00,8993.50,1028.50
732,908.96,1736.67,42.44,8854.00,1026.50
734,909.28,1740.49,40.46,8758.00,1009.50
736,909.59,1744.30,39.02,8698.00,1041.50
738,909.91,1748.12,97.24,8621.00,1012.00
740,910.22,1751.93,73.77,8527.50,1035.00
742,910.54,1755.73,4.47,8440.00,1090.50
744,910.85,1759.54,0.00,8210.00,1040.00
746,911.17,1763.34,0.00,8129.50,1011.50
748,911.49,1767.13,0.00,8043.00,1030.00
750,911.80,1770.93,0.00,7978.50,1012.00
752,912.12,1774.72,4.24,7971.00,1028.50
754,912.43,1778.50,11.33,7872.50,993.00
756,912.75,1782.29,53.84,7862.00,1001.00
758,913.06,1786.07,36.37,7784.00,1007.50
760,913.38,1789.84,67.79,7769.00,1018.00
762,913.69,1793.62,68.47,7710.00,1027.50
764,914.01,1797.39,43.32,7611.50,1019.00
766,914.32,1801.15,32.58,7541.00,1016.00
768,914.64,1804.92,0.00,7408.00,1002.00
770,914.95,1808.68,10.22,7396.50,1026.00
772,915.26,1812.44,14.99,7348.50,1037.00
774,915.58,1816.19,4.89,7233.50,995.00
776,915.89,1819.94,29.92,7232.50,1021.00
778,916.21,1823.69,104.35,7260.00,1026.50
780,916.52,1827.43,141.18,7263.00,1055.00
782,916.84,1831.17,170.13,7193.50,1004.00
784,917.15,1834.91,214.05,7172.00,1003.00
786,917.47,1838.64,224.34,7150.00,1027.50
788,917.78,1842.38,189.89,7045.50,1014.00
790,918.09,1846.10,248.65,7032.50,1005.00
792,918.41,1849.83,216.35,6961.00,1027.00
794,918.72,1853.55,248.65,6907.00,988.50
796,919.04,1857.27,285.14,6900.50,1012.00
798,919.35,1860.98,243.93,6791.50,1012.00
800,919.66,1864.69,283.50,6792.00,1020.00
802,919.98,1868.40,292.62,6742.50,1023.00
804,920.29,1872.11,363.02,6749.50,1016.00
806,920.60,1875.81,426.08,6751.00,1011.50
808,920.92,1879.51,412.57,6675.50,1007.50
810,921.23,1883.20,380.29,6624.00,1033.00
812,921.55,1886.90,419.08,6574.00,1005.00
814,921.86,1890.58,476.47,6576.50,1029.00
816,922.17,1894.27,438.65,6487.00,1033.00
818,922.49,1897.95,439.07,6427.50,1028.00
820,922.80,1901.63,347.18,6263.50,1013.50
822,923.11,1905.31,363.55,6225.50,1021.00
824,923.42,1908.98,423.22,6209.00,1017.00
826,923.74,1912.65,322.59,6070.00,1036.00
828,924.05,1916.31,373.06,6043.00,1012.50
830,924.36,1919.98,382.45,5989.00,1002.00
832,924.68,1923.64,430.17,5977.50,1000.00
834,924.99,1927.29,443.85,5908.00,995.00
836,925.30,1930.94,410.63,5818.50,984.50
838,925.61,1934.59,432.20,5809.50,1005.00
840,925.93,1938.24,393.28,5714.50,1010.00
842,926.24,1941.88,375.87,5644.50,1013.00
844,926.55,1945.52,372.35,5556.50,1004.00
846,926.86,1949.16,387.53,5537.50,1018.50
848,927.18,1952.79,322.18,5402.50,998.00
850,927.49,1956.42,391.63,5417.50,1000.00
852,927.80,1960.05,348.75,5354.50,1042.00
854,928.11,1963.67,383.57,5306.50,1020.50
856,928.42,1967.29,398.60,5271.50,1025.50
858,928.74,1970.91,370.67,5179.50,1008.50
860,929.05,1974.52,388.91,5144.50,1015.00
862,929.36,1978.13,362.32,5048.50,1010.00
864,929.67,1981.74,333.08,4964.00,1007.50
866,929.98,1985.35,302.46,4887.00,1019.00
868,930.29,1988.95,280.38,4809.00,1026.50
870,930.61,1992.54,224.79,4683.50,1004.00
872,930.92,1996.14,198.27,4628.00,1021.00
874,931.23,1999.73,182.93,4547.50,1020.00
876,931.54,2003.32,157.70,4460.00,1017.00
878,931.85,2006.90,161.16,4402.00,1007.50
880,932.16,2010.48,176.56,4352.00,1000.50
882,932.47,2014.06,147.54,4272.00,1002.00
884,932.78,2017.63,102.24,4201.50,1023.00
886,933.09,2021.21,127.61,4152.50,1005.00
888,933.41,2024.77,66.43,4061.00,1029.00
890,933.72,2028.34,29.79,3990.00,1045.50
892,934.03,2031.90,9.52,3899.00,1027.00
894,934.34,2035.46,21.09,3867.50,1030.50
896,934.65,2039.01,2.01,3763.50,1000.00
898,934.96,2042.57,0.00,3722.00,1043.00
900,935.27,2046.11,24.43,3736.50,1053.00
902,935.58,2049.66,41.69,3616.00,975.50
904,935.89,2053.20,64.07,3628.50,1010.50
906,936.20,2056.74,12.95,3537.50,1007.00
908,936.51,2060.28,5.66,3485.00,1016.00
910,936.82,2063.81,0.91,3444.00,1026.50
912,937.13,2067.34,0.00,3380.00,1021.00
914,937.44,2070.86,24.27,3365.50,1012.00
916,937.75,2074.39,0.00,3262.00,997.00
918,938.06,2077.91,0.00,3247.50,1006.50
920,938.37,2081.42,3.96,3234.50,1016.00
922,938.68,2084.94,0.00,3161.50,996.00
924,938.99,2088.45,48.09,3173.50,1002.00
926,939.30,2091.95,0.00,3106.50,1028.50
928,939.60,2095.46,0.16,3076.00,1013.00
930,939.91,2098.96,0.00,3064.50,1040.50
932,940.22,2102.45,0.00,3001.00,1016.00
934,940.53,2105.95,6.76,2970.50,1001.00
936,940.84,2109.44,9.41,2946.00,1001.00
938,941.15,2112.92,6.97,2936.00,1019.00
940,941.46,2116.41,6.89,2888.00,1006.50
942,941.77,2119.89,24.19,2879.50,1017.00
944,942.07,2123.37,33.42,2853.00,1001.00
946,942.38,2126.84,0.00,2805.50,1025.00
948,942.69,2130.31,18.77,2803.00,1020.50
950,943.00,2133.78,0.00,2725.50,1009.50
952,943.31,2137.24,0.00,2715.00,1026.00
954,943.62,2140.70,0.00,2694.50,1021.00
956,943.92,2144.16,15.54,2679.00,1011.00
958,944.23,2147.62,0.00,2651.00,1019.00
960,944.54,2151.07,3.06,2663.00,1041.00
962,944.85,2154.52,8.91,2656.50,1051.00
964,945.16,2157.96,20.24,2630.50,1039.00
966,945.46,2161.40,18.97,2599.50,1026.50
968,945.77,2164.84,9.03,2541.50,990.50
970,946.08,2168.28,25.49,2569.00,1020.00
972,946.39,2171.71,25.68,2530.00,1006.50
974,946.69,2175.14,46.33,2527.50,1010.50
976,947.00,2178.57,35.26,2497.50,1002.00
978,947.31,2181.99,2.04,2443.50,987.00
980,947.61,2185.41,0.00,2436.50,1014.00
982,947.92,2188.82,0.00,2423.50,1025.00
984,948.23,2192.24,10.90,2401.00,996.00
986,948.53,2195.65,27.55,2410.50,1013.50
988,948.84,2199.05,0.00,2339.50,980.00
990,949.15,2202.46,0.06,2369.50,1017.00
992,949.45,2205.86,0.00,2332.50,1014.00
994,949.76,2209.25,40.02,2350.00,984.00
996,950.07,2212.65,7.43,2318.50,995.00
998,950.37,2216.04,18.91,2323.00,995.00
1000,950.68,2219.43,33.08,2326.00,995.00
1002,950.98,2222.81,47.92,2351.50,1021.00
1004,951.29,2226.19,50.29,2326.00,1000.50
1006,951.60,2229.57,64.04,2313.50,989.50
1008,951.90,2232.94,67.85,2313.50,993.00
1010,952.21,2236.32,46.43,2293.00,999.00
1012,952.51,2239.68,57.88,2304.50,1013.00
1014,952.82,2243.05,54.55,2262.50,982.00
1016,953.12,2246.41,44.52,2306.50,1046.50
1018,953.43,2249.77,75.77,2335.50,1060.00
1020,953.73,2253.12,34.45,2275.00,1028.50
1022,954.04,2256.48,17.66,2203.50,984.00
1024,954.34,2259.83,57.60,2257.00,1028.50
1026,954.65,2263.17,32.05,2198.50,996.00
1028,954.95,2266.51,0.46,2183.00,1013.00
1030,955.26,2269.85,0.00,2192.00,1036.00
1032,955.56,2273.19,0.00,2181.00,1031.50
1034,955.87,2276.52,8.50,2182.00,1030.50
1036,956.17,2279.85,17.98,2185.50,1036.00
1038,956.48,2283.18,51.71,2146.50,984.00
1040,956.78,2286.50,59.04,2152.00,991.50
1042,957.08,2289.82,11.73,2101.00,977.00
1044,957.39,2293.14,2.54,2126.50,1019.00
1046,957.69,2296.45,30.17,2113.00,991.00
1048,957.99,2299.76,34.03,2149.50,1032.50
1050,958.30,2303.07,28.53,2126.50,1021.00
1052,958.60,2306.38,40.68,2111.50,1008.50
1054,958.91,2309.68,17.46,2098.00,1015.00
1056,959.21,2312.98,0.00,2053.00,994.00
1058,959.51,2316.27,0.00,2065.00,1018.00
1060,959.82,2319.56,0.00,2080.00,1034.00
1062,960.12,2322.85,0.63,2053.50,1004.50
1064,960.42,2326.14,30.40,2053.00,989.50
1066,960.72,2329.42,0.00,2049.00,1014.00
1068,961.03,2332.70,3.94,2061.50,1023.50
1070,961.33,2335.97,11.15,2051.50,1013.00
1072,961.63,2339.25,12.10,2035.00,1005.00
1074,961.93,2342.52,0.00,2025.00,1008.50
1076,962.24,2345.78,13.02,2027.00,998.00
1078,962.54,2349.05,0.00,2011.00,1004.50
1080,962.84,2352.31,0.00,2016.50,1007.50
1082,963.14,2355.56,24.48,2018.50,997.00
1084,963.45,2358.82,1.46,2006.00,1000.50
1086,963.75,2362.07,0.00,2022.50,1024.00
1088,964.05,2365.32,7.94,2056.50,1046.50
1090,964.35,2368.56,35.88,2034.00,1010.50
1092,964.65,2371.80,70.82,2061.50,1021.00
1094,964.95,2375.04,42.63,2032.50,1008.50
1096,965.25,2378.27,69.72,2040.50,999.00
1098,965.56,2381.51,147.38,2096.00,1017.00
1100,965.86,2384.73,111.77,2080.50,1025.00
1102,966.16,2387.96,118.18,2078.50,1010.00
1104,966.46,2391.18,104.71,2089.50,1037.00
1106,966.76,2394.40,138.52,2068.00,1007.50
1108,967.06,2397.62,113.19,2078.50,1034.00
1110,967.36,2400.83,58.24,2023.00,1007.50
1112,967.66,2404.04,67.33,2066.50,1047.50
1114,967.96,2407.25,121.66,2021.00,984.00
1116,968.26,2410.45,110.62,2038.50,1012.00
1118,968.56,2413.65,68.23,2014.00,1005.50
1120,968.86,2416.85,61.94,2063.00,1063.50
1122,969.16,2420.04,141.71,2046.00,1008.50
1124,969.46,2423.23,120.74,2026.00,1005.50
1126,969.76,2426.42,92.81,2020.50,1014.00
1128,970.06,2429.60,115.47,1998.50,981.00
1130,970.36,2432.79,129.59,2024.00,1002.50
1132,970.66,2435.96,106.82,2017.50,1009.50
1134,970.96,2439.14,129.35,2022.00,1005.50
1136,971.26,2442.31,131.99,2035.50,1027.50
1138,971.56,2445.48,129.67,2017.50,1009.50
1140,971.86,2448.65,106.72,1998.50,1009.50
1142,972.16,2451.81,144.54,2020.50,1018.00
1144,972.45,2454.97,97.91,1987.00,1008.00
1146,972.75,2458.13,72.41,1982.50,1016.00
1148,973.05,2461.28,48.46,1949.50,1008.50
1150,973.35,2464.43,104.11,1986.00,1016.00
1152,973.65,2467.58,85.28,1965.00,1010.50
1154,973.95,2470.72,126.93,1982.50,1007.50
1156,974.24,2473.86,147.48,1989.00,1006.00
1158,974.54,2477.00,105.22,1952.00,995.00
1160,974.84,2480.13,126.46,1993.00,1025.00
1162,975.14,2483.27,82.99,1944.50,1009.00
1164,975.43,2486.40,103.03,1935.50,990.50
1166,975.73,2489.52,106.34,1951.00,1005.00
1168,976.03,2492.64,131.12,1956.50,998.00
1170,976.33,2495.76,156.77,1979.50,1013.50
1172,976.62,2498.88,187.55,1965.50,992.00
1174,976.92,2501.99,117.91,1964.50,1031.50
1176,977.22,2505.10,106.97,1952.00,1025.50
1178,977.51,2508.21,99.30,1929.50,1019.00
1180,977.81,2511.31,73.24,1907.50,1009.50
1182,978.11,2514.41,5.66,1882.50,1020.00
1184,978.40,2517.51,0.00,1862.00,1016.00
1186,978.70,2520.61,1.32,1871.50,1023.00
1188,979.00,2523.70,13.21,1881.00,1027.50
1190,979.29,2526.79,36.97,1872.50,1007.50
1192,979.59,2529.87,41.77,1874.50,1013.50
1194,979.88,2532.95,75.79,1862.00,992.50
1196,980.18,2536.03,89.65,1902.50,1022.00
1198,980.48,2539.11,25.08,1894.00,1039.00
1200,980.77,2542.18,0.00,1841.00,1015.50
1202,981.07,2545.25,36.32,1876.00,1028.50
1204,981.36,2548.32,0.00,1834.50,1012.50
1206,981.66,2551.38,24.95,1879.00,1039.00
1208,981.95,2554.44,21.97,1846.50,1010.00
1210,982.25,2557.50,48.81,1881.50,1035.00
1212,982.54,2560.56,29.14,1880.50,1043.50
1214,982.84,2563.61,14.25,1883.50,1053.00
1216,983.13,2566.66,16.28,1883.00,1050.00
1218,983.43,2569.70,0.00,1853.50,1031.00
1220,983.72,2572.74,18.17,1865.50,1034.00
1222,984.01,2575.78,46.01,1866.00,1020.50
1224,984.31,2578.82,2.27,1827.50,1003.50
1226,984.60,2581.85,10.52,1855.00,1027.00
1228,984.90,2584.88,14.45,1837.00,1003.00
1230,985.19,2587.91,0.00,1829.50,1019.00
1232,985.48,2590.93,3.90,1855.00,1026.50
1234,985.78,2593.96,65.78,1883.00,1025.50
1236,986.07,2596.97,2.32,1862.00,1026.50
1238,986.36,2599.99,0.00,1886.50,1058.00
1240,986.66,2603.00,18.71,1911.50,1054.00
1242,986.95,2606.01,22.09,1898.00,1041.00
1244,987.24,2609.01,16.22,1901.00,1036.00
1246,987.54,2612.02,15.17,1859.00,985.50
1248,987.83,2615.02,74.40,1936.00,1031.00
1250,988.12,2618.01,52.12,1935.00,1043.50
1252,988.41,2621.01,107.48,1962.50,1026.00
1254,988.71,2624.00,2.47,1903.50,1013.00
1256,989.00,2626.99,0.00,1927.00,1037.00
1258,989.29,2629.97,41.09,1946.00,1029.00
1260,989.58,2632.95,27.10,1946.50,1034.50
1262,989.87,2635.93,0.55,1954.00,1044.50
1264,990.16,2638.91,0.00,1930.50,1018.00
1266,990.46,2641.88,0.51,1962.50,1039.00
1268,990.75,2644.85,16.59,2011.00,1070.50
1270,991.04,2647.81,43.20,1969.00,1020.50
1272,991.33,2650.78,5.63,1979.50,1039.00
1274,991.62,2653.74,55.15,2008.00,1035.00
1276,991.91,2656.70,65.82,2016.50,1033.00
1278,992.20,2659.65,87.64,2026.00,1032.00
1280,992.49,2662.60,126.16,2020.50,1014.00
1282,992.78,2665.55,138.99,2082.00,1062.00
1284,993.07,2668.50,66.36,2070.50,1060.00
1286,993.36,2671.44,28.50,2043.50,1049.50
1288,993.65,2674.38,138.76,2103.00,1058.00
1290,993.94,2677.31,166.14,2085.00,1036.00
1292,994.23,2680.25,198.59,2113.50,1041.00
1294,994.52,2683.18,265.07,2143.50,1040.00
1296,994.81,2686.10,396.49,2187.00,1039.00
1298,995.10,2689.03,543.71,2231.00,1033.00
1300,995.39,2691.95,544.12,2232.00,1032.50
1302,995.68,2694.87,599.23,2279.50,1057.00
1304,995.97,2697.78,585.07,2279.50,1060.00
1306,996.26,2700.70,499.03,2220.50,1021.00
1308,996.55,2703.61,435.23,2221.50,1035.00
1310,996.84,2706.51,512.44,2272.00,1053.00
1312,997.13,2709.42,670.14,2310.50,1041.00
1314,997.41,2712.32,785.49,2349.50,1050.50
1316,997.70,2715.21,1056.78,2422.00,1030.50
1318,997.99,2718.11,1070.34,2425.00,1029.50
1320,998.28,2721.00,1123.18,2444.00,1016.00
1322,998.57,2723.89,1040.96,2460.50,1058.00
1324,998.86,2726.77,1075.35,2426.50,1014.00
1326,999.14,2729.66,1073.17,2442.00,1036.00
1328,999.43,2732.54,1071.24,2428.50,1028.50
1330,999.72,2735.41,1119.66,2437.50,1029.50
1332,1000.01,2738.29,1109.25,2456.00,1061.50
1334,1000.29,2741.16,1015.86,2388.50,1028.00
1336,1000.58,2744.03,910.02,2342.00,1011.50
1338,1000.87,2746.89,717.77,2315.50,1054.00
1340,1001.15,2749.75,697.40,2286.50,1038.00
1342,1001.44,2752.61,653.28,2256.50,1028.50
1344,1001.73,2755.47,614.97,2238.50,1023.00
1346,1002.01,2758.32,537.37,2209.00,1026.00
1348,1002.30,2761.17,635.42,2256.00,1047.50
1350,1002.59,2764.02,544.20,2230.00,1061.50
1352,1002.87,2766.86,539.24,2200.50,1034.00
1354,1003.16,2769.70,449.32,2161.00,1024.50
1356,1003.44,2772.54,399.51,2123.50,1006.00
1358,1003.73,2775.38,329.87,2126.50,1037.00
1360,1004.01,2778.21,331.28,2104.00,1016.00
1362,1004.30,2781.04,189.91,2064.50,1026.50
1364,1004.58,2783.87,136.71,2047.00,1027.50
1366,1004.87,2786.69,28.32,1979.50,995.50
1368,1005.15,2789.51,0.00,1999.50,1049.50
1370,1005.44,2792.33,0.58,2025.50,1049.00
1372,1005.72,2795.14,0.00,2015.50,1048.50
1374,1006.01,2797.95,0.00,2011.00,1054.00
1376,1006.29,2800.76,0.00,2000.50,1021.50
1378,1006.58,2803.57,8.52,2070.00,1067.50
1380,1006.86,2806.37,0.00,2008.00,1017.00
1382,1007.14,2809.17,0.00,2047.00,1029.00
1384,1007.43,2811.97,0.00,2039.50,1021.00
1386,1007.71,2814.77,0.00,2030.00,1007.00
1388,1008.00,2817.56,0.00,2068.50,1019.00
1390,1008.28,2820.35,0.00,2119.00,1041.00
1392,1008.56,2823.13,0.00,2151.00,1014.00
1394,1008.85,2825.91,75.20,2274.00,1039.50
1396,1009.13,2828.69,68.76,2312.50,1035.00
1398,1009.41,2831.47,0.00,2359.00,1053.00
1400,1009.69,2834.24,113.18,2378.00,998.00
1402,1009.98,2837.02,0.00,2408.50,1032.00
1404,1010.26,2839.78,0.00,2489.50,1050.00
1406,1010.54,2842.55,0.00,2465.00,1012.50
1408,1010.82,2845.31,0.00,2566.50,1040.00
1410,1011.11,2848.07,0.00,2668.00,1048.50
1412,1011.39,2850.83,67.52,2817.50,1058.50
1414,1011.67,2853.58,457.84,2936.50,1038.00
1416,1011.95,2856.33,726.39,3036.00,1039.50
1418,1012.23,2859.08,985.38,3171.50,1035.50
1420,1012.51,2861.83,995.83,3221.00,1022.00
1422,1012.80,2864.57,1181.27,3367.50,1066.00
1424,1013.08,2867.31,822.72,3359.50,1074.00
1426,1013.36,2870.04,674.78,3376.00,1049.00
1428,1013.64,2872.78,541.42,3398.50,1044.50
1430,1013.92,2875.51,680.78,3531.50,1081.50
1432,1014.20,2878.24,884.19,3597.00,1050.00
1434,1014.48,2880.96,1107.47,3660.50,1030.50
1436,1014.76,2883.68,1611.06,3789.00,1023.00
1438,1015.04,2886.40,1596.49,3828.00,1026.00
1440,1015.32,2889.12,1083.19,3826.00,1053.00
1442,1015.60,2891.83,554.16,3777.00,1038.00
1444,1015.88,2894.54,185.47,3737.50,1047.50
1446,1016.16,2897.25,123.67,3718.50,1011.50
1448,1016.44,2899.96,245.56,3830.50,1053.00
1450,1016.72,2902.66,714.40,3951.00,1039.50
1452,1017.00,2905.36,1757.42,4212.00,1066.50
1454,1017.28,2908.06,2911.35,4423.50,1021.00
1456,1017.55,2910.75,4345.20,4820.50,1047.50
1458,1017.83,2913.44,6355.23,5316.00,1022.00
1460,1018.11,2916.13,9263.79,6034.50,1035.00
1462,1018.39,2918.81,13290.51,6958.50,1053.00
1464,1018.67,2921.49,18216.44,7974.00,1031.00
1466,1018.95,2924.17,22899.33,8889.50,1046.50
1468,1019.22,2926.85,28374.72,9909.50,1050.00
1470,1019.50,2929.52,31301.10,10327.00,1028.50
1472,1019.78,2932.20,31779.46,10321.00,1019.00
1474,1020.06,2934.86,29124.99,9848.50,1045.50
1476,1020.33,2937.53,24019.39,8967.50,1076.00
1478,1020.61,2940.19,18964.25,7956.00,1046.50
1480,1020.89,2942.85,15788.68,7220.00,1063.00
1482,1021.17,2945.51,14236.03,6670.50,1044.50
1484,1021.44,2948.16,13637.84,6346.00,1039.00
1486,1021.72,2950.81,11938.16,5926.50,1031.00
1488,1022.00,2953.46,9518.33,5540.00,1075.00
1490,1022.27,2956.11,7544.60,5151.00,1037.00
1492,1022.55,2958.75,7185.85,5089.50,1063.00
1494,1022.82,2961.39,8274.50,5189.00,1037.00
1496,1023.10,2964.03,10604.48,5530.50,1071.00
1498,1023.38,2966.66,12585.05,5720.50,1033.00
1500,1023.65,2969.29,13306.52,5784.00,1045.50
1502,1023.93,2971.92,12763.49,5678.50,1070.00
1504,1024.20,2974.55,11104.30,5368.50,1059.00
1506,1024.48,2977.17,8497.39,4911.00,1052.00
1508,1024.75,2979.79,6104.70,4463.50,1028.50
1510,1025.03,2982.41,4030.76,4047.00,1036.00
1512,1025.30,2985.02,2836.73,3741.50,1021.00
1514,1025.58,2987.63,2387.17,3618.00,1039.00
1516,1025.85,2990.24,1807.29,3447.50,1025.00
1518,1026.13,2992.85,1160.21,3336.00,1064.50
1520,1026.40,2995.45,745.81,3243.00,1051.00
1522,1026.68,2998.05,246.76,3121.50,1033.00
1524,1026.95,3000.65,75.50,3080.00,1062.00
1526,1027.22,3003.25,80.16,3019.00,1033.00
1528,1027.50,3005.84,179.05,2997.50,1028.50
1530,1027.77,3008.43,759.28,3079.50,1037.00
1532,1028.04,3011.02,1548.04,3142.50,1053.00
1534,1028.32,3013.60,2062.00,3130.00,1039.00
1536,1028.59,3016.18,2219.71,3121.50,1051.50
1538,1028.86,3018.76,1833.84,2984.00,992.50
1540,1029.14,3021.34,1241.58,2936.50,1044.00
1542,1029.41,3023.91,479.08,2758.50,1012.00
1544,1029.68,3026.48,118.86,2659.00,1020.00
1546,1029.95,3029.05,35.98,2618.50,1035.00
1548,1030.22,3031.61,10.30,2563.00,1023.50
1550,1030.50,3034.17,0.00,2490.50,1027.50
1552,1030.77,3036.73,14.74,2504.50,1028.00
1554,1031.04,3039.29,113.23,2510.50,1042.00
1556,1031.31,3041.84,529.13,2493.00,1009.50
1558,1031.58,3044.39,755.50,2536.50,1067.50
1560,1031.85,3046.94,674.43,2499.50,1060.00
1562,1032.13,3049.49,312.39,2404.50,1032.50
1564,1032.40,3052.03,283.17,2399.50,1050.50
1566,1032.67,3054.57,165.95,2324.00,1019.00
1568,1032.94,3057.11,104.12,2346.00,1080.00
1570,1033.21,3059.64,268.13,2280.50,1014.50
1572,1033.48,3062.18,163.41,2270.00,1047.50
1574,1033.75,3064.70,216.58,2254.00,1051.50
1576,1034.02,3067.23,326.35,2232.00,1040.00
1578,1034.29,3069.75,191.56,2169.50,1008.50
1580,1034.56,3072.28,0.00,2147.50,1045.50
1582,1034.83,3074.79,125.36,2112.00,1010.50
1584,1035.10,3077.31,0.00,2106.50,1047.50
1586,1035.37,3079.82,341.03,2108.50,1024.00
1588,1035.64,3082.33,5.10,2096.00,1075.00
1590,1035.91,3084.84,0.00,2047.00,1054.00
1592,1036.17,3087.34,0.00,2000.50,1020.00
1594,1036.44,3089.85,0.00,2034.50,1085.50
1596,1036.71,3092.35,131.22,1996.00,1026.50
1598,1036.98,3094.84,2.71,1960.50,1017.50
1600,1037.25,3097.34,0.00,1949.50,1021.50
1602,1037.52,3099.83,0.00,1950.00,1038.50
1604,1037.78,3102.32,193.74,1977.50,1044.50
1606,1038.05,3104.80,0.00,1938.50,1055.00
1608,1038.32,3107.29,88.48,1934.00,1027.50
1610,1038.59,3109.77,44.03,1930.00,1038.00
1612,1038.85,3112.24,232.05,1934.00,1028.50
1614,1039.12,3114.72,77.51,1938.00,1054.00
1616,1039.39,3117.19,4.18,1871.50,1002.50
1618,1039.66,3119.66,0.00,1920.50,1065.50
1620,1039.92,3122.13,112.46,1927.00,1057.00
1622,1040.19,3124.59,153.86,1906.50,1038.00
1624,1040.45,3127.05,189.02,1893.50,1024.00
1626,1040.72,3129.51,70.52,1899.50,1048.50
1628,1040.99,3131.97,100.92,1910.50,1060.50
1630,1041.25,3134.42,33.82,1904.00,1068.00
1632,1041.52,3136.87,112.35,1859.00,1020.00
1634,1041.78,3139.32,19.64,1872.50,1048.00
1636,1042.05,3141.77,97.94,1945.50,1113.00
1638,1042.32,3144.21,0.00,1837.00,1027.00
1640,1042.58,3146.65,12.78,1877.00,1064.50
1642,1042.85,3149.09,133.11,1865.00,1043.00
1644,1043.11,3151.52,139.96,1850.50,1037.00
1646,1043.38,3153.96,10.73,1855.00,1056.00
1648,1043.64,3156.39,0.00,1825.50,1038.00
1650,1043.90,3158.81,65.68,1835.50,1035.00
1652,1044.17,3161.24,0.00,1851.50,1065.50
1654,1044.43,3163.66,0.00,1810.50,1025.00
1656,1044.70,3166.08,108.41,1882.50,1086.50
1658,1044.96,3168.49,0.00,1828.50,1049.00
1660,1045.22,3170.91,148.42,1840.00,1041.00
1662,1045.49,3173.32,93.09,1833.50,1045.00
1664,1045.75,3175.73,166.75,1853.50,1061.50
1666,1046.01,3178.13,449.68,1851.50,1038.00
1668,1046.28,3180.54,597.19,1883.00,1061.00
1670,1046.54,3182.94,614.79,1883.00,1063.50
1672,1046.80,3185.34,848.90,1884.00,1046.50
1674,1047.07,3187.73,929.33,1862.00,1022.00
1676,1047.33,3190.12,1161.47,1901.50,1044.50
1678,1047.59,3192.51,1164.24,1891.50,1043.00
1680,1047.85,3194.90,1588.22,1959.50,1081.00
1682,1048.11,3197.29,1695.05,1951.00,1066.50
1684,1048.38,3199.67,1705.94,1938.00,1054.00
1686,1048.64,3202.05,1771.48,1954.00,1073.00
1688,1048.90,3204.43,2255.98,1952.00,1042.00
1690,1049.16,3206.80,2425.53,1949.00,1030.50
1692,1049.42,3209.17,2156.69,1961.50,1064.50
1694,1049.68,3211.54,2379.08,1943.50,1029.50
1696,1049.94,3213.91,2592.69,1965.50,1044.50
1698,1050.20,3216.27,2902.95,1983.50,1049.00
1700,1050.46,3218.63,2885.87,2005.00,1081.00
1702,1050.72,3220.99,3089.51,1992.00,1057.00
1704,1050.98,3223.35,2932.88,1982.50,1064.50
1706,1051.24,3225.70,3183.73,1963.50,1029.00
1708,1051.50,3228.05,3006.68,1943.50,1031.00
1710,1051.76,3230.40,3148.98,1990.00,1075.00
1712,1052.02,3232.75,3445.90,1993.00,1061.00
1714,1052.28,3235.09,3246.70,1996.50,1085.50
1716,1052.54,3237.43,3429.15,1961.50,1044.00
1718,1052.80,3239.77,3711.87,1962.50,1034.00
1720,1053.06,3242.11,3815.88,1971.00,1043.00
1722,1053.32,3244.44,3633.40,1938.50,1028.50
1724,1053.58,3246.77,3738.28,1987.50,1075.00
1726,1053.84,3249.10,3750.74,1957.50,1054.00
1728,1054.10,3251.42,3704.45,1942.00,1052.00
1730,1054.35,3253.75,3701.80,1929.50,1046.50
1732,1054.61,3256.07,3711.45,1954.00,1075.00
1734,1054.87,3258.39,3950.94,1940.50,1048.50
1736,1055.13,3260.70,3783.91,1922.50,1047.50
1738,1055.38,3263.01,3745.07,1914.00,1050.00
1740,1055.64,3265.32,3630.36,1895.50,1051.50
1742,1055.90,3267.63,4047.06,1885.50,1023.50
1744,1056.16,3269.94,3715.80,1909.50,1074.00
1746,1056.41,3272.24,3867.87,1930.50,1085.50
1748,1056.67,3274.54,3468.75,1875.00,1062.00
1750,1056.93,3276.84,3437.66,1849.50,1048.50
1752,1057.18,3279.13,3970.94,1860.50,1035.00
1754,1057.44,3281.42,3564.98,1810.50,1019.00
1756,1057.69,3283.71,3309.91,1808.50,1039.00
1758,1057.95,3286.00,3552.97,1856.50,1076.00
1760,1058.21,3288.28,3140.69,1793.50,1043.00
1762,1058.46,3290.57,3201.25,1816.50,1066.00
1764,1058.72,3292.85,3177.33,1801.00,1057.00
1766,1058.97,3295.12,3132.86,1759.00,1025.50
1768,1059.23,3297.40,3131.14,1759.50,1035.00
1770,1059.48,3299.67,3091.18,1778.50,1063.50
1772,1059.74,3301.94,3107.73,1728.00,1018.00
1774,1059.99,3304.21,3038.05,1774.50,1075.00
1776,1060.25,3306.47,3023.39,1776.50,1083.50
1778,1060.50,3308.73,2886.53,1717.50,1037.50
1780,1060.76,3310.99,3011.13,1727.00,1046.50
1782,1061.01,3313.25,3142.67,1733.50,1052.00
1784,1061.26,3315.50,2909.13,1705.50,1039.50
1786,1061.52,3317.76,2766.57,1715.50,1058.00
1788,1061.77,3320.01,2113.54,1687.00,1071.50
1790,1062.02,3322.25,2802.01,1677.00,1034.00
1792,1062.28,3324.50,2649.68,1672.00,1048.50
1794,1062.53,3326.74,2355.35,1633.00,1029.00
1796,1062.78,3328.98,2111.40,1648.50,1056.00
1798,1063.04,3331.22,1767.41,1620.50,1046.50
1800,1063.29,3333.45,1961.06,1617.00,1038.00
1802,1063.54,3335.68,2209.39,1630.00,1047.50
1804,1063.79,3337.91,1681.32,1616.00,1067.50
1806,1064.05,3340.14,2179.69,1652.00,1083.50
1808,1064.30,3342.36,1523.41,1574.00,1040.00
1810,1064.55,3344.59,1283.07,1583.00,1062.50
1812,1064.80,3346.81,1633.44,1577.00,1041.00
1814,1065.05,3349.02,961.06,1541.00,1045.50
1816,1065.30,3351.24,1711.73,1592.00,1069.50
1818,1065.55,3353.45,1747.71,1563.00,1045.50
1820,1065.81,3355.66,1266.91,1584.50,1089.00
1822,1066.06,3357.87,1184.85,1539.00,1046.50
1824,1066.31,3360.07,968.47,1510.00,1030.50
1826,1066.56,3362.27,1234.63,1539.00,1053.00
1828,1066.81,3364.47,1047.50,1507.00,1038.00
1830,1067.06,3366.67,1200.31,1515.50,1046.50
1832,1067.31,3368.87,1273.35,1509.50,1040.00
1834,1067.56,3371.06,1142.17,1470.00,1005.50
1836,1067.81,3373.25,796.46,1460.50,1012.00
1838,1068.06,3375.44,520.88,1459.50,1027.50
1840,1068.31,3377.62,71.72,1440.50,1033.00
1842,1068.56,3379.81,1041.82,1461.50,1017.00
1844,1068.80,3381.99,728.42,1503.00,1072.00
1846,1069.05,3384.16,371.30,1466.50,1055.00
1848,1069.30,3386.34,647.12,1452.00,1035.00
1850,1069.55,3388.51,899.69,1454.50,1035.00
1852,1069.80,3390.68,535.51,1448.00,1045.50
1854,1070.05,3392.85,821.00,1496.50,1085.50
1856,1070.30,3395.02,500.30,1446.50,1053.00
1858,1070.54,3397.18,899.83,1418.50,1015.00
1860,1070.79,3399.34,706.37,1436.50,1042.00
1862,1071.04,3401.50,428.35,1415.50,1035.00
1864,1071.29,3403.66,658.78,1400.50,1015.00
1866,1071.53,3405.81,1111.37,1434.50,1038.00
1868,1071.78,3407.96,463.15,1412.00,1047.50
1870,1072.03,3410.11,1359.66,1446.00,1053.50
1872,1072.27,3412.26,1126.39,1429.00,1049.50
1874,1072.52,3414.40,1488.93,1425.00,1036.00
1876,1072.77,3416.54,1791.74,1429.00,1034.00
1878,1073.01,3418.68,1979.04,1451.00,1057.00
1880,1073.26,3420.82,3271.25,1422.50,994.00
1882,1073.51,3422.96,2708.96,1457.50,1054.00
1884,1073.75,3425.09,3099.42,1444.50,1031.50
1886,1074.00,3427.22,2968.31,1422.50,1017.00
1888,1074.24,3429.35,2602.23,1458.50,1070.00
1890,1074.49,3431.47,3138.24,1429.00,1028.50
1892,1074.73,3433.59,3047.61,1413.00,1020.00
1894,1074.98,3435.71,3070.53,1452.50,1064.00
1896,1075.22,3437.83,2545.59,1411.00,1045.50
1898,1075.47,3439.95,3013.24,1417.50,1043.50
1900,1075.71,3442.06,2043.60,1408.00,1065.50
1902,1075.96,3444.17,1556.41,1360.00,1034.00
1904,1076.20,3446.28,1092.75,1294.50,986.00
1906,1076.44,3448.38,1236.38,1391.00,1081.50
1908,1076.69,3450.49,1694.74,1373.00,1054.00
1910,1076.93,3452.59,987.14,1345.50,1054.50
1912,1077.17,3454.69,1425.34,1325.00,1027.00
1914,1077.42,3456.79,1218.50,1335.00,1045.50
1916,1077.66,3458.88,599.89,1300.00,1029.50
1918,1077.90,3460.97,784.99,1301.00,1025.00
1920,1078.15,3463.06,247.20,1330.50,1077.00
1922,1078.39,3465.15,806.80,1313.00,1048.50
1924,1078.63,3467.23,1200.76,1270.50,1004.50
1926,1078.87,3469.32,1190.71,1312.50,1051.00
1928,1079.12,3471.40,1045.26,1275.50,1017.00
1930,1079.36,3473.47,413.97,1325.00,1087.00
1932,1079.60,3475.55,665.32,1257.50,1017.00
1934,1079.84,3477.62,1484.09,1297.00,1043.00
1936,1080.08,3479.69,668.39,1262.50,1033.50
1938,1080.33,3481.76,0.00,1235.00,1025.50
1940,1080.57,3483.83,540.68,1260.00,1038.00
1942,1080.81,3485.89,526.51,1270.50,1052.00
1944,1081.05,3487.95,690.15,1280.00,1062.00
1946,1081.29,3490.01,1087.94,1270.50,1048.50
1948,1081.53,3492.07,1046.90,1248.50,1032.50
1950,1081.77,3494.12,1430.32,1246.50,1025.50
1952,1082.01,3496.18,1125.95,1261.00,1050.00
1954,1082.25,3498.23,1343.02,1237.50,1024.00
1956,1082.49,3500.27,848.07,1239.00,1040.00
1958,1082.73,3502.32,949.13,1218.50,1021.00
1960,1082.97,3504.36,1411.39,1246.00,1042.00
1962,1083.21,3506.40,1213.78,1219.50,1022.00
1964,1083.45,3508.44,860.80,1193.00,1005.50
1966,1083.69,3510.48,705.49,1263.00,1082.50
1968,1083.93,3512.51,808.49,1231.50,1053.00
1970,1084.16,3514.54,1319.10,1213.50,1028.50
1972,1084.40,3516.57,1322.17,1215.50,1033.00
1974,1084.64,3518.60,804.41,1190.00,1020.00
1976,1084.88,3520.62,319.69,1222.00,1065.50
1978,1085.12,3522.65,998.73,1243.50,1076.00
1980,1085.36,3524.67,1276.76,1202.00,1033.00
1982,1085.59,3526.68,750.42,1175.00,1018.00
1984,1085.83,3528.70,244.65,1211.00,1066.50
1986,1086.07,3530.71,590.87,1170.00,1019.00
1988,1086.31,3532.72,889.24,1211.50,1058.00
1990,1086.54,3534.73,431.81,1162.00,1023.00
1992,1086.78,3536.74,1338.87,1225.50,1075.00
1994,1087.02,3538.74,1132.06,1188.00,1042.50
1996,1087.25,3540.74,682.65,1150.00,1012.00
1998,1087.49,3542.74,580.85,1175.00,1039.00
2000,1087.73,3544.74,480.31,1161.50,1030.50
2002,1087.96,3546.74,1257.71,1178.50,1036.00
2004,1088.20,3548.73,1595.79,1203.00,1060.00
2006,1088.43,3550.72,698.37,1161.50,1036.00
2008,1088.67,3552.71,1076.51,1162.00,1031.50
2010,1088.90,3554.69,1302.45,1142.50,1009.50
2012,1089.14,3556.68,778.13,1170.00,1047.50
2014,1089.38,3558.66,856.70,1136.50,1013.50
2016,1089.61,3560.64,532.03,1139.50,1024.00
2018,1089.84,3562.62,771.60,1168.00,1049.50
2020,1090.08,3564.59,665.48,1133.00,1019.00
2022,1090.31,3566.56,1767.87,1142.50,1012.50
2024,1090.55,3568.53,1345.48,1131.00,1011.50
2026,1090.78,3570.50,1613.23,1122.00,1001.00
2028,1091.02,3572.47,2185.78,1134.00,1006.50
2030,1091.25,3574.43,668.61,1115.00,1011.00
2032,1091.48,3576.39,1281.50,1094.00,979.00
2034,1091.72,3578.35,0.00,1079.00,991.50
2036,1091.95,3580.31,645.30,1116.50,1013.50
2038,1092.18,3582.26,683.81,1077.00,978.00
2040,1092.42,3584.22,1762.76,1086.50,978.50
2042,1092.65,3586.17,1341.41,1095.00,989.50
2044,1092.88,3588.12,223.35,1079.00,985.00
2046,1093.11,3590.06,3.97,1067.50,982.00
2047,1093.23,3591.03,0.84,1062.50,977.50