File: enlighten/plugins/Raman/MatchingLibrary/785X/1-octen-3-ol.csv
ENLIGHTEN Version,4.1.22
Measurement ID,20250220-195832-734330-WP-01977
Serial Number,WP-01977
Model,WP-785X-F13-R-ILC
Detector,S16011-1106
Label,1-octen-3-ol
Declared Match,
Declared Score,0
Scan Averaging,2
Boxcar,0
Technique,Raman
Baseline Correction Algo,AirPLS
ROI Pixel Start,47
ROI Pixel End,2047
ROI Start Line,0
ROI Stop Line,63
CCD C4,1.38617e-12
Slit Width,25
Cropped,True
Interpolated,False
Wavenumber Correction,-0.100481
Raman Intensity Corrected,True
Deconvolved,True
Region,
High Gain Mode,False
Laser Power mW,
Electrical Dark Correction,False
Battery %,
Device ID,<DeviceID USB:0x24aa:0x1000:0:1>
FW Version,10.0.0.10
FPGA Version,035-001
BLE Version,
Prefix,enlighten
Suffix,
Preset,
Auto-Raman,True
Session Count,0
Plugin Name,
Integration Time,634
Timestamp,2025-02-20 19:58:32.7343
Note,
Temperature,0
CCD C0,793.274
CCD C1,0.153259
CCD C2,1.40788e-05
CCD C3,-1.132e-08
CCD Offset,0
CCD Gain,1.9
CCD Offset Odd,0
CCD Gain Odd,1.9
Laser Wavelength,785.032
Laser Enable,False
Laser Power %,0
Laser Temperature,0
Pixel Count,2048

Pixel,Wavelength,Wavenumber,Processed,Raw,Dark
0,793.27,132.25,NA,1068.50,987.00
2,793.58,137.12,NA,1095.00,1017.00
4,793.89,141.99,NA,1086.50,993.50
6,794.19,146.86,NA,1082.50,994.00
8,794.50,151.72,NA,1104.00,1022.00
10,794.81,156.58,NA,1102.50,1021.00
12,795.12,161.44,NA,1085.50,989.50
14,795.42,166.30,NA,1089.00,1004.50
16,795.73,171.16,NA,1097.00,989.50
18,796.04,176.01,NA,1132.00,1027.50
20,796.35,180.86,NA,1114.50,1011.50
22,796.65,185.71,NA,1163.50,1053.00
24,796.96,190.56,NA,1126.50,1013.00
26,797.27,195.41,NA,1159.50,1030.50
28,797.58,200.25,NA,1169.00,1033.00
30,797.88,205.09,NA,1141.50,1005.00
32,798.19,209.93,NA,1157.50,1023.00
34,798.50,214.77,NA,1168.00,1006.00
36,798.81,219.60,NA,1201.00,1011.00
38,799.12,224.43,NA,1325.00,1031.00
40,799.43,229.27,NA,2039.00,1045.50
42,799.74,234.09,NA,4648.00,1032.50
44,800.04,238.92,NA,8619.50,1074.00
46,800.35,243.75,NA,10564.00,1033.00
48,800.66,248.57,1122.76,11084.50,1050.50
50,800.97,253.39,1471.09,11420.50,1051.50
52,801.28,258.21,1798.07,12005.50,1066.00
54,801.59,263.02,2416.69,12591.00,1051.50
56,801.90,267.83,2911.34,13068.00,1048.50
58,802.21,272.65,2974.63,13156.50,1053.00
60,802.52,277.46,2868.23,12981.00,1043.50
62,802.83,282.26,2682.76,12743.50,1069.50
64,803.14,287.07,2599.81,12605.50,1064.50
66,803.45,291.87,2659.98,12629.50,1061.50
68,803.76,296.67,3007.31,12940.50,1062.50
70,804.07,301.47,3410.38,13246.00,1037.00
72,804.38,306.26,3408.64,13146.00,1035.00
74,804.69,311.06,2853.49,12433.00,1045.50
76,805.00,315.85,2230.34,11574.00,1041.00
78,805.31,320.64,1615.39,10731.50,1050.50
80,805.62,325.42,1209.03,10140.00,1056.00
82,805.93,330.21,1152.90,9914.00,1051.00
84,806.24,334.99,1314.58,9912.00,1016.00
86,806.55,339.77,1298.77,9858.50,1039.00
88,806.86,344.55,1290.11,9797.00,1061.00
90,807.17,349.32,1368.55,9730.50,1025.00
92,807.48,354.10,1404.01,9657.50,1037.00
94,807.80,358.87,1219.02,9372.00,1060.00
96,808.11,363.63,1007.05,8986.50,1049.00
98,808.42,368.40,792.25,8604.00,1030.00
100,808.73,373.16,718.30,8410.50,1035.00
102,809.04,377.93,764.79,8315.50,1021.00
104,809.35,382.68,874.15,8368.00,1026.50
106,809.66,387.44,985.66,8450.50,1039.00
108,809.98,392.19,1182.32,8578.50,1007.50
110,810.29,396.95,1317.85,8712.50,1042.50
112,810.60,401.70,1535.77,8826.00,1032.00
114,810.91,406.44,1570.46,8762.50,1036.00
116,811.22,411.19,1353.66,8405.00,1040.50
118,811.54,415.93,1083.93,7924.50,1039.00
120,811.85,420.67,856.37,7430.50,1013.50
122,812.16,425.41,549.34,6859.50,1016.00
124,812.47,430.14,221.30,6381.50,1043.50
126,812.79,434.87,3.07,5915.00,1022.00
128,813.10,439.60,0.00,5570.50,1002.00
130,813.41,444.33,0.00,5550.50,1028.50
132,813.72,449.06,0.00,5455.00,1007.00
134,814.04,453.78,0.00,5439.50,1036.00
136,814.35,458.50,1.56,5409.00,1002.00
138,814.66,463.22,59.88,5447.00,1011.50
140,814.98,467.93,153.86,5510.50,1017.00
142,815.29,472.65,280.97,5643.50,1029.00
144,815.60,477.36,387.59,5718.50,1026.50
146,815.92,482.06,445.76,5731.00,998.00
148,816.23,486.77,491.98,5775.50,1043.50
150,816.54,491.47,499.28,5723.50,1060.00
152,816.86,496.17,436.89,5495.50,1011.00
154,817.17,500.87,309.99,5267.50,1033.00
156,817.48,505.57,72.92,4909.00,1004.00
158,817.80,510.26,0.30,4676.00,1010.00
160,818.11,514.95,0.00,4543.50,1029.00
162,818.42,519.64,0.00,4551.00,1030.50
164,818.74,524.32,48.65,4644.00,1034.50
166,819.05,529.00,262.39,4859.50,1039.00
168,819.37,533.68,404.13,5050.50,1024.50
170,819.68,538.36,645.08,5402.00,1030.50
172,819.99,543.04,1006.35,5881.00,1053.00
174,820.31,547.71,1321.49,6221.50,1025.50
176,820.62,552.38,1434.93,6294.00,1017.00
178,820.94,557.05,1161.98,5893.50,1011.50
180,821.25,561.71,822.87,5336.00,991.00
182,821.57,566.37,486.92,4807.50,1002.00
184,821.88,571.03,209.33,4350.50,1025.00
186,822.20,575.69,139.07,4141.00,1014.00
188,822.51,580.34,109.27,4025.00,1009.50
190,822.83,584.99,136.23,4022.00,1028.50
192,823.14,589.64,196.35,4029.00,1018.00
194,823.46,594.29,228.43,4028.00,1019.00
196,823.77,598.93,257.16,4004.50,1020.00
198,824.09,603.57,217.75,3862.50,995.00
200,824.40,608.21,202.07,3790.50,1021.00
202,824.72,612.85,78.34,3596.00,1032.00
204,825.03,617.48,1.71,3412.00,1029.50
206,825.35,622.11,0.00,3274.00,1032.00
208,825.66,626.74,0.00,3178.50,1025.50
210,825.98,631.36,0.00,3113.00,1006.00
212,826.29,635.99,0.00,3122.50,1019.00
214,826.61,640.61,0.00,3175.00,1023.00
216,826.92,645.22,1.63,3301.00,1009.50
218,827.24,649.84,125.73,3566.50,1000.00
220,827.56,654.45,383.97,3982.50,1024.00
222,827.87,659.06,741.21,4534.00,1022.00
224,828.19,663.67,1021.16,4930.50,1018.00
226,828.50,668.27,1076.21,5103.50,1074.00
228,828.82,672.87,858.31,4840.50,1036.00
230,829.13,677.47,621.57,4528.00,1009.00
232,829.45,682.06,520.19,4396.50,1023.00
234,829.77,686.66,592.30,4462.00,1037.00
236,830.08,691.25,623.14,4436.00,1021.00
238,830.40,695.83,393.95,4154.00,1020.50
240,830.72,700.42,51.98,3813.00,1013.00
242,831.03,705.00,0.00,3532.50,985.50
244,831.35,709.58,0.00,3527.00,1012.00
246,831.66,714.15,0.00,3593.00,983.50
248,831.98,718.73,6.15,3823.00,1020.00
250,832.30,723.30,185.58,4087.00,1007.50
252,832.61,727.87,308.87,4314.00,1043.50
254,832.93,732.43,280.16,4304.00,983.00
256,833.25,736.99,176.65,4323.00,1032.00
258,833.56,741.55,126.98,4321.50,1007.50
260,833.88,746.11,298.89,4647.00,1004.00
262,834.20,750.66,614.13,5125.50,1013.00
264,834.51,755.22,774.58,5501.00,1023.50
266,834.83,759.76,924.49,5811.50,1028.50
268,835.15,764.31,1050.20,6009.00,1027.50
270,835.47,768.85,919.82,5844.00,995.00
272,835.78,773.39,676.78,5554.50,1008.50
274,836.10,777.93,317.14,5069.50,1005.00
276,836.42,782.46,93.64,4785.50,1012.00
278,836.73,787.00,3.55,4667.00,997.00
280,837.05,791.52,0.00,4654.50,998.00
282,837.37,796.05,1.85,4830.00,1027.50
284,837.69,800.57,190.86,5352.50,1001.00
286,838.00,805.09,866.75,6319.50,1004.00
288,838.32,809.61,1539.33,7383.50,1010.50
290,838.64,814.13,1956.22,8259.50,1026.50
292,838.95,818.64,2250.42,8961.00,1008.00
294,839.27,823.15,2889.36,10000.50,1009.50
296,839.59,827.65,3654.99,11110.00,1016.00
298,839.91,832.15,3778.61,11563.00,1002.00
300,840.22,836.65,3819.59,12014.00,1047.50
302,840.54,841.15,4451.13,12968.50,1006.00
304,840.86,845.65,5410.01,14268.00,1046.50
306,841.18,850.14,5551.24,14542.50,1028.50
308,841.50,854.63,4987.46,13982.50,1077.00
310,841.81,859.11,4453.03,13083.50,1007.50
312,842.13,863.60,3973.52,12497.50,1025.00
314,842.45,868.07,3476.68,12073.50,1013.00
316,842.77,872.55,4324.13,13290.50,1029.00
318,843.08,877.03,5829.17,15133.00,1054.00
320,843.40,881.50,5738.37,15410.00,993.00
322,843.72,885.97,5340.83,15548.50,1035.00
324,844.04,890.43,6354.50,17061.00,1000.50
326,844.36,894.89,8132.07,19134.00,1021.00
328,844.67,899.35,8349.63,19114.00,1030.00
330,844.99,903.81,6182.04,16380.00,996.00
332,845.31,908.26,3386.76,12646.00,1034.50
334,845.63,912.71,2337.35,10734.50,1020.00
336,845.95,917.16,2632.13,10649.00,1026.50
338,846.27,921.61,2657.43,10663.00,1290.50
340,846.58,926.05,1855.09,9393.00,1021.00
342,846.90,930.49,912.92,8108.00,1020.00
344,847.22,934.92,406.81,7271.00,1012.00
346,847.54,939.36,295.02,6996.00,976.50
348,847.86,943.79,419.43,7116.00,991.50
350,848.18,948.21,465.51,7202.00,995.00
352,848.49,952.64,552.69,7416.50,1009.00
354,848.81,957.06,760.65,7755.00,976.50
356,849.13,961.48,1099.01,8356.50,1038.00
358,849.45,965.89,1684.12,9206.50,1043.00
360,849.77,970.31,2071.99,9698.50,1003.50
362,850.09,974.71,1998.57,9727.50,1007.50
364,850.40,979.12,1787.53,9681.50,1030.50
366,850.72,983.52,2090.49,10263.50,1052.00
368,851.04,987.92,3086.34,11547.00,999.00
370,851.36,992.32,4009.29,12741.00,992.50
372,851.68,996.72,3918.80,12820.50,1008.00
374,852.00,1001.11,3505.55,12366.00,996.50
376,852.32,1005.50,3310.69,12052.50,989.50
378,852.63,1009.88,3320.87,12121.00,1051.50
380,852.95,1014.26,3613.64,12559.50,1018.00
382,853.27,1018.64,4014.67,13179.50,1029.50
384,853.59,1023.02,4595.90,13929.50,1002.00
386,853.91,1027.39,4855.05,14246.00,992.50
388,854.23,1031.76,4502.84,13770.00,1004.50
390,854.55,1036.13,3930.35,12944.00,1010.50
392,854.87,1040.49,3391.74,12105.00,1002.50
394,855.18,1044.86,3118.48,11720.50,1022.00
396,855.50,1049.21,3160.51,11909.00,1004.00
398,855.82,1053.57,3798.09,13021.50,1028.50
400,856.14,1057.92,5334.27,15091.00,1002.00
402,856.46,1062.27,6599.76,16790.00,1012.00
404,856.78,1066.62,6318.99,16832.00,995.50
406,857.10,1070.96,6154.58,16713.50,991.50
408,857.42,1075.30,6553.50,16883.50,1035.00
410,857.74,1079.64,5897.66,15844.00,1005.00
412,858.06,1083.97,4577.15,14070.50,996.00
414,858.37,1088.30,3903.98,12924.00,1005.50
416,858.69,1092.63,3683.22,12349.50,990.00
418,859.01,1096.95,3382.89,11830.50,982.00
420,859.33,1101.27,3263.14,11745.00,1006.50
422,859.65,1105.59,3452.66,12136.00,1013.00
424,859.97,1109.91,4159.83,13145.50,994.00
426,860.29,1114.22,5000.03,14228.50,1007.50
428,860.61,1118.53,5541.01,14723.50,1001.00
430,860.93,1122.84,4779.22,13654.00,1001.50
432,861.25,1127.14,3146.47,11496.00,1030.50
434,861.56,1131.44,1977.94,9619.00,992.00
436,861.88,1135.74,1488.47,8672.50,999.00
438,862.20,1140.03,1391.90,8359.50,1013.00
440,862.52,1144.32,1438.48,8327.00,1013.50
442,862.84,1148.61,1431.90,8259.50,1015.00
444,863.16,1152.89,1279.19,7971.00,1007.00
446,863.48,1157.17,1000.42,7442.50,1008.50
448,863.80,1161.45,562.10,6832.00,996.00
450,864.12,1165.73,44.69,6175.00,1005.50
452,864.44,1170.00,0.00,5758.00,994.50
454,864.76,1174.27,0.00,5622.00,1009.50
456,865.07,1178.53,0.00,5681.50,985.00
458,865.39,1182.80,0.35,6015.00,1013.00
460,865.71,1187.06,103.06,6355.50,1004.50
462,866.03,1191.31,406.19,6757.00,1009.50
464,866.35,1195.57,469.14,6925.00,990.50
466,866.67,1199.82,448.07,6968.50,1011.00
468,866.99,1204.06,153.23,6795.00,1003.00
470,867.31,1208.31,0.23,6557.50,1025.50
472,867.63,1212.55,0.00,6512.00,1013.00
474,867.95,1216.79,0.00,6664.00,980.00
476,868.27,1221.02,28.07,7068.50,1014.00
478,868.58,1225.25,373.44,7552.50,979.00
480,868.90,1229.48,678.86,7966.00,1015.00
482,869.22,1233.71,503.66,7955.00,1022.00
484,869.54,1237.93,116.38,7653.00,1039.50
486,869.86,1242.15,7.91,7498.00,1005.50
488,870.18,1246.36,20.25,7675.00,977.00
490,870.50,1250.58,265.56,8348.00,1012.00
492,870.82,1254.79,983.29,9467.00,1042.00
494,871.14,1258.99,1874.49,10927.00,1025.50
496,871.46,1263.20,2791.93,12599.50,1016.00
498,871.78,1267.40,3903.01,14734.00,1000.00
500,872.10,1271.59,5770.54,17982.50,1003.50
502,872.41,1275.79,8591.76,22326.00,997.00
504,872.73,1279.98,11669.76,26881.50,1010.50
506,873.05,1284.17,13978.77,30365.00,1022.50
508,873.37,1288.35,14912.49,32170.00,980.00
510,873.69,1292.53,14701.50,32647.00,986.00
512,874.01,1296.71,15081.92,33357.00,1001.00
514,874.33,1300.88,16605.58,34654.50,985.00
516,874.65,1305.06,16083.99,33530.50,1009.50
518,874.97,1309.22,12726.51,29393.00,997.00
520,875.29,1313.39,9582.37,25030.50,1006.50
522,875.60,1317.55,7899.66,22070.00,1021.00
524,875.92,1321.71,6738.88,19864.00,1007.50
526,876.24,1325.87,5330.82,17755.50,1027.00
528,876.56,1330.02,3851.09,15628.50,1002.50
530,876.88,1334.17,2862.29,14173.00,1020.00
532,877.20,1338.32,2287.74,13176.50,992.50
534,877.52,1342.46,2011.75,12646.00,984.50
536,877.84,1346.60,1624.00,12181.00,1023.00
538,878.16,1350.73,1211.23,11643.00,993.00
540,878.47,1354.87,1028.15,11440.50,1004.00
542,878.79,1359.00,977.39,11400.00,1002.00
544,879.11,1363.13,1103.37,11568.50,998.00
546,879.43,1367.25,1049.80,11560.00,1001.00
548,879.75,1371.37,891.34,11454.50,998.00
550,880.07,1375.49,814.05,11374.00,992.00
552,880.39,1379.60,770.75,11357.50,1000.00
554,880.71,1383.71,508.41,11149.00,999.00
556,881.03,1387.82,508.68,11129.00,995.00
558,881.34,1391.93,804.41,11447.00,970.50
560,881.66,1396.03,1203.61,12052.50,998.00
562,881.98,1400.13,1922.64,13079.50,1007.50
564,882.30,1404.22,3040.41,14531.00,1004.00
566,882.62,1408.31,4062.59,15840.00,991.50
568,882.94,1412.40,4597.06,16749.50,1021.00
570,883.26,1416.49,5092.74,17545.50,999.00
572,883.57,1420.57,5890.73,18780.50,1017.00
574,883.89,1424.65,6781.49,20512.00,987.00
576,884.21,1428.73,8796.11,24090.50,1030.00
578,884.53,1432.80,13372.54,30386.00,1043.50
580,884.85,1436.87,19322.22,37275.50,1002.00
582,885.17,1440.93,21729.34,40324.50,989.50
584,885.49,1445.00,19624.63,38601.00,997.00
586,885.80,1449.06,16924.49,35371.50,990.00
588,886.12,1453.11,15547.91,32915.00,1027.00
590,886.44,1457.17,15212.08,31290.50,1026.00
592,886.76,1461.22,13267.62,28032.50,1021.00
594,887.08,1465.26,9854.65,23410.00,1030.00
596,887.40,1469.31,6545.40,18618.50,990.50
598,887.71,1473.35,4057.79,14770.00,987.00
600,888.03,1477.38,2478.60,12165.50,1007.50
602,888.35,1481.42,1554.51,10508.50,1022.00
604,888.67,1485.45,1051.51,9514.50,1008.50
606,888.99,1489.48,686.43,8788.50,987.50
608,889.31,1493.50,425.76,8304.00,1008.50
610,889.62,1497.52,273.51,7955.00,1006.50
612,889.94,1501.54,160.92,7679.00,972.50
614,890.26,1505.56,62.72,7435.50,998.00
616,890.58,1509.57,28.49,7241.00,1001.50
618,890.90,1513.57,16.43,7084.50,987.50
620,891.21,1517.58,19.80,6954.50,997.00
622,891.53,1521.58,63.50,6855.50,999.00
624,891.85,1525.58,0.00,6620.00,1000.00
626,892.17,1529.57,0.00,6462.00,1013.00
628,892.49,1533.57,0.00,6340.00,1008.50
630,892.80,1537.56,0.00,6148.50,987.50
632,893.12,1541.54,0.00,6031.00,982.00
634,893.44,1545.52,0.00,5906.50,1010.50
636,893.76,1549.50,0.00,5795.50,975.00
638,894.07,1553.48,0.00,5704.50,1013.50
640,894.39,1557.45,0.00,5665.50,987.50
642,894.71,1561.42,0.00,5643.00,1008.50
644,895.03,1565.39,0.00,5586.50,975.00
646,895.34,1569.35,0.00,5659.00,1017.00
648,895.66,1573.31,0.00,5575.50,989.50
650,895.98,1577.26,0.00,5672.00,991.00
652,896.30,1581.22,2.27,5692.00,980.00
654,896.61,1585.17,17.38,5732.00,998.00
656,896.93,1589.11,50.25,5812.50,1014.00
658,897.25,1593.06,147.90,5896.00,980.00
660,897.57,1597.00,241.91,6003.50,994.50
662,897.88,1600.93,321.34,6136.00,1004.00
664,898.20,1604.87,519.99,6392.50,994.00
666,898.52,1608.80,744.55,6676.50,983.00
668,898.84,1612.72,1084.81,7108.50,974.00
670,899.15,1616.65,1494.25,7640.50,1008.50
672,899.47,1620.57,1835.70,8084.00,994.50
674,899.79,1624.49,2081.33,8578.50,1001.00
676,900.10,1628.40,2623.65,9751.00,986.50
678,900.42,1632.31,3922.87,12584.00,1019.00
680,900.74,1636.22,7779.31,19203.50,967.00
682,901.05,1640.12,18086.01,31627.50,1041.50
684,901.37,1644.02,32107.33,43486.00,1007.00
686,901.69,1647.92,29574.44,41383.50,1006.00
688,902.00,1651.82,14486.34,27553.50,1001.00
690,902.32,1655.71,5723.68,15968.00,982.50
692,902.64,1659.60,2742.60,10291.50,982.50
694,902.95,1663.48,1662.93,7946.50,1005.00
696,903.27,1667.36,1039.82,6770.00,995.00
698,903.59,1671.24,712.57,6239.50,1024.50
700,903.90,1675.11,504.18,5868.50,1005.50
702,904.22,1678.99,388.21,5634.00,971.50
704,904.54,1682.85,257.18,5522.00,1055.00
706,904.85,1686.72,303.59,5442.50,981.00
708,905.17,1690.58,390.07,5492.50,1004.00
710,905.49,1694.44,440.77,5487.50,987.00
712,905.80,1698.29,607.76,5647.00,992.50
714,906.12,1702.15,749.31,5753.50,1000.00
716,906.43,1706.00,869.00,5837.00,1008.00
718,906.75,1709.84,1010.32,5937.50,1022.00
720,907.07,1713.68,883.70,5709.00,987.50
722,907.38,1717.52,788.92,5546.50,1004.00
724,907.70,1721.36,659.73,5304.00,994.50
726,908.01,1725.19,536.28,5103.50,995.00
728,908.33,1729.02,409.83,4874.50,1008.50
730,908.65,1732.85,362.39,4690.00,985.00
732,908.96,1736.67,248.29,4509.50,1016.00
734,909.28,1740.49,153.02,4309.00,989.50
736,909.59,1744.30,58.51,4168.50,1008.50
738,909.91,1748.12,4.97,3988.00,993.00
740,910.22,1751.93,18.39,3943.50,1000.00
742,910.54,1755.73,0.00,3893.50,1056.00
744,910.85,1759.54,0.03,3797.00,1010.50
746,911.17,1763.34,0.00,3673.00,977.50
748,911.49,1767.13,0.00,3616.00,999.00
750,911.80,1770.93,0.00,3537.00,976.00
752,912.12,1774.72,0.00,3515.50,1009.50
754,912.43,1778.50,0.00,3458.50,967.50
756,912.75,1782.29,3.39,3443.00,977.00
758,913.06,1786.07,0.00,3385.00,977.50
760,913.38,1789.84,18.14,3404.50,988.00
762,913.69,1793.62,14.04,3382.00,1013.00
764,914.01,1797.39,1.08,3325.50,995.00
766,914.32,1801.15,0.00,3273.00,987.00
768,914.64,1804.92,5.64,3261.00,990.50
770,914.95,1808.68,0.00,3215.50,999.00
772,915.26,1812.44,0.00,3197.50,1014.00
774,915.58,1816.19,9.83,3172.00,967.00
776,915.89,1819.94,6.07,3170.50,1000.50
778,916.21,1823.69,1.72,3157.50,1013.50
780,916.52,1827.43,40.93,3201.50,1028.50
782,916.84,1831.17,47.69,3129.50,976.50
784,917.15,1834.91,74.44,3146.00,976.00
786,917.47,1838.64,115.61,3185.00,996.00
788,917.78,1842.38,109.34,3158.50,999.00
790,918.09,1846.10,91.98,3111.00,987.50
792,918.41,1849.83,91.07,3102.50,1005.50
794,918.72,1853.55,82.06,3038.00,971.50
796,919.04,1857.27,73.77,3027.00,982.00
798,919.35,1860.98,66.22,2999.00,989.50
800,919.66,1864.69,108.47,3018.50,988.50
802,919.98,1868.40,78.96,2983.00,1006.00
804,920.29,1872.11,100.31,2966.50,985.50
806,920.60,1875.81,106.42,2946.50,983.00
808,920.92,1879.51,116.95,2933.50,978.00
810,921.23,1883.20,88.31,2910.00,1004.00
812,921.55,1886.90,106.17,2880.00,978.00
814,921.86,1890.58,91.54,2866.50,1004.50
816,922.17,1894.27,104.42,2876.50,1019.00
818,922.49,1897.95,102.26,2842.00,1003.50
820,922.80,1901.63,88.41,2801.50,1000.00
822,923.11,1905.31,127.82,2803.50,985.00
824,923.42,1908.98,114.70,2781.50,997.00
826,923.74,1912.65,115.12,2778.00,1006.50
828,924.05,1916.31,115.72,2737.00,990.50
830,924.36,1919.98,158.92,2747.50,979.00
832,924.68,1923.64,118.59,2692.00,978.00
834,924.99,1927.29,119.99,2675.50,980.00
836,925.30,1930.94,130.79,2654.50,977.00
838,925.61,1934.59,152.48,2664.00,984.50
840,925.93,1938.24,104.01,2600.00,988.00
842,926.24,1941.88,122.06,2604.00,991.50
844,926.55,1945.52,95.28,2541.50,978.00
846,926.86,1949.16,77.66,2522.50,999.00
848,927.18,1952.79,71.50,2483.50,986.00
850,927.49,1956.42,76.70,2474.00,990.50
852,927.80,1960.05,100.73,2558.00,1070.00
854,928.11,1963.67,94.33,2458.00,993.50
856,928.42,1967.29,99.92,2456.00,1007.50
858,928.74,1970.91,135.23,2448.50,988.00
860,929.05,1974.52,127.59,2428.50,992.50
862,929.36,1978.13,107.39,2376.50,977.00
864,929.67,1981.74,98.86,2357.50,981.50
866,929.98,1985.35,94.26,2332.00,988.00
868,930.29,1988.95,94.97,2319.50,995.50
870,930.61,1992.54,43.03,2240.50,985.00
872,930.92,1996.14,50.92,2225.50,984.00
874,931.23,1999.73,43.86,2216.00,1000.00
876,931.54,2003.32,21.23,2169.50,996.50
878,931.85,2006.90,19.74,2143.00,989.50
880,932.16,2010.48,22.69,2130.50,990.50
882,932.47,2014.06,23.65,2098.50,978.00
884,932.78,2017.63,31.19,2113.50,1002.00
886,933.09,2021.21,14.36,2064.00,990.50
888,933.41,2024.77,43.98,2083.00,999.00
890,933.72,2028.34,13.61,2068.50,1025.50
892,934.03,2031.90,3.22,2011.00,1001.00
894,934.34,2035.46,11.90,2009.00,1010.50
896,934.65,2039.01,10.34,1955.50,972.50
898,934.96,2042.57,0.00,1955.50,1006.50
900,935.27,2046.11,0.00,1958.50,1025.50
902,935.58,2049.66,9.11,1895.00,963.00
904,935.89,2053.20,0.00,1907.50,1006.00
906,936.20,2056.74,0.63,1886.50,992.50
908,936.51,2060.28,4.23,1871.50,991.00
910,936.82,2063.81,0.00,1866.00,1013.00
912,937.13,2067.34,22.46,1867.00,997.00
914,937.44,2070.86,0.00,1808.00,987.50
916,937.75,2074.39,33.15,1819.50,967.50
918,938.06,2077.91,9.66,1798.50,976.00
920,938.37,2081.42,0.00,1793.00,1001.00
922,938.68,2084.94,1.72,1783.00,986.50
924,938.99,2088.45,0.32,1773.00,992.00
926,939.30,2091.95,4.47,1784.00,1007.50
928,939.60,2095.46,0.00,1741.50,987.50
930,939.91,2098.96,0.02,1759.50,1005.50
932,940.22,2102.45,0.00,1742.50,999.00
934,940.53,2105.95,1.17,1728.00,987.50
936,940.84,2109.44,0.00,1707.00,987.50
938,941.15,2112.92,14.67,1732.50,991.00
940,941.46,2116.41,43.14,1731.50,983.00
942,941.77,2119.89,16.74,1730.50,997.00
944,942.07,2123.37,2.96,1711.00,995.00
946,942.38,2126.84,0.00,1697.50,1002.00
948,942.69,2130.31,26.99,1728.50,1006.50
950,943.00,2133.78,0.00,1674.00,992.50
952,943.31,2137.24,0.00,1690.00,1003.00
954,943.62,2140.70,1.53,1685.00,999.00
956,943.92,2144.16,8.00,1686.50,997.00
958,944.23,2147.62,0.00,1678.00,1000.00
960,944.54,2151.07,16.28,1710.00,1014.50
962,944.85,2154.52,0.00,1701.50,1026.00
964,945.16,2157.96,8.55,1700.50,1015.00
966,945.46,2161.40,3.14,1680.50,1006.00
968,945.77,2164.84,8.88,1656.00,974.50
970,946.08,2168.28,7.67,1675.00,993.00
972,946.39,2171.71,29.04,1689.00,987.50
974,946.69,2175.14,65.99,1717.50,988.50
976,947.00,2178.57,119.86,1753.50,983.00
978,947.31,2181.99,162.14,1784.00,977.50
980,947.61,2185.41,170.68,1814.00,997.00
982,947.92,2188.82,228.48,1862.50,1002.00
984,948.23,2192.24,240.92,1836.50,973.50
986,948.53,2195.65,222.19,1846.50,995.00
988,948.84,2199.05,188.09,1778.50,955.00
990,949.15,2202.46,190.16,1817.50,995.50
992,949.45,2205.86,144.33,1768.50,987.00
994,949.76,2209.25,126.53,1747.00,985.50
996,950.07,2212.65,146.61,1748.50,980.00
998,950.37,2216.04,132.66,1733.00,973.00
1000,950.68,2219.43,83.07,1707.50,988.50
1002,950.98,2222.81,91.81,1721.50,1005.00
1004,951.29,2226.19,92.30,1694.50,980.00
1006,951.60,2229.57,93.53,1688.00,969.00
1008,951.90,2232.94,87.52,1672.00,968.50
1010,952.21,2236.32,118.24,1692.50,974.50
1012,952.51,2239.68,60.76,1677.00,998.00
1014,952.82,2243.05,45.50,1639.50,966.00
1016,953.12,2246.41,20.82,1665.50,1021.00
1018,953.43,2249.77,46.35,1704.50,1045.00
1020,953.73,2253.12,84.55,1690.00,1009.50
1022,954.04,2256.48,37.79,1606.50,959.00
1024,954.34,2259.83,21.21,1646.50,1014.00
1026,954.65,2263.17,57.35,1652.00,992.50
1028,954.95,2266.51,25.34,1622.50,993.00
1030,955.26,2269.85,49.77,1665.50,1019.00
1032,955.56,2273.19,53.79,1644.50,994.00
1034,955.87,2276.52,51.25,1649.50,1004.00
1036,956.17,2279.85,50.85,1653.00,1013.00
1038,956.48,2283.18,25.10,1598.50,978.00
1040,956.78,2286.50,34.08,1607.50,981.00
1042,957.08,2289.82,40.16,1589.50,964.00
1044,957.39,2293.14,84.34,1651.00,995.00
1046,957.69,2296.45,48.32,1588.00,959.50
1048,957.99,2299.76,39.87,1642.50,1021.00
1050,958.30,2303.07,29.07,1609.50,1001.00
1052,958.60,2306.38,43.47,1607.00,991.50
1054,958.91,2309.68,29.21,1600.00,992.00
1056,959.21,2312.98,27.97,1583.00,972.50
1058,959.51,2316.27,26.87,1591.00,991.50
1060,959.82,2319.56,59.69,1617.50,1003.00
1062,960.12,2322.85,19.28,1579.00,989.50
1064,960.42,2326.14,26.57,1572.50,978.00
1066,960.72,2329.42,40.32,1595.00,998.00
1068,961.03,2332.70,28.63,1585.50,1000.00
1070,961.33,2335.97,33.44,1586.00,999.00
1072,961.63,2339.25,22.16,1559.00,979.50
1074,961.93,2342.52,5.09,1559.50,992.50
1076,962.24,2345.78,5.05,1555.00,989.50
1078,962.54,2349.05,26.65,1567.50,991.50
1080,962.84,2352.31,31.10,1553.50,982.00
1082,963.14,2355.56,12.08,1534.00,975.00
1084,963.45,2358.82,1.22,1537.00,986.50
1086,963.75,2362.07,0.00,1554.50,1012.00
1088,964.05,2365.32,17.60,1585.50,1026.50
1090,964.35,2368.56,0.00,1531.50,988.50
1092,964.65,2371.80,0.00,1552.50,1008.50
1094,964.95,2375.04,0.00,1536.50,996.00
1096,965.25,2378.27,0.00,1522.00,989.50
1098,965.56,2381.51,18.34,1553.00,992.50
1100,965.86,2384.73,19.73,1559.00,997.00
1102,966.16,2387.96,36.30,1564.00,989.50
1104,966.46,2391.18,31.49,1586.50,1017.00
1106,966.76,2394.40,72.76,1577.00,983.00
1108,967.06,2397.62,71.82,1606.00,1007.00
1110,967.36,2400.83,34.44,1561.00,984.00
1112,967.66,2404.04,56.47,1614.50,1021.00
1114,967.96,2407.25,47.47,1559.50,972.50
1116,968.26,2410.45,87.92,1595.00,983.50
1118,968.56,2413.65,106.20,1604.50,984.00
1120,968.86,2416.85,55.35,1616.00,1022.00
1122,969.16,2420.04,69.83,1603.50,996.00
1124,969.46,2423.23,91.34,1592.00,977.00
1126,969.76,2426.42,76.51,1598.00,994.50
1128,970.06,2429.60,63.29,1574.50,971.50
1130,970.36,2432.79,48.34,1575.00,981.00
1132,970.66,2435.96,58.53,1581.00,986.50
1134,970.96,2439.14,84.39,1592.00,983.00
1136,971.26,2442.31,56.93,1612.00,1011.50
1138,971.56,2445.48,67.16,1606.50,999.00
1140,971.86,2448.65,65.85,1590.50,989.50
1142,972.16,2451.81,68.40,1617.00,1010.50
1144,972.45,2454.97,80.00,1612.00,995.50
1146,972.75,2458.13,75.86,1605.50,999.00
1148,973.05,2461.28,161.69,1627.00,976.00
1150,973.35,2464.43,60.58,1603.50,1004.00
1152,973.65,2467.58,60.32,1607.50,1005.00
1154,973.95,2470.72,54.57,1597.00,998.50
1156,974.24,2473.86,28.18,1568.50,988.50
1158,974.54,2477.00,21.22,1562.00,987.50
1160,974.84,2480.13,4.17,1568.00,1003.00
1162,975.14,2483.27,0.00,1540.00,992.00
1164,975.43,2486.40,0.00,1536.50,975.50
1166,975.73,2489.52,33.08,1574.50,990.50
1168,976.03,2492.64,0.00,1537.00,979.00
1170,976.33,2495.76,0.00,1558.50,991.50
1172,976.62,2498.88,0.00,1550.50,983.00
1174,976.92,2501.99,0.00,1564.00,1003.50
1176,977.22,2505.10,0.00,1572.50,1000.00
1178,977.51,2508.21,0.00,1582.50,995.00
1180,977.81,2511.31,0.00,1579.00,991.50
1182,978.11,2514.41,0.00,1603.50,990.50
1184,978.40,2517.51,0.00,1626.50,997.00
1186,978.70,2520.61,0.00,1631.50,994.50
1188,979.00,2523.70,32.55,1686.50,1006.00
1190,979.29,2526.79,0.00,1674.50,990.50
1192,979.59,2529.87,0.00,1689.00,992.50
1194,979.88,2532.95,0.00,1691.00,978.00
1196,980.18,2536.03,33.18,1752.50,994.00
1198,980.48,2539.11,0.00,1766.00,1017.00
1200,980.77,2542.18,31.88,1785.50,995.00
1202,981.07,2545.25,3.44,1813.50,1018.00
1204,981.36,2548.32,0.00,1797.50,992.50
1206,981.66,2551.38,36.16,1868.50,1017.00
1208,981.95,2554.44,25.22,1861.00,998.50
1210,982.25,2557.50,61.43,1919.00,1021.00
1212,982.54,2560.56,75.08,1935.00,1019.00
1214,982.84,2563.61,54.09,1949.00,1014.50
1216,983.13,2566.66,1.68,1949.00,1023.00
1218,983.43,2569.70,0.00,1955.50,1015.00
1220,983.72,2572.74,2.05,1983.50,1020.00
1222,984.01,2575.78,27.58,2003.00,1008.50
1224,984.31,2578.82,41.97,2005.00,989.50
1226,984.60,2581.85,77.25,2058.50,1004.50
1228,984.90,2584.88,94.98,2058.50,979.00
1230,985.19,2587.91,137.61,2117.00,1000.00
1232,985.48,2590.93,158.52,2161.00,1014.00
1234,985.78,2593.96,185.54,2187.50,1011.50
1236,986.07,2596.97,247.92,2217.50,1003.00
1238,986.36,2599.99,231.43,2255.00,1034.50
1240,986.66,2603.00,224.71,2267.00,1032.00
1242,986.95,2606.01,215.79,2269.50,1024.50
1244,987.24,2609.01,125.01,2227.50,1008.50
1246,987.54,2612.02,91.46,2196.00,973.50
1248,987.83,2615.02,40.78,2227.50,1009.50
1250,988.12,2618.01,5.33,2228.00,1020.00
1252,988.41,2621.01,24.23,2249.00,1007.50
1254,988.71,2624.00,52.36,2254.50,994.50
1256,989.00,2626.99,47.80,2275.00,1012.00
1258,989.29,2629.97,149.58,2331.50,1012.50
1260,989.58,2632.95,160.52,2349.00,1018.00
1262,989.87,2635.93,204.34,2381.00,1019.00
1264,990.16,2638.91,232.86,2374.50,988.50
1266,990.46,2641.88,231.49,2416.00,1021.50
1268,990.75,2644.85,222.26,2437.00,1037.00
1270,991.04,2647.81,283.45,2445.50,1005.50
1272,991.33,2650.78,275.90,2464.00,1015.00
1274,991.62,2653.74,343.92,2495.50,1004.00
1276,991.91,2656.70,444.16,2543.50,1008.00
1278,992.20,2659.65,596.94,2613.50,1012.50
1280,992.49,2662.60,693.82,2654.50,1001.00
1282,992.78,2665.55,760.79,2744.50,1054.00
1284,993.07,2668.50,906.70,2780.50,1033.00
1286,993.36,2671.44,1038.99,2822.50,1022.00
1288,993.65,2674.38,956.68,2814.00,1031.00
1290,993.94,2677.31,860.08,2771.00,1010.00
1292,994.23,2680.25,786.09,2749.50,1015.00
1294,994.52,2683.18,832.22,2767.50,1010.50
1296,994.81,2686.10,816.83,2777.50,1019.00
1298,995.10,2689.03,844.98,2805.00,1027.50
1300,995.39,2691.95,1041.67,2869.00,1008.50
1302,995.68,2694.87,1116.12,2930.00,1036.00
1304,995.97,2697.78,1275.07,3014.00,1037.00
1306,996.26,2700.70,1481.94,3064.50,989.50
1308,996.55,2703.61,1805.06,3216.50,1013.00
1310,996.84,2706.51,2245.55,3400.00,1026.00
1312,997.13,2709.42,2616.53,3537.00,1027.50
1314,997.41,2712.32,3085.96,3705.00,1029.50
1316,997.70,2715.21,3443.13,3834.00,1014.00
1318,997.99,2718.11,3553.84,3924.50,1018.00
1320,998.28,2721.00,3745.41,4023.00,1004.00
1322,998.57,2723.89,4270.28,4230.00,1023.50
1324,998.86,2726.77,5031.14,4418.00,999.00
1326,999.14,2729.66,5757.47,4613.50,1011.00
1328,999.43,2732.54,5812.22,4615.50,1014.00
1330,999.72,2735.41,5281.45,4460.00,1013.00
1332,1000.01,2738.29,4361.11,4180.00,1040.00
1334,1000.29,2741.16,3676.63,3911.00,1015.00
1336,1000.58,2744.03,2837.64,3583.00,994.00
1338,1000.87,2746.89,2078.52,3355.00,1039.00
1340,1001.15,2749.75,1462.73,3093.00,1013.00
1342,1001.44,2752.61,1102.22,2938.00,1008.50
1344,1001.73,2755.47,798.22,2822.50,1006.00
1346,1002.01,2758.32,365.11,2673.50,1016.00
1348,1002.30,2761.17,197.67,2632.50,1038.00
1350,1002.59,2764.02,81.63,2591.00,1043.00
1352,1002.87,2766.86,0.00,2519.50,1011.00
1354,1003.16,2769.70,0.11,2519.50,1007.50
1356,1003.44,2772.54,0.00,2472.50,988.50
1358,1003.73,2775.38,0.00,2494.00,1023.50
1360,1004.01,2778.21,0.00,2496.00,989.50
1362,1004.30,2781.04,0.00,2531.00,1010.00
1364,1004.58,2783.87,0.00,2574.00,1003.00
1366,1004.87,2786.69,0.00,2576.50,975.50
1368,1005.15,2789.51,0.00,2641.00,1028.50
1370,1005.44,2792.33,0.00,2684.00,1018.00
1372,1005.72,2795.14,0.00,2809.50,1030.00
1374,1006.01,2797.95,0.00,2886.00,1025.50
1376,1006.29,2800.76,0.00,2927.00,999.50
1378,1006.58,2803.57,0.00,3064.50,1041.00
1380,1006.86,2806.37,0.00,3149.00,1005.00
1382,1007.14,2809.17,0.31,3332.50,1009.00
1384,1007.43,2811.97,46.83,3515.50,997.00
1386,1007.71,2814.77,302.46,3704.50,1007.00
1388,1008.00,2817.56,1006.74,3959.50,999.00
1390,1008.28,2820.35,2121.69,4316.50,1028.50
1392,1008.56,2823.13,3406.21,4675.50,1007.00
1394,1008.85,2825.91,4894.44,5143.50,1020.00
1396,1009.13,2828.69,6619.51,5675.00,1009.50
1398,1009.41,2831.47,8845.93,6423.00,1043.50
1400,1009.69,2834.24,11586.88,7264.50,996.50
1402,1009.98,2837.02,15491.75,8548.00,1010.00
1404,1010.26,2839.78,20368.45,10139.00,1040.00
1406,1010.54,2842.55,27481.70,12238.50,1004.50
1408,1010.82,2845.31,37820.60,15064.00,1030.00
1410,1011.11,2848.07,50890.02,18311.00,1032.00
1412,1011.39,2850.83,63076.53,21266.00,1034.00
1414,1011.67,2853.58,70852.78,23314.00,1040.00
1416,1011.95,2856.33,75395.70,24653.00,1024.00
1418,1012.23,2859.08,78929.34,25669.00,1015.00
1420,1012.51,2861.83,80962.13,26270.00,1015.50
1422,1012.80,2864.57,81474.10,26557.00,1059.50
1424,1013.08,2867.31,83247.10,26950.50,1054.00
1426,1013.36,2870.04,87883.45,27641.50,1047.50
1428,1013.64,2872.78,93453.50,28348.00,1019.00
1430,1013.92,2875.51,93342.68,28109.00,1067.00
1432,1014.20,2878.24,87467.21,26877.00,1030.00
1434,1014.48,2880.96,81169.37,25575.00,1019.00
1436,1014.76,2883.68,78536.37,24852.00,1008.50
1438,1015.04,2886.40,79389.39,24713.50,1010.50
1440,1015.32,2889.12,82021.40,24989.50,1046.00
1442,1015.60,2891.83,83821.74,25099.50,1014.00
1444,1015.88,2894.54,86111.89,25511.00,1040.00
1446,1016.16,2897.25,87523.52,25660.00,995.50
1448,1016.44,2899.96,88504.72,25768.00,1027.00
1450,1016.72,2902.66,89477.38,25805.00,1019.00
1452,1017.00,2905.36,89892.50,25738.50,1054.00
1454,1017.28,2908.06,89949.30,25556.00,1024.50
1456,1017.55,2910.75,89393.62,25284.50,1042.00
1458,1017.83,2913.44,89028.49,24977.50,1005.50
1460,1018.11,2916.13,88058.86,24565.50,1025.50
1462,1018.39,2918.81,87314.21,24224.50,1035.00
1464,1018.67,2921.49,85906.65,23742.00,1021.50
1466,1018.95,2924.17,84142.92,23218.50,1034.00
1468,1019.22,2926.85,83227.21,22864.00,1031.50
1470,1019.50,2929.52,82187.80,22404.00,1007.00
1472,1019.78,2932.20,81927.42,22043.00,1000.00
1474,1020.06,2934.86,81298.83,21490.00,1011.50
1476,1020.33,2937.53,80484.06,20924.00,1049.50
1478,1020.61,2940.19,74792.37,19482.00,1026.00
1480,1020.89,2942.85,65325.35,17582.50,1035.00
1482,1021.17,2945.51,54522.31,15459.50,1014.00
1484,1021.44,2948.16,46004.54,13713.50,1020.00
1486,1021.72,2950.81,40514.52,12400.00,1015.50
1488,1022.00,2953.46,38425.42,11720.50,1043.50
1490,1022.27,2956.11,38065.68,11296.50,1014.00
1492,1022.55,2958.75,38092.32,11036.50,1043.00
1494,1022.82,2961.39,37336.96,10660.00,1011.50
1496,1023.10,2964.03,34496.03,10068.50,1052.50
1498,1023.38,2966.66,30807.61,9327.50,1020.00
1500,1023.65,2969.29,26869.80,8613.50,1033.00
1502,1023.93,2971.92,23374.19,7961.50,1041.00
1504,1024.20,2974.55,21107.19,7472.00,1040.00
1506,1024.48,2977.17,20755.65,7265.00,1028.50
1508,1024.75,2979.79,21795.46,7256.50,1004.00
1510,1025.03,2982.41,22698.03,7270.50,1022.50
1512,1025.30,2985.02,22714.87,7173.50,1002.00
1514,1025.58,2987.63,21669.81,7058.00,1037.00
1516,1025.85,2990.24,19657.76,6753.00,1011.00
1518,1026.13,2992.85,18851.24,6689.50,1031.00
1520,1026.40,2995.45,19803.55,6854.50,1023.50
1522,1026.68,2998.05,22145.61,7175.00,1010.50
1524,1026.95,3000.65,26331.28,7803.50,1042.00
1526,1027.22,3003.25,30483.64,8340.00,1021.00
1528,1027.50,3005.84,33955.86,8786.50,1011.50
1530,1027.77,3008.43,35739.16,8983.00,1030.00
1532,1028.04,3011.02,35548.79,8851.00,1030.50
1534,1028.32,3013.60,32930.06,8381.00,1030.00
1536,1028.59,3016.18,28097.60,7609.50,1034.00
1538,1028.86,3018.76,22304.28,6618.00,980.00
1540,1029.14,3021.34,16938.73,5770.00,1020.50
1542,1029.41,3023.91,11981.52,4904.00,1006.50
1544,1029.68,3026.48,8346.15,4232.50,1005.50
1546,1029.95,3029.05,5763.43,3732.50,1024.50
1548,1030.22,3031.61,4188.36,3408.00,1012.00
1550,1030.50,3034.17,2192.43,3058.50,1005.50
1552,1030.77,3036.73,810.57,2827.50,1003.00
1554,1031.04,3039.29,147.39,2672.50,1022.00
1556,1031.31,3041.84,8.17,2503.50,979.00
1558,1031.58,3044.39,0.00,2453.00,1048.00
1560,1031.85,3046.94,0.00,2368.00,1036.00
1562,1032.13,3049.49,0.00,2255.00,1001.00
1564,1032.40,3052.03,0.00,2235.00,1023.00
1566,1032.67,3054.57,0.00,2186.00,1013.00
1568,1032.94,3057.11,0.00,2189.50,1043.50
1570,1033.21,3059.64,8.63,2163.50,998.00
1572,1033.48,3062.18,93.56,2195.00,1035.00
1574,1033.75,3064.70,295.79,2191.50,1033.00
1576,1034.02,3067.23,929.97,2271.00,1035.00
1578,1034.29,3069.75,1684.43,2308.00,987.00
1580,1034.56,3072.28,2711.75,2469.50,1024.50
1582,1034.83,3074.79,3957.29,2582.00,997.00
1584,1035.10,3077.31,5731.53,2798.00,1029.50
1586,1035.37,3079.82,7477.02,2932.50,1000.00
1588,1035.64,3082.33,8365.99,3057.00,1045.50
1590,1035.91,3084.84,8385.05,3032.50,1028.50
1592,1036.17,3087.34,8113.67,2959.00,1006.00
1594,1036.44,3089.85,7799.04,2936.00,1058.00
1596,1036.71,3092.35,7025.87,2742.00,1005.50
1598,1036.98,3094.84,6093.07,2582.50,998.00
1600,1037.25,3097.34,4893.84,2404.50,993.50
1602,1037.52,3099.83,3705.71,2257.50,1012.00
1604,1037.78,3102.32,2618.09,2105.50,1016.00
1606,1038.05,3104.80,1751.45,1987.00,1035.00
1608,1038.32,3107.29,1150.13,1849.00,1009.50
1610,1038.59,3109.77,861.38,1785.00,1017.00
1612,1038.85,3112.24,686.72,1722.50,1008.50
1614,1039.12,3114.72,564.75,1697.50,1024.50
1616,1039.39,3117.19,153.23,1590.00,987.00
1618,1039.66,3119.66,66.98,1611.00,1031.00
1620,1039.92,3122.13,5.28,1581.00,1035.00
1622,1040.19,3124.59,0.27,1535.50,1013.00
1624,1040.45,3127.05,0.00,1491.00,1001.00
1626,1040.72,3129.51,0.00,1489.50,1020.00
1628,1040.99,3131.97,0.00,1502.00,1039.00
1630,1041.25,3134.42,119.03,1518.50,1043.50
1632,1041.52,3136.87,0.00,1437.00,999.00
1634,1041.78,3139.32,113.19,1464.00,1015.50
1636,1042.05,3141.77,25.90,1525.00,1092.00
1638,1042.32,3144.21,46.78,1439.50,1009.50
1640,1042.58,3146.65,0.00,1453.50,1042.50
1642,1042.85,3149.09,0.00,1438.50,1029.50
1644,1043.11,3151.52,55.30,1437.50,1022.50
1646,1043.38,3153.96,110.02,1440.50,1028.50
1648,1043.64,3156.39,0.00,1398.50,1017.00
1650,1043.90,3158.81,2.72,1414.00,1016.00
1652,1044.17,3161.24,11.25,1429.00,1031.00
1654,1044.43,3163.66,0.00,1402.00,1008.50
1656,1044.70,3166.08,155.24,1460.50,1053.00
1658,1044.96,3168.49,23.61,1414.00,1021.00
1660,1045.22,3170.91,105.57,1411.00,1011.50
1662,1045.49,3173.32,146.32,1425.50,1024.00
1664,1045.75,3175.73,94.63,1424.50,1031.00
1666,1046.01,3178.13,154.07,1402.50,1006.00
1668,1046.28,3180.54,129.48,1435.50,1039.00
1670,1046.54,3182.94,26.82,1427.00,1043.00
1672,1046.80,3185.34,168.16,1440.50,1035.00
1674,1047.07,3187.73,244.62,1415.50,1013.00
1676,1047.33,3190.12,549.74,1436.50,1019.00
1678,1047.59,3192.51,547.84,1437.50,1027.50
1680,1047.85,3194.90,456.52,1455.00,1051.50
1682,1048.11,3197.29,367.16,1433.00,1038.00
1684,1048.38,3199.67,539.13,1439.50,1032.50
1686,1048.64,3202.05,764.13,1466.50,1046.50
1688,1048.90,3204.43,807.56,1444.50,1026.50
1690,1049.16,3206.80,715.24,1434.50,1028.50
1692,1049.42,3209.17,924.23,1463.50,1042.50
1694,1049.68,3211.54,1100.78,1441.50,1007.50
1696,1049.94,3213.91,1101.14,1440.50,1011.00
1698,1050.20,3216.27,1027.64,1443.00,1026.50
1700,1050.46,3218.63,1380.69,1491.50,1050.50
1702,1050.72,3220.99,1229.84,1458.50,1031.50
1704,1050.98,3223.35,1379.82,1470.50,1032.50
1706,1051.24,3225.70,1210.70,1438.50,1020.00
1708,1051.50,3228.05,1484.28,1441.50,1007.50
1710,1051.76,3230.40,1576.90,1471.00,1035.00
1712,1052.02,3232.75,1608.51,1468.00,1032.00
1714,1052.28,3235.09,1624.09,1479.00,1044.50
1716,1052.54,3237.43,1672.76,1460.50,1027.50
1718,1052.80,3239.77,1927.42,1461.00,1015.00
1720,1053.06,3242.11,1933.27,1467.00,1025.00
1722,1053.32,3244.44,1871.45,1441.50,1006.00
1724,1053.58,3246.77,1893.18,1492.50,1059.00
1726,1053.84,3249.10,2161.95,1472.00,1025.00
1728,1054.10,3251.42,2233.38,1478.00,1031.50
1730,1054.35,3253.75,2041.88,1462.50,1033.00
1732,1054.61,3256.07,2128.12,1481.50,1048.50
1734,1054.87,3258.39,2340.33,1466.50,1022.00
1736,1055.13,3260.70,2209.57,1453.00,1022.50
1738,1055.38,3263.01,2463.06,1464.00,1020.00
1740,1055.64,3265.32,2525.43,1475.50,1032.00
1742,1055.90,3267.63,2615.51,1449.00,1004.50
1744,1056.16,3269.94,2978.15,1503.00,1040.00
1746,1056.41,3272.24,2912.79,1501.50,1050.50
1748,1056.67,3274.54,3325.91,1510.50,1038.00
1750,1056.93,3276.84,3078.13,1493.50,1038.00
1752,1057.18,3279.13,2863.54,1464.00,1023.00
1754,1057.44,3281.42,3423.24,1480.00,1007.50
1756,1057.69,3283.71,3105.49,1467.50,1025.50
1758,1057.95,3286.00,3295.98,1499.00,1053.00
1760,1058.21,3288.28,3166.13,1454.00,1019.00
1762,1058.46,3290.57,3030.62,1468.50,1042.00
1764,1058.72,3292.85,2629.72,1445.00,1044.50
1766,1058.97,3295.12,2934.15,1428.00,1010.50
1768,1059.23,3297.40,2407.37,1406.00,1025.50
1770,1059.48,3299.67,2726.47,1434.00,1040.00
1772,1059.74,3301.94,2806.49,1397.50,1006.00
1774,1059.99,3304.21,2787.85,1435.00,1050.50
1776,1060.25,3306.47,3036.45,1442.50,1048.50
1778,1060.50,3308.73,2898.61,1405.00,1022.00
1780,1060.76,3310.99,2846.42,1398.50,1019.00
1782,1061.01,3313.25,2525.29,1392.00,1031.50
1784,1061.26,3315.50,2586.80,1394.50,1034.00
1786,1061.52,3317.76,2785.98,1401.50,1037.00
1788,1061.77,3320.01,3095.65,1419.50,1046.50
1790,1062.02,3322.25,2899.58,1370.50,1013.00
1792,1062.28,3324.50,3192.05,1397.00,1024.50
1794,1062.53,3326.74,2525.09,1347.50,1011.00
1796,1062.78,3328.98,2796.31,1374.00,1027.00
1798,1063.04,3331.22,2843.74,1358.50,1014.50
1800,1063.29,3333.45,2720.83,1354.50,1019.50
1802,1063.54,3335.68,2624.40,1352.00,1023.00
1804,1063.79,3337.91,2660.24,1372.00,1044.00
1806,1064.05,3340.14,2819.24,1392.00,1061.00
1808,1064.30,3342.36,2705.74,1329.00,1008.50
1810,1064.55,3344.59,2840.75,1361.00,1037.00
1812,1064.80,3346.81,2688.66,1339.50,1026.50
1814,1065.05,3349.02,3278.27,1352.00,1017.00
1816,1065.30,3351.24,3443.29,1363.50,1027.50
1818,1065.55,3353.45,2823.65,1328.50,1022.00
1820,1065.81,3355.66,2747.66,1372.00,1065.50
1822,1066.06,3357.87,2400.76,1316.00,1025.00
1824,1066.31,3360.07,2745.81,1309.50,1007.50
1826,1066.56,3362.27,3234.04,1355.50,1041.50
1828,1066.81,3364.47,3398.40,1311.50,998.00
1830,1067.06,3366.67,3315.30,1331.00,1022.50
1832,1067.31,3368.87,2634.85,1306.00,1025.50
1834,1067.56,3371.06,2795.24,1284.50,996.00
1836,1067.81,3373.25,2583.21,1276.00,1000.00
1838,1068.06,3375.44,2920.89,1283.00,999.00
1840,1068.31,3377.62,3093.49,1295.00,1011.00
1842,1068.56,3379.81,3337.67,1278.00,988.00
1844,1068.80,3381.99,3460.85,1346.50,1052.00
1846,1069.05,3384.16,2597.68,1299.00,1040.00
1848,1069.30,3386.34,2873.70,1285.50,1017.00
1850,1069.55,3388.51,2879.66,1282.00,1016.00
1852,1069.80,3390.68,3084.69,1297.00,1025.00
1854,1070.05,3392.85,2844.14,1328.50,1069.50
1856,1070.30,3395.02,2857.44,1280.00,1026.00
1858,1070.54,3397.18,3273.74,1269.50,1004.50
1860,1070.79,3399.34,3011.38,1281.00,1026.00
1862,1071.04,3401.50,2628.50,1259.00,1017.00
1864,1071.29,3403.66,2678.09,1236.50,994.00
1866,1071.53,3405.81,2951.70,1276.00,1028.50
1868,1071.78,3407.96,2783.08,1255.00,1020.00
1870,1072.03,3410.11,3318.41,1266.00,1016.00
1872,1072.27,3412.26,2874.31,1254.00,1020.00
1874,1072.52,3414.40,2399.52,1236.50,1019.00
1876,1072.77,3416.54,2936.59,1242.50,1007.00
1878,1073.01,3418.68,2602.54,1257.00,1037.00
1880,1073.26,3420.82,2987.94,1211.50,982.50
1882,1073.51,3422.96,3012.12,1256.50,1030.50
1884,1073.75,3425.09,2921.11,1252.50,1031.00
1886,1074.00,3427.22,2472.97,1203.00,996.00
1888,1074.24,3429.35,2506.51,1251.50,1043.50
1890,1074.49,3431.47,2510.37,1215.50,1010.50
1892,1074.73,3433.59,2632.85,1203.00,999.00
1894,1074.98,3435.71,3253.09,1252.50,1033.00
1896,1075.22,3437.83,3113.82,1227.50,1014.00
1898,1075.47,3439.95,2850.33,1227.00,1022.00
1900,1075.71,3442.06,2191.52,1225.00,1041.50
1902,1075.96,3444.17,2451.54,1201.50,1012.00
1904,1076.20,3446.28,1950.20,1140.00,969.50
1906,1076.44,3448.38,2784.80,1241.00,1049.00
1908,1076.69,3450.49,3204.24,1237.00,1033.00
1910,1076.93,3452.59,1825.75,1188.00,1024.00
1912,1077.17,3454.69,2109.15,1187.00,1015.00
1914,1077.42,3456.79,2676.66,1198.50,1013.00
1916,1077.66,3458.88,2266.26,1170.00,1001.00
1918,1077.90,3460.97,2161.81,1164.00,1001.00
1920,1078.15,3463.06,2648.51,1208.00,1033.00
1922,1078.39,3465.15,2187.68,1187.00,1024.50
1924,1078.63,3467.23,2269.81,1151.00,986.00
1926,1078.87,3469.32,1872.55,1191.50,1039.00
1928,1079.12,3471.40,1990.62,1166.50,1013.50
1930,1079.36,3473.47,2514.07,1220.50,1057.00
1932,1079.60,3475.55,2156.10,1143.50,991.50
1934,1079.84,3477.62,2163.75,1179.50,1027.50
1936,1080.08,3479.69,1660.84,1147.00,1008.50
1938,1080.33,3481.76,1559.50,1136.00,1002.00
1940,1080.57,3483.83,2055.37,1163.50,1019.00
1942,1080.81,3485.89,2031.52,1162.00,1018.50
1944,1081.05,3487.95,1781.58,1169.00,1032.00
1946,1081.29,3490.01,1143.85,1152.00,1033.50
1948,1081.53,3492.07,2417.40,1144.50,998.00
1950,1081.77,3494.12,1618.86,1137.00,1011.00
1952,1082.01,3496.18,1362.20,1153.00,1033.00
1954,1082.25,3498.23,1975.82,1136.00,1001.50
1956,1082.49,3500.27,1338.83,1136.50,1020.00
1958,1082.73,3502.32,1861.17,1120.50,995.00
1960,1082.97,3504.36,1842.75,1146.00,1022.00
1962,1083.21,3506.40,1418.96,1122.50,1007.50
1964,1083.45,3508.44,1290.98,1093.00,981.00
1966,1083.69,3510.48,1726.99,1175.50,1054.00
1968,1083.93,3512.51,1091.00,1131.00,1025.50
1970,1084.16,3514.54,1693.97,1126.00,1008.00
1972,1084.40,3516.57,1368.49,1115.00,1006.50
1974,1084.64,3518.60,1420.26,1110.50,1003.00
1976,1084.88,3520.62,2013.83,1146.00,1028.50
1978,1085.12,3522.65,1675.95,1149.50,1041.00
1980,1085.36,3524.67,1117.54,1121.50,1025.00
1982,1085.59,3526.68,1566.27,1101.00,995.00
1984,1085.83,3528.70,752.80,1129.00,1038.00
1986,1086.07,3530.71,653.61,1098.50,1008.50
1988,1086.31,3532.72,761.36,1118.00,1026.00
1990,1086.54,3534.73,638.43,1093.00,1007.50
1992,1086.78,3536.74,1431.40,1144.00,1048.00
1994,1087.02,3538.74,1432.69,1114.50,1022.00
1996,1087.25,3540.74,1105.22,1082.50,994.50
1998,1087.49,3542.74,89.51,1100.50,1030.00
2000,1087.73,3544.74,305.48,1090.00,1014.00
2002,1087.96,3546.74,314.52,1104.00,1028.50
2004,1088.20,3548.73,468.04,1120.50,1044.50
2006,1088.43,3550.72,1122.09,1104.00,1020.00
2008,1088.67,3552.71,1301.70,1093.00,1007.00
2010,1088.90,3554.69,328.48,1067.50,998.00
2012,1089.14,3556.68,793.67,1102.50,1024.00
2014,1089.38,3558.66,128.15,1068.50,1004.50
2016,1089.61,3560.64,376.62,1074.00,1006.50
2018,1089.84,3562.62,367.35,1099.00,1033.00
2020,1090.08,3564.59,1220.07,1075.00,997.00
2022,1090.31,3566.56,564.22,1072.00,1004.50
2024,1090.55,3568.53,592.17,1064.50,996.00
2026,1090.78,3570.50,157.93,1052.50,992.50
2028,1091.02,3572.47,640.71,1057.00,989.50
2030,1091.25,3574.43,645.38,1061.00,994.50
2032,1091.48,3576.39,2.80,1028.50,973.50
2034,1091.72,3578.35,641.51,1030.00,964.00
2036,1091.95,3580.31,457.27,1056.00,995.00
2038,1092.18,3582.26,41.14,1024.00,970.50
2040,1092.42,3584.22,824.89,1026.00,964.00
2042,1092.65,3586.17,133.19,1032.50,979.00
2044,1092.88,3588.12,54.64,1028.50,976.00
2046,1093.11,3590.06,32.59,1018.00,964.00
2047,1093.23,3591.03,0.00,1010.50,962.00