File: enlighten/plugins/Raman/MatchingLibrary/785X/citric acid.csv
ENLIGHTEN Version,4.1.22
Measurement ID,20250220-203229-597040-WP-01977
Serial Number,WP-01977
Model,WP-785X-F13-R-ILC
Detector,S16011-1106
Label,citric acid
Declared Match,
Declared Score,0
Scan Averaging,1
Boxcar,0
Technique,Raman
Baseline Correction Algo,AirPLS
ROI Pixel Start,47
ROI Pixel End,2047
ROI Start Line,0
ROI Stop Line,63
CCD C4,1.38617e-12
Slit Width,25
Cropped,True
Interpolated,False
Wavenumber Correction,-0.100481
Raman Intensity Corrected,True
Deconvolved,True
Region,
High Gain Mode,False
Laser Power mW,
Electrical Dark Correction,False
Battery %,
Device ID,<DeviceID USB:0x24aa:0x1000:0:1>
FW Version,10.0.0.10
FPGA Version,035-001
BLE Version,
Prefix,enlighten
Suffix,
Preset,
Auto-Raman,True
Session Count,0
Plugin Name,
Integration Time,1914
Timestamp,2025-02-20 20:32:29.597
Note,
Temperature,0
CCD C0,793.274
CCD C1,0.153259
CCD C2,1.40788e-05
CCD C3,-1.132e-08
CCD Offset,0
CCD Gain,1.9
CCD Offset Odd,0
CCD Gain Odd,1.9
Laser Wavelength,785.032
Laser Enable,False
Laser Power %,0
Laser Temperature,0
Pixel Count,2048

Pixel,Wavelength,Wavenumber,Processed,Raw,Dark
0,793.27,132.25,NA,1378.00,1271.00
2,793.58,137.12,NA,1439.00,1357.00
4,793.89,141.99,NA,1431.00,1321.00
6,794.19,146.86,NA,1406.00,1332.00
8,794.50,151.72,NA,1480.00,1376.00
10,794.81,156.58,NA,1471.00,1374.00
12,795.12,161.44,NA,1416.00,1289.00
14,795.42,166.30,NA,1429.00,1311.00
16,795.73,171.16,NA,1435.00,1325.00
18,796.04,176.01,NA,1505.00,1366.00
20,796.35,180.86,NA,1522.00,1378.00
22,796.65,185.71,NA,1607.00,1478.00
24,796.96,190.56,NA,1514.00,1391.00
26,797.27,195.41,NA,1628.00,1439.00
28,797.58,200.25,NA,1581.00,1429.00
30,797.88,205.09,NA,1509.00,1349.00
32,798.19,209.93,NA,1533.00,1355.00
34,798.50,214.77,NA,1549.00,1361.00
36,798.81,219.60,NA,1577.00,1363.00
38,799.12,224.43,NA,1663.00,1391.00
40,799.43,229.27,NA,2228.00,1469.00
42,799.74,234.09,NA,4140.00,1420.00
44,800.04,238.92,NA,7132.00,1573.00
46,800.35,243.75,NA,8518.00,1484.00
48,800.66,248.57,146.17,9482.00,1514.00
50,800.97,253.39,1528.35,11229.00,1541.00
52,801.28,258.21,4236.40,13953.00,1547.00
54,801.59,263.02,5789.56,15291.00,1541.00
56,801.90,267.83,3582.79,13636.00,1503.00
58,802.21,272.65,1741.01,11658.00,1528.00
60,802.52,277.46,1603.34,11179.00,1514.00
62,802.83,282.26,1877.04,11348.00,1583.00
64,803.14,287.07,1736.95,11253.00,1587.00
66,803.45,291.87,1469.74,11067.00,1562.00
68,803.76,296.67,1479.94,11225.00,1588.00
70,804.07,301.47,2397.21,12140.00,1507.00
72,804.38,306.26,3184.53,12774.00,1490.00
74,804.69,311.06,2614.07,12184.00,1507.00
76,805.00,315.85,1154.67,10627.00,1492.00
78,805.31,320.64,73.55,9475.00,1543.00
80,805.62,325.42,0.00,9017.00,1558.00
82,805.93,330.21,0.00,8996.00,1543.00
84,806.24,334.99,66.02,9383.00,1410.00
86,806.55,339.77,786.19,10479.00,1505.00
88,806.86,344.55,2750.98,12829.00,1539.00
90,807.17,349.32,4612.17,14629.00,1452.00
92,807.48,354.10,3794.25,14198.00,1509.00
94,807.80,358.87,2576.72,13040.00,1560.00
96,808.11,363.63,2294.73,12620.00,1516.00
98,808.42,368.40,2457.02,13034.00,1458.00
100,808.73,373.16,3815.96,15045.00,1463.00
102,809.04,377.93,7204.33,18374.00,1448.00
104,809.35,382.68,7515.52,18543.00,1448.00
106,809.66,387.44,3683.42,14864.00,1514.00
108,809.98,392.19,1333.62,11654.00,1414.00
110,810.29,396.95,615.34,10382.00,1522.00
112,810.60,401.70,456.77,10002.00,1469.00
114,810.91,406.44,520.56,10215.00,1476.00
116,811.22,411.19,1151.17,11280.00,1520.00
118,811.54,415.93,2693.52,13093.00,1526.00
120,811.85,420.67,3769.19,14046.00,1458.00
122,812.16,425.41,2660.31,13017.00,1450.00
124,812.47,430.14,1146.72,11331.00,1478.00
126,812.79,434.87,496.59,10206.00,1429.00
128,813.10,439.60,435.30,9915.00,1389.00
130,813.41,444.33,322.78,9765.00,1440.00
132,813.72,449.06,30.51,9456.00,1435.00
134,814.04,453.78,3.78,9385.00,1465.00
136,814.35,458.50,18.16,9325.00,1389.00
138,814.66,463.22,98.80,9450.00,1395.00
140,814.98,467.93,294.81,9716.00,1420.00
142,815.29,472.65,472.70,10014.00,1444.00
144,815.60,477.36,802.91,10543.00,1490.00
146,815.92,482.06,1304.11,11009.00,1370.00
148,816.23,486.77,1459.45,11329.00,1499.00
150,816.54,491.47,1382.21,11326.00,1552.00
152,816.86,496.17,1193.45,10961.00,1416.00
154,817.17,500.87,1090.78,10969.00,1461.00
156,817.48,505.57,1471.10,11580.00,1423.00
158,817.80,510.26,2714.01,12896.00,1412.00
160,818.11,514.95,3321.32,13439.00,1511.00
162,818.42,519.64,1732.60,11823.00,1495.00
164,818.74,524.32,633.59,10232.00,1437.00
166,819.05,529.00,405.90,9828.00,1495.00
168,819.37,533.68,823.61,10452.00,1450.00
170,819.68,538.36,2035.23,12148.00,1486.00
172,819.99,543.04,3415.64,14021.00,1530.00
174,820.31,547.71,4158.27,15221.00,1446.00
176,820.62,552.38,5125.49,16053.00,1410.00
178,820.94,557.05,4301.72,14923.00,1454.00
180,821.25,561.71,1826.64,11855.00,1370.00
182,821.57,566.37,586.20,9845.00,1402.00
184,821.88,571.03,165.87,8943.00,1450.00
186,822.20,575.69,25.55,8632.00,1444.00
188,822.51,580.34,11.52,8523.00,1418.00
190,822.83,584.99,118.34,8863.00,1465.00
192,823.14,589.64,835.88,10232.00,1454.00
194,823.46,594.29,3036.26,12702.00,1437.00
196,823.77,598.93,4292.62,13718.00,1429.00
198,824.09,603.57,1813.73,11246.00,1347.00
200,824.40,608.21,215.43,9055.00,1439.00
202,824.72,612.85,0.86,8148.00,1488.00
204,825.03,617.48,0.00,7819.00,1461.00
206,825.35,622.11,0.00,7950.00,1495.00
208,825.66,626.74,5.55,8087.00,1461.00
210,825.98,631.36,322.19,8732.00,1395.00
212,826.29,635.99,1425.74,10122.00,1429.00
214,826.61,640.61,2489.44,11301.00,1456.00
216,826.92,645.22,2053.04,10822.00,1393.00
218,827.24,649.84,862.39,9368.00,1387.00
220,827.56,654.45,281.05,8468.00,1482.00
222,827.87,659.06,156.65,8121.00,1452.00
224,828.19,663.67,180.86,8151.00,1456.00
226,828.50,668.27,468.79,8903.00,1604.00
228,828.82,672.87,1294.13,10338.00,1503.00
230,829.13,677.47,3200.18,13023.00,1410.00
232,829.45,682.06,5402.13,15751.00,1484.00
234,829.77,686.66,5543.17,16032.00,1638.00
236,830.08,691.25,3454.64,13346.00,1437.00
238,830.40,695.83,1448.20,10416.00,1412.00
240,830.72,700.42,529.99,8677.00,1420.00
242,831.03,705.00,190.77,7850.00,1321.00
244,831.35,709.58,81.51,7650.00,1425.00
246,831.66,714.15,41.87,7445.00,1328.00
248,831.98,718.73,31.76,7502.00,1435.00
250,832.30,723.30,7.33,7381.00,1383.00
252,832.61,727.87,0.00,7324.00,1513.00
254,832.93,732.43,0.00,7141.00,1298.00
256,833.25,736.99,0.00,7318.00,1444.00
258,833.56,741.55,0.00,7305.00,1416.00
260,833.88,746.11,24.69,7455.00,1408.00
262,834.20,750.66,79.15,7578.00,1397.00
264,834.51,755.22,227.32,7861.00,1444.00
266,834.83,759.76,511.22,8377.00,1446.00
268,835.15,764.31,930.80,9161.00,1433.00
270,835.47,768.85,1526.92,10733.00,1363.00
272,835.78,773.39,3282.35,15384.00,1412.00
274,836.10,777.93,10467.28,27191.00,1418.00
276,836.42,782.46,24546.76,41264.00,1410.00
278,836.73,787.00,18697.40,36233.00,1376.00
280,837.05,791.52,5850.24,20672.00,1361.00
282,837.37,796.05,2564.12,13442.00,1446.00
284,837.69,800.57,2190.21,11305.00,1359.00
286,838.00,805.09,1538.80,10050.00,1399.00
288,838.32,809.61,865.12,9091.00,1404.00
290,838.64,814.13,355.25,8343.00,1465.00
292,838.95,818.64,217.29,7960.00,1410.00
294,839.27,823.15,108.96,7739.00,1376.00
296,839.59,827.65,68.22,7724.00,1435.00
298,839.91,832.15,81.63,7622.00,1387.00
300,840.22,836.65,163.73,7749.00,1516.00
302,840.54,841.15,97.55,7483.00,1351.00
304,840.86,845.65,0.25,7373.00,1459.00
306,841.18,850.14,0.00,7159.00,1425.00
308,841.50,854.63,0.00,7261.00,1581.00
310,841.81,859.11,0.00,7060.00,1382.00
312,842.13,863.60,0.20,7227.00,1410.00
314,842.45,868.07,115.08,7618.00,1357.00
316,842.77,872.55,662.37,8514.00,1433.00
318,843.08,877.03,1590.29,9839.00,1503.00
320,843.40,881.50,2388.26,10538.00,1328.00
322,843.72,885.97,1663.54,10004.00,1446.00
324,844.04,890.43,762.94,9006.00,1342.00
326,844.36,894.89,1080.45,10006.00,1372.00
328,844.67,899.35,3974.53,13964.00,1435.00
330,844.99,903.81,7184.71,16603.00,1317.00
332,845.31,908.26,3432.54,13355.00,1435.00
334,845.63,912.71,895.97,9513.00,1435.00
336,845.95,917.16,610.26,8626.00,1425.00
338,846.27,921.61,914.92,9980.00,2232.00
340,846.58,926.05,2090.79,11555.00,1399.00
342,846.90,930.49,5232.08,17103.00,1414.00
344,847.22,934.92,10061.63,24831.00,1401.00
346,847.54,939.36,16915.94,33277.00,1328.00
348,847.86,943.79,18897.49,34862.00,1357.00
350,848.18,948.21,9714.62,24506.00,1376.00
352,848.49,952.64,3395.52,14692.00,1393.00
354,848.81,957.06,1309.03,9932.00,1285.00
356,849.13,961.48,510.15,8178.00,1475.00
358,849.45,965.89,209.30,7458.00,1463.00
360,849.77,970.31,58.41,7092.00,1374.00
362,850.09,974.71,0.00,6868.00,1401.00
364,850.40,979.12,0.00,6841.00,1463.00
366,850.72,983.52,0.00,6929.00,1520.00
368,851.04,987.92,0.00,6767.00,1332.00
370,851.36,992.32,0.00,6724.00,1330.00
372,851.68,996.72,0.00,6747.00,1380.00
374,852.00,1001.11,0.00,6693.00,1334.00
376,852.32,1005.50,0.00,6769.00,1328.00
378,852.63,1009.88,0.00,6963.00,1469.00
380,852.95,1014.26,0.00,6940.00,1420.00
382,853.27,1018.64,0.00,7048.00,1437.00
384,853.59,1023.02,67.11,7219.00,1364.00
386,853.91,1027.39,249.15,7481.00,1328.00
388,854.23,1031.76,385.02,7855.00,1351.00
390,854.55,1036.13,626.64,8457.00,1368.00
392,854.87,1040.49,1167.13,9611.00,1347.00
394,855.18,1044.86,2400.71,11910.00,1423.00
396,855.50,1049.21,4715.52,15066.00,1380.00
398,855.82,1053.57,6280.04,16962.00,1429.00
400,856.14,1057.92,5181.61,15762.00,1372.00
402,856.46,1062.27,3120.20,13140.00,1391.00
404,856.78,1066.62,1757.78,11084.00,1308.00
406,857.10,1070.96,1267.54,10445.00,1317.00
408,857.42,1075.30,2061.50,12001.00,1440.00
410,857.74,1079.64,4821.73,15128.00,1344.00
412,858.06,1083.97,5957.73,15984.00,1327.00
414,858.37,1088.30,2566.46,12677.00,1325.00
416,858.69,1092.63,578.72,9495.00,1311.00
418,859.01,1096.95,197.84,8461.00,1289.00
420,859.33,1101.27,65.50,8170.00,1361.00
422,859.65,1105.59,31.98,8104.00,1351.00
424,859.97,1109.91,4.06,8074.00,1302.00
426,860.29,1114.22,0.00,7998.00,1321.00
428,860.61,1118.53,0.00,8000.00,1296.00
430,860.93,1122.84,0.00,8235.00,1344.00
432,861.25,1127.14,1.63,8554.00,1416.00
434,861.56,1131.44,151.07,9146.00,1340.00
436,861.88,1135.74,989.59,10496.00,1344.00
438,862.20,1140.03,2280.78,12246.00,1357.00
440,862.52,1144.32,3030.17,13178.00,1344.00
442,862.84,1148.61,2144.89,12381.00,1423.00
444,863.16,1152.89,884.56,10843.00,1327.00
446,863.48,1157.17,308.50,9978.00,1366.00
448,863.80,1161.45,318.65,9991.00,1364.00
450,864.12,1165.73,612.99,10354.00,1383.00
452,864.44,1170.00,1082.49,10756.00,1336.00
454,864.76,1174.27,193.28,10259.00,1366.00
456,865.07,1178.53,0.03,9602.00,1283.00
458,865.39,1182.80,0.00,9680.00,1378.00
460,865.71,1187.06,46.19,10367.00,1325.00
462,866.03,1191.31,846.10,11599.00,1366.00
464,866.35,1195.57,1704.97,12958.00,1330.00
466,866.67,1199.82,2716.40,14955.00,1391.00
468,866.99,1204.06,4186.29,17063.00,1361.00
470,867.31,1208.31,5121.67,18403.00,1406.00
472,867.63,1212.55,4764.74,18204.00,1368.00
474,867.95,1216.79,3798.03,17047.00,1266.00
476,868.27,1221.02,3179.28,16159.00,1370.00
478,868.58,1225.25,2905.34,15430.00,1281.00
480,868.90,1229.48,1947.03,14247.00,1408.00
482,869.22,1233.71,926.69,12897.00,1397.00
484,869.54,1237.93,221.53,11963.00,1437.00
486,869.86,1242.15,10.71,11529.00,1364.00
488,870.18,1246.36,0.00,11373.00,1273.00
490,870.50,1250.58,0.00,11496.00,1364.00
492,870.82,1254.79,0.00,11669.00,1480.00
494,871.14,1258.99,0.03,11912.00,1395.00
496,871.46,1263.20,5.28,12102.00,1399.00
498,871.78,1267.40,89.27,12370.00,1323.00
500,872.10,1271.59,299.41,12789.00,1336.00
502,872.41,1275.79,569.38,13275.00,1313.00
504,872.73,1279.98,909.08,13953.00,1382.00
506,873.05,1284.17,1261.75,14570.00,1397.00
508,873.37,1288.35,1527.91,14912.00,1243.00
510,873.69,1292.53,1704.43,15358.00,1308.00
512,874.01,1296.71,1587.00,15377.00,1342.00
514,874.33,1300.88,1756.87,15626.00,1266.00
516,874.65,1305.06,1796.15,15880.00,1347.00
518,874.97,1309.22,1933.30,16150.00,1294.00
520,875.29,1313.39,2213.86,16645.00,1361.00
522,875.60,1317.55,2330.18,16880.00,1376.00
524,875.92,1321.71,2316.18,16983.00,1355.00
526,876.24,1325.87,2049.72,16846.00,1429.00
528,876.56,1330.02,2287.10,17194.00,1338.00
530,876.88,1334.17,2415.93,17592.00,1412.00
532,877.20,1338.32,2925.13,18268.00,1281.00
534,877.52,1342.46,3581.07,19140.00,1270.00
536,877.84,1346.60,3744.42,19591.00,1397.00
538,878.16,1350.73,3560.51,19426.00,1338.00
540,878.47,1354.87,3131.32,18972.00,1334.00
542,878.79,1359.00,2964.93,18798.00,1351.00
544,879.11,1363.13,2949.17,18739.00,1357.00
546,879.43,1367.25,2730.33,18443.00,1319.00
548,879.75,1371.37,2511.36,18352.00,1332.00
550,880.07,1375.49,2545.26,18783.00,1309.00
552,880.39,1379.60,3260.98,20506.00,1355.00
554,880.71,1383.71,5859.69,24453.00,1344.00
556,881.03,1387.82,10811.35,29697.00,1317.00
558,881.34,1391.93,11616.82,30426.00,1281.00
560,881.66,1396.03,6755.28,25714.00,1308.00
562,881.98,1400.13,3722.29,21666.00,1376.00
564,882.30,1404.22,2796.57,19848.00,1372.00
566,882.62,1408.31,2783.21,19504.00,1315.00
568,882.94,1412.40,3247.11,20047.00,1385.00
570,883.26,1416.49,3615.57,20529.00,1330.00
572,883.57,1420.57,3411.88,20751.00,1389.00
574,883.89,1424.65,3703.69,21477.00,1313.00
576,884.21,1428.73,5272.37,23441.00,1416.00
578,884.53,1432.80,7029.56,25122.00,1458.00
580,884.85,1436.87,5656.98,23679.00,1309.00
582,885.17,1440.93,3425.28,21167.00,1277.00
584,885.49,1445.00,2420.77,19696.00,1306.00
586,885.80,1449.06,2086.85,19031.00,1292.00
588,886.12,1453.11,2198.42,19274.00,1433.00
590,886.44,1457.17,2381.51,19483.00,1366.00
592,886.76,1461.22,2628.20,19819.00,1357.00
594,887.08,1465.26,2894.75,20161.00,1382.00
596,887.40,1469.31,2470.34,19589.00,1298.00
598,887.71,1473.35,2015.60,19062.00,1279.00
600,888.03,1477.38,1431.31,18350.00,1342.00
602,888.35,1481.42,1018.95,17890.00,1408.00
604,888.67,1485.45,766.50,17494.00,1357.00
606,888.99,1489.48,537.60,17099.00,1289.00
608,889.31,1493.50,376.53,17025.00,1372.00
610,889.62,1497.52,284.06,16860.00,1347.00
612,889.94,1501.54,194.28,16662.00,1271.00
614,890.26,1505.56,54.90,16586.00,1340.00
616,890.58,1509.57,24.17,16465.00,1325.00
618,890.90,1513.57,63.29,16421.00,1315.00
620,891.21,1517.58,60.33,16368.00,1332.00
622,891.53,1521.58,94.14,16383.00,1327.00
624,891.85,1525.58,117.19,16341.00,1344.00
626,892.17,1529.57,300.30,16497.00,1368.00
628,892.49,1533.57,151.27,16275.00,1361.00
630,892.80,1537.56,255.53,16260.00,1292.00
632,893.12,1541.54,175.06,16104.00,1287.00
634,893.44,1545.52,0.00,15823.00,1401.00
636,893.76,1549.50,0.00,15698.00,1287.00
638,894.07,1553.48,19.06,15770.00,1357.00
640,894.39,1557.45,0.00,15620.00,1298.00
642,894.71,1561.42,0.00,15629.00,1389.00
644,895.03,1565.39,0.00,15510.00,1258.00
646,895.34,1569.35,0.00,15629.00,1397.00
648,895.66,1573.31,7.57,15553.00,1296.00
650,895.98,1577.26,0.00,15536.00,1311.00
652,896.30,1581.22,10.01,15523.00,1283.00
654,896.61,1585.17,19.55,15555.00,1302.00
656,896.93,1589.11,45.47,15665.00,1391.00
658,897.25,1593.06,89.56,15605.00,1285.00
660,897.57,1597.00,132.46,15681.00,1334.00
662,897.88,1600.93,204.63,15749.00,1334.00
664,898.20,1604.87,503.97,16079.00,1355.00
666,898.52,1608.80,736.12,16237.00,1311.00
668,898.84,1612.72,1062.11,16630.00,1285.00
670,899.15,1616.65,1439.73,17131.00,1374.00
672,899.47,1620.57,1908.82,17562.00,1283.00
674,899.79,1624.49,2349.27,18071.00,1327.00
676,900.10,1628.40,2715.78,18411.00,1294.00
678,900.42,1632.31,2872.21,18621.00,1387.00
680,900.74,1636.22,2918.19,18424.00,1245.00
682,901.05,1640.12,2685.32,18234.00,1469.00
684,901.37,1644.02,2318.21,17530.00,1311.00
686,901.69,1647.92,1903.21,16996.00,1376.00
688,902.00,1651.82,1704.85,16573.00,1317.00
690,902.32,1655.71,1759.92,16423.00,1275.00
692,902.64,1659.60,1740.46,16292.00,1289.00
694,902.95,1663.48,1727.81,16282.00,1347.00
696,903.27,1667.36,1839.13,16349.00,1317.00
698,903.59,1671.24,2191.23,16892.00,1402.00
700,903.90,1675.11,2958.46,17837.00,1338.00
702,904.22,1678.99,3897.73,19111.00,1256.00
704,904.54,1682.85,5613.11,21778.00,1452.00
706,904.85,1686.72,8513.22,25061.00,1289.00
708,905.17,1690.58,12313.94,28563.00,1327.00
710,905.49,1694.44,13304.33,29118.00,1289.00
712,905.80,1698.29,9302.72,25404.00,1309.00
714,906.12,1702.15,5199.16,20848.00,1351.00
716,906.43,1706.00,3257.67,17915.00,1353.00
718,906.75,1709.84,2783.89,16719.00,1406.00
720,907.07,1713.68,2711.42,16091.00,1300.00
722,907.38,1717.52,2170.25,15483.00,1334.00
724,907.70,1721.36,1837.82,15233.00,1317.00
726,908.01,1725.19,2277.71,16081.00,1359.00
728,908.33,1729.02,4113.40,18517.00,1372.00
730,908.65,1732.85,7971.70,22150.00,1319.00
732,908.96,1736.67,10954.01,24402.00,1363.00
734,909.28,1740.49,8473.89,22302.00,1308.00
736,909.59,1744.30,4362.11,18323.00,1382.00
738,909.91,1748.12,2250.08,15303.00,1336.00
740,910.22,1751.93,1479.93,13818.00,1338.00
742,910.54,1755.73,871.32,12915.00,1513.00
744,910.85,1759.54,475.38,12150.00,1374.00
746,911.17,1763.34,201.20,11643.00,1302.00
748,911.49,1767.13,24.26,11288.00,1353.00
750,911.80,1770.93,0.00,10952.00,1294.00
752,912.12,1774.72,0.00,10900.00,1378.00
754,912.43,1778.50,0.00,10617.00,1279.00
756,912.75,1782.29,0.00,10549.00,1290.00
758,913.06,1786.07,0.08,10458.00,1304.00
760,913.38,1789.84,0.00,10297.00,1327.00
762,913.69,1793.62,0.00,10245.00,1353.00
764,914.01,1797.39,31.26,10198.00,1325.00
766,914.32,1801.15,44.30,10097.00,1302.00
768,914.64,1804.92,0.00,9919.00,1290.00
770,914.95,1808.68,100.23,9999.00,1351.00
772,915.26,1812.44,70.38,9925.00,1363.00
774,915.58,1816.19,0.00,9613.00,1277.00
776,915.89,1819.94,60.04,9714.00,1349.00
778,916.21,1823.69,58.90,9607.00,1345.00
780,916.52,1827.43,129.48,9668.00,1414.00
782,916.84,1831.17,140.35,9478.00,1289.00
784,917.15,1834.91,155.81,9410.00,1281.00
786,917.47,1838.64,268.56,9503.00,1355.00
788,917.78,1842.38,271.08,9397.00,1319.00
790,918.09,1846.10,307.86,9317.00,1281.00
792,918.41,1849.83,337.78,9327.00,1332.00
794,918.72,1853.55,229.31,9061.00,1260.00
796,919.04,1857.27,353.49,9169.00,1321.00
798,919.35,1860.98,418.01,9137.00,1311.00
800,919.66,1864.69,387.45,9030.00,1330.00
802,919.98,1868.40,522.04,9121.00,1353.00
804,920.29,1872.11,433.66,8918.00,1321.00
806,920.60,1875.81,481.11,8897.00,1330.00
808,920.92,1879.51,478.26,8789.00,1296.00
810,921.23,1883.20,505.94,8784.00,1347.00
812,921.55,1886.90,567.81,8679.00,1285.00
814,921.86,1890.58,547.84,8687.00,1395.00
816,922.17,1894.27,541.52,8599.00,1387.00
818,922.49,1897.95,417.58,8345.00,1351.00
820,922.80,1901.63,438.63,8254.00,1319.00
822,923.11,1905.31,435.86,8165.00,1330.00
824,923.42,1908.98,405.44,8081.00,1351.00
826,923.74,1912.65,338.88,7954.00,1378.00
828,924.05,1916.31,436.42,7895.00,1302.00
830,924.36,1919.98,477.92,7838.00,1273.00
832,924.68,1923.64,539.15,7842.00,1290.00
834,924.99,1927.29,471.35,7694.00,1302.00
836,925.30,1930.94,530.75,7641.00,1266.00
838,925.61,1934.59,513.47,7574.00,1302.00
840,925.93,1938.24,485.39,7489.00,1323.00
842,926.24,1941.88,434.15,7345.00,1319.00
844,926.55,1945.52,488.89,7290.00,1277.00
846,926.86,1949.16,360.13,7124.00,1327.00
848,927.18,1952.79,438.86,7075.00,1287.00
850,927.49,1956.42,324.24,6893.00,1300.00
852,927.80,1960.05,333.27,7098.00,1556.00
854,928.11,1963.67,294.36,6722.00,1317.00
856,928.42,1967.29,350.94,6750.00,1376.00
858,928.74,1970.91,342.25,6606.00,1309.00
860,929.05,1974.52,264.53,6437.00,1294.00
862,929.36,1978.13,302.29,6382.00,1283.00
864,929.67,1981.74,253.01,6316.00,1332.00
866,929.98,1985.35,222.49,6194.00,1317.00
868,930.29,1988.95,303.21,6185.00,1327.00
870,930.61,1992.54,180.97,5957.00,1290.00
872,930.92,1996.14,203.61,5926.00,1300.00
874,931.23,1999.73,75.25,5786.00,1357.00
876,931.54,2003.32,63.47,5666.00,1332.00
878,931.85,2006.90,193.64,5668.00,1302.00
880,932.16,2010.48,108.85,5501.00,1277.00
882,932.47,2014.06,92.14,5450.00,1309.00
884,932.78,2017.63,93.24,5418.00,1340.00
886,933.09,2021.21,65.24,5281.00,1306.00
888,933.41,2024.77,104.52,5289.00,1357.00
890,933.72,2028.34,69.00,5243.00,1420.00
892,934.03,2031.90,24.69,5085.00,1361.00
894,934.34,2035.46,0.00,4987.00,1374.00
896,934.65,2039.01,0.00,4831.00,1298.00
898,934.96,2042.57,21.95,4846.00,1345.00
900,935.27,2046.11,0.00,4795.00,1410.00
902,935.58,2049.66,51.78,4626.00,1228.00
904,935.89,2053.20,0.15,4611.00,1325.00
906,936.20,2056.74,3.25,4558.00,1327.00
908,936.51,2060.28,53.18,4506.00,1294.00
910,936.82,2063.81,2.49,4476.00,1368.00
912,937.13,2067.34,13.62,4389.00,1327.00
914,937.44,2070.86,8.09,4332.00,1336.00
916,937.75,2074.39,0.00,4216.00,1287.00
918,938.06,2077.91,0.00,4170.00,1304.00
920,938.37,2081.42,93.53,4235.00,1323.00
922,938.68,2084.94,0.00,4043.00,1302.00
924,938.99,2088.45,30.78,4074.00,1296.00
926,939.30,2091.95,0.00,3986.00,1344.00
928,939.60,2095.46,9.06,3969.00,1304.00
930,939.91,2098.96,0.00,3986.00,1383.00
932,940.22,2102.45,26.52,3943.00,1328.00
934,940.53,2105.95,77.16,3888.00,1271.00
936,940.84,2109.44,55.53,3840.00,1289.00
938,941.15,2112.92,36.03,3844.00,1334.00
940,941.46,2116.41,0.00,3720.00,1294.00
942,941.77,2119.89,0.00,3753.00,1355.00
944,942.07,2123.37,6.42,3684.00,1298.00
946,942.38,2126.84,0.00,3665.00,1349.00
948,942.69,2130.31,90.49,3715.00,1336.00
950,943.00,2133.78,12.33,3608.00,1308.00
952,943.31,2137.24,22.76,3618.00,1334.00
954,943.62,2140.70,8.37,3569.00,1336.00
956,943.92,2144.16,20.41,3525.00,1300.00
958,944.23,2147.62,0.00,3472.00,1340.00
960,944.54,2151.07,57.96,3582.00,1376.00
962,944.85,2154.52,41.62,3576.00,1408.00
964,945.16,2157.96,70.51,3538.00,1361.00
966,945.46,2161.40,90.07,3508.00,1359.00
968,945.77,2164.84,88.13,3360.00,1215.00
970,946.08,2168.28,0.00,3356.00,1319.00
972,946.39,2171.71,23.39,3354.00,1294.00
974,946.69,2175.14,0.00,3297.00,1315.00
976,947.00,2178.57,16.65,3312.00,1313.00
978,947.31,2181.99,34.70,3242.00,1260.00
980,947.61,2185.41,0.00,3242.00,1302.00
982,947.92,2188.82,0.00,3250.00,1340.00
984,948.23,2192.24,2.30,3164.00,1254.00
986,948.53,2195.65,30.43,3215.00,1302.00
988,948.84,2199.05,43.40,3117.00,1196.00
990,949.15,2202.46,10.23,3185.00,1311.00
992,949.45,2205.86,65.45,3215.00,1309.00
994,949.76,2209.25,55.06,3124.00,1247.00
996,950.07,2212.65,48.86,3153.00,1292.00
998,950.37,2216.04,32.07,3075.00,1233.00
1000,950.68,2219.43,34.35,3111.00,1281.00
1002,950.98,2222.81,96.36,3174.00,1323.00
1004,951.29,2226.19,119.42,3115.00,1270.00
1006,951.60,2229.57,34.86,3033.00,1237.00
1008,951.90,2232.94,0.00,2990.00,1254.00
1010,952.21,2236.32,4.39,3014.00,1268.00
1012,952.51,2239.68,42.48,3065.00,1313.00
1014,952.82,2243.05,48.74,2952.00,1209.00
1016,953.12,2246.41,0.00,3083.00,1393.00
1018,953.43,2249.77,3.81,3145.00,1446.00
1020,953.73,2253.12,37.44,3054.00,1347.00
1022,954.04,2256.48,0.00,2879.00,1235.00
1024,954.34,2259.83,0.48,3022.00,1357.00
1026,954.65,2263.17,17.32,2942.00,1260.00
1028,954.95,2266.51,107.06,3018.00,1292.00
1030,955.26,2269.85,29.54,3050.00,1374.00
1032,955.56,2273.19,10.82,2990.00,1334.00
1034,955.87,2276.52,16.65,3005.00,1351.00
1036,956.17,2279.85,19.57,3026.00,1374.00
1038,956.48,2283.18,62.59,2929.00,1245.00
1040,956.78,2286.50,144.38,2974.00,1241.00
1042,957.08,2289.82,36.80,2883.00,1237.00
1044,957.39,2293.14,144.91,3029.00,1304.00
1046,957.69,2296.45,20.91,2879.00,1251.00
1048,957.99,2299.76,51.94,3039.00,1376.00
1050,958.30,2303.07,0.00,2942.00,1349.00
1052,958.60,2306.38,38.39,2936.00,1300.00
1054,958.91,2309.68,37.71,2921.00,1306.00
1056,959.21,2312.98,40.27,2868.00,1245.00
1058,959.51,2316.27,15.10,2891.00,1283.00
1060,959.82,2319.56,25.32,2976.00,1357.00
1062,960.12,2322.85,124.80,2976.00,1270.00
1064,960.42,2326.14,252.49,3007.00,1258.00
1066,960.72,2329.42,525.83,3177.00,1302.00
1068,961.03,2332.70,170.33,3054.00,1328.00
1070,961.33,2335.97,50.20,2934.00,1294.00
1072,961.63,2339.25,54.49,2898.00,1268.00
1074,961.93,2342.52,0.00,2838.00,1287.00
1076,962.24,2345.78,20.56,2864.00,1294.00
1078,962.54,2349.05,51.76,2868.00,1279.00
1080,962.84,2352.31,73.02,2883.00,1289.00
1082,963.14,2355.56,0.45,2819.00,1273.00
1084,963.45,2358.82,14.66,2838.00,1279.00
1086,963.75,2362.07,42.07,2912.00,1338.00
1088,964.05,2365.32,52.01,2980.00,1406.00
1090,964.35,2368.56,94.50,2921.00,1311.00
1092,964.65,2371.80,48.24,2910.00,1332.00
1094,964.95,2375.04,49.15,2876.00,1306.00
1096,965.25,2378.27,114.42,2883.00,1283.00
1098,965.56,2381.51,13.20,2881.00,1340.00
1100,965.86,2384.73,15.62,2868.00,1323.00
1102,966.16,2387.96,115.52,2891.00,1281.00
1104,966.46,2391.18,135.82,2965.00,1364.00
1106,966.76,2394.40,109.15,2878.00,1285.00
1108,967.06,2397.62,53.55,2919.00,1359.00
1110,967.36,2400.83,72.92,2822.00,1258.00
1112,967.66,2404.04,57.86,2921.00,1368.00
1114,967.96,2407.25,0.00,2756.00,1251.00
1116,968.26,2410.45,6.67,2803.00,1289.00
1118,968.56,2413.65,41.98,2807.00,1270.00
1120,968.86,2416.85,19.83,2917.00,1401.00
1122,969.16,2420.04,0.00,2798.00,1300.00
1124,969.46,2423.23,44.77,2786.00,1262.00
1126,969.76,2426.42,105.61,2866.00,1306.00
1128,970.06,2429.60,16.30,2735.00,1232.00
1130,970.36,2432.79,124.36,2849.00,1273.00
1132,970.66,2435.96,150.14,2828.00,1262.00
1134,970.96,2439.14,100.22,2821.00,1283.00
1136,971.26,2442.31,161.07,2897.00,1328.00
1138,971.56,2445.48,215.08,2887.00,1298.00
1140,971.86,2448.65,189.34,2847.00,1273.00
1142,972.16,2451.81,214.58,2898.00,1317.00
1144,972.45,2454.97,257.96,2885.00,1292.00
1146,972.75,2458.13,267.67,2897.00,1300.00
1148,973.05,2461.28,224.47,2855.00,1290.00
1150,973.35,2464.43,316.49,2934.00,1319.00
1152,973.65,2467.58,277.82,2893.00,1306.00
1154,973.95,2470.72,383.27,2933.00,1285.00
1156,974.24,2473.86,467.53,2953.00,1277.00
1158,974.54,2477.00,518.26,2948.00,1260.00
1160,974.84,2480.13,552.27,3012.00,1306.00
1162,975.14,2483.27,488.73,2969.00,1298.00
1164,975.43,2486.40,519.60,2925.00,1232.00
1166,975.73,2489.52,488.56,2959.00,1296.00
1168,976.03,2492.64,596.23,2967.00,1270.00
1170,976.33,2495.76,596.97,3010.00,1325.00
1172,976.62,2498.88,548.18,2944.00,1270.00
1174,976.92,2501.99,554.43,3035.00,1363.00
1176,977.22,2505.10,644.55,3014.00,1321.00
1178,977.51,2508.21,747.78,3037.00,1300.00
1180,977.81,2511.31,529.91,2927.00,1313.00
1182,978.11,2514.41,598.45,2950.00,1302.00
1184,978.40,2517.51,508.86,2902.00,1311.00
1186,978.70,2520.61,540.35,2917.00,1308.00
1188,979.00,2523.70,536.47,2955.00,1366.00
1190,979.29,2526.79,655.67,2916.00,1283.00
1192,979.59,2529.87,721.05,2957.00,1298.00
1194,979.88,2532.95,608.62,2855.00,1254.00
1196,980.18,2536.03,692.36,2967.00,1323.00
1198,980.48,2539.11,747.87,3029.00,1372.00
1200,980.77,2542.18,719.56,2923.00,1289.00
1202,981.07,2545.25,658.09,2972.00,1380.00
1204,981.36,2548.32,717.88,2900.00,1290.00
1206,981.66,2551.38,629.70,2934.00,1376.00
1208,981.95,2554.44,621.21,2889.00,1340.00
1210,982.25,2557.50,623.84,2931.00,1397.00
1212,982.54,2560.56,663.81,2936.00,1391.00
1214,982.84,2563.61,598.28,2917.00,1406.00
1216,983.13,2566.66,574.63,2881.00,1389.00
1218,983.43,2569.70,604.35,2845.00,1359.00
1220,983.72,2572.74,662.32,2859.00,1359.00
1222,984.01,2575.78,535.17,2796.00,1361.00
1224,984.31,2578.82,590.41,2731.00,1271.00
1226,984.60,2581.85,580.51,2790.00,1345.00
1228,984.90,2584.88,484.76,2655.00,1266.00
1230,985.19,2587.91,502.14,2693.00,1308.00
1232,985.48,2590.93,536.60,2731.00,1342.00
1234,985.78,2593.96,490.73,2705.00,1347.00
1236,986.07,2596.97,477.89,2697.00,1349.00
1238,986.36,2599.99,267.90,2673.00,1435.00
1240,986.66,2603.00,411.02,2709.00,1404.00
1242,986.95,2606.01,416.84,2699.00,1402.00
1244,987.24,2609.01,393.28,2640.00,1364.00
1246,987.54,2612.02,482.10,2515.00,1211.00
1248,987.83,2615.02,504.87,2684.00,1378.00
1250,988.12,2618.01,443.77,2655.00,1378.00
1252,988.41,2621.01,430.09,2617.00,1351.00
1254,988.71,2624.00,467.56,2570.00,1296.00
1256,989.00,2626.99,452.03,2617.00,1363.00
1258,989.29,2629.97,507.41,2606.00,1334.00
1260,989.58,2632.95,476.45,2621.00,1372.00
1262,989.87,2635.93,521.39,2612.00,1355.00
1264,990.16,2638.91,467.18,2534.00,1304.00
1266,990.46,2641.88,368.97,2555.00,1376.00
1268,990.75,2644.85,355.14,2602.00,1440.00
1270,991.04,2647.81,300.32,2462.00,1327.00
1272,991.33,2650.78,252.66,2450.00,1344.00
1274,991.62,2653.74,222.27,2430.00,1353.00
1276,991.91,2656.70,187.92,2380.00,1327.00
1278,992.20,2659.65,152.02,2388.00,1349.00
1280,992.49,2662.60,130.27,2348.00,1308.00
1282,992.78,2665.55,86.61,2435.00,1431.00
1284,993.07,2668.50,218.78,2448.00,1416.00
1286,993.36,2671.44,122.78,2371.00,1385.00
1288,993.65,2674.38,48.72,2386.00,1425.00
1290,993.94,2677.31,29.22,2329.00,1383.00
1292,994.23,2680.25,58.04,2295.00,1347.00
1294,994.52,2683.18,52.75,2295.00,1353.00
1296,994.81,2686.10,6.94,2272.00,1357.00
1298,995.10,2689.03,89.62,2316.00,1368.00
1300,995.39,2691.95,78.99,2257.00,1332.00
1302,995.68,2694.87,181.61,2350.00,1399.00
1304,995.97,2697.78,126.62,2346.00,1408.00
1306,996.26,2700.70,42.50,2207.00,1294.00
1308,996.55,2703.61,0.00,2234.00,1370.00
1310,996.84,2706.51,133.74,2327.00,1402.00
1312,997.13,2709.42,46.12,2262.00,1378.00
1314,997.41,2712.32,35.39,2295.00,1414.00
1316,997.70,2715.21,123.48,2268.00,1353.00
1318,997.99,2718.11,55.77,2228.00,1347.00
1320,998.28,2721.00,110.04,2219.00,1315.00
1322,998.57,2723.89,95.18,2321.00,1429.00
1324,998.86,2726.77,194.22,2200.00,1283.00
1326,999.14,2729.66,136.84,2223.00,1330.00
1328,999.43,2732.54,165.22,2228.00,1319.00
1330,999.72,2735.41,117.24,2249.00,1359.00
1332,1000.01,2738.29,197.13,2321.00,1406.00
1334,1000.29,2741.16,220.98,2255.00,1344.00
1336,1000.58,2744.03,208.52,2188.00,1285.00
1338,1000.87,2746.89,94.94,2272.00,1408.00
1340,1001.15,2749.75,145.41,2226.00,1340.00
1342,1001.44,2752.61,115.63,2226.00,1361.00
1344,1001.73,2755.47,243.71,2211.00,1311.00
1346,1002.01,2758.32,92.00,2187.00,1342.00
1348,1002.30,2761.17,181.67,2289.00,1410.00
1350,1002.59,2764.02,183.22,2297.00,1421.00
1352,1002.87,2766.86,225.97,2240.00,1361.00
1354,1003.16,2769.70,204.77,2188.00,1323.00
1356,1003.44,2772.54,194.50,2158.00,1294.00
1358,1003.73,2775.38,147.03,2192.00,1342.00
1360,1004.01,2778.21,59.44,2103.00,1289.00
1362,1004.30,2781.04,108.77,2160.00,1334.00
1364,1004.58,2783.87,131.38,2133.00,1311.00
1366,1004.87,2786.69,76.73,2061.00,1260.00
1368,1005.15,2789.51,58.51,2200.00,1397.00
1370,1005.44,2792.33,4.43,2169.00,1389.00
1372,1005.72,2795.14,0.00,2150.00,1395.00
1374,1006.01,2797.95,0.74,2169.00,1401.00
1376,1006.29,2800.76,83.94,2109.00,1321.00
1378,1006.58,2803.57,42.49,2240.00,1458.00
1380,1006.86,2806.37,0.00,2071.00,1319.00
1382,1007.14,2809.17,0.00,2107.00,1344.00
1384,1007.43,2811.97,0.72,2093.00,1317.00
1386,1007.71,2814.77,0.00,2048.00,1308.00
1388,1008.00,2817.56,163.71,2122.00,1300.00
1390,1008.28,2820.35,16.04,2179.00,1391.00
1392,1008.56,2823.13,3.80,2101.00,1308.00
1394,1008.85,2825.91,0.00,2168.00,1374.00
1396,1009.13,2828.69,2.82,2168.00,1357.00
1398,1009.41,2831.47,0.00,2202.00,1391.00
1400,1009.69,2834.24,7.17,2093.00,1268.00
1402,1009.98,2837.02,235.07,2211.00,1319.00
1404,1010.26,2839.78,18.06,2238.00,1389.00
1406,1010.54,2842.55,0.00,2135.00,1302.00
1408,1010.82,2845.31,61.54,2276.00,1376.00
1410,1011.11,2848.07,224.28,2316.00,1383.00
1412,1011.39,2850.83,191.87,2321.00,1391.00
1414,1011.67,2853.58,98.78,2291.00,1366.00
1416,1011.95,2856.33,181.74,2338.00,1372.00
1418,1012.23,2859.08,181.91,2319.00,1349.00
1420,1012.51,2861.83,211.89,2291.00,1313.00
1422,1012.80,2864.57,240.15,2456.00,1461.00
1424,1013.08,2867.31,123.80,2405.00,1412.00
1426,1013.36,2870.04,0.00,2378.00,1431.00
1428,1013.64,2872.78,226.04,2388.00,1357.00
1430,1013.92,2875.51,217.28,2469.00,1442.00
1432,1014.20,2878.24,30.70,2367.00,1364.00
1434,1014.48,2880.96,0.00,2319.00,1342.00
1436,1014.76,2883.68,13.38,2323.00,1304.00
1438,1015.04,2886.40,0.00,2325.00,1302.00
1440,1015.32,2889.12,6.10,2439.00,1397.00
1442,1015.60,2891.83,0.00,2355.00,1321.00
1444,1015.88,2894.54,0.00,2447.00,1399.00
1446,1016.16,2897.25,0.00,2367.00,1296.00
1448,1016.44,2899.96,18.54,2511.00,1370.00
1450,1016.72,2902.66,5.88,2511.00,1364.00
1452,1017.00,2905.36,43.69,2640.00,1446.00
1454,1017.28,2908.06,315.91,2652.00,1330.00
1456,1017.55,2910.75,966.90,2862.00,1399.00
1458,1017.83,2913.44,1773.26,2952.00,1302.00
1460,1018.11,2916.13,2436.76,3255.00,1366.00
1462,1018.39,2918.81,3782.26,3774.00,1397.00
1464,1018.67,2921.49,6397.49,4474.00,1349.00
1466,1018.95,2924.17,12415.98,5702.00,1351.00
1468,1019.22,2926.85,22449.52,7155.00,1370.00
1470,1019.50,2929.52,29130.17,7831.00,1294.00
1472,1019.78,2932.20,22819.41,7092.00,1313.00
1474,1020.06,2934.86,12139.68,5556.00,1334.00
1476,1020.33,2937.53,6378.00,4468.00,1429.00
1478,1020.61,2940.19,4600.76,3853.00,1363.00
1480,1020.89,2942.85,4631.93,3768.00,1397.00
1482,1021.17,2945.51,5057.36,3768.00,1347.00
1484,1021.44,2948.16,6003.38,4043.00,1351.00
1486,1021.72,2950.81,8403.54,4643.00,1353.00
1488,1022.00,2953.46,13924.64,5712.00,1416.00
1490,1022.27,2956.11,23006.31,6847.00,1359.00
1492,1022.55,2958.75,29147.65,7548.00,1439.00
1494,1022.82,2961.39,24235.85,6895.00,1344.00
1496,1023.10,2964.03,13893.69,5644.00,1435.00
1498,1023.38,2966.66,7778.27,4579.00,1353.00
1500,1023.65,2969.29,5733.89,4203.00,1402.00
1502,1023.93,2971.92,6602.97,4320.00,1429.00
1504,1024.20,2974.55,11481.83,4994.00,1416.00
1506,1024.48,2977.17,20817.03,6052.00,1393.00
1508,1024.75,2979.79,24811.18,6397.00,1327.00
1510,1025.03,2982.41,18036.32,5773.00,1342.00
1512,1025.30,2985.02,11250.69,4930.00,1321.00
1514,1025.58,2987.63,9799.76,4692.00,1370.00
1516,1025.85,2990.24,12849.19,4861.00,1311.00
1518,1026.13,2992.85,17053.08,5205.00,1401.00
1520,1026.40,2995.45,16080.55,4934.00,1366.00
1522,1026.68,2998.05,10151.76,4199.00,1336.00
1524,1026.95,3000.65,5147.87,3536.00,1420.00
1526,1027.22,3003.25,2788.19,2993.00,1366.00
1528,1027.50,3005.84,1954.46,2718.00,1327.00
1530,1027.77,3008.43,1098.82,2549.00,1397.00
1532,1028.04,3011.02,798.70,2488.00,1412.00
1534,1028.32,3013.60,315.25,2359.00,1372.00
1536,1028.59,3016.18,53.32,2312.00,1402.00
1538,1028.86,3018.76,13.58,2145.00,1273.00
1540,1029.14,3021.34,0.00,2162.00,1359.00
1542,1029.41,3023.91,0.00,2122.00,1328.00
1544,1029.68,3026.48,6.03,2086.00,1300.00
1546,1029.95,3029.05,69.75,2139.00,1359.00
1548,1030.22,3031.61,0.00,2065.00,1336.00
1550,1030.50,3034.17,0.00,2057.00,1338.00
1552,1030.77,3036.73,0.00,2037.00,1336.00
1554,1031.04,3039.29,0.00,2097.00,1410.00
1556,1031.31,3041.84,318.08,2008.00,1271.00
1558,1031.58,3044.39,0.00,2128.00,1452.00
1560,1031.85,3046.94,178.10,2126.00,1425.00
1562,1032.13,3049.49,0.00,1995.00,1344.00
1564,1032.40,3052.03,26.55,2071.00,1410.00
1566,1032.67,3054.57,115.25,2000.00,1332.00
1568,1032.94,3057.11,0.00,2082.00,1454.00
1570,1033.21,3059.64,0.00,1917.00,1308.00
1572,1033.48,3062.18,78.58,2071.00,1414.00
1574,1033.75,3064.70,0.00,2042.00,1406.00
1576,1034.02,3067.23,0.00,2057.00,1427.00
1578,1034.29,3069.75,395.46,1980.00,1290.00
1580,1034.56,3072.28,130.48,2038.00,1383.00
1582,1034.83,3074.79,144.04,1959.00,1296.00
1584,1035.10,3077.31,154.53,2052.00,1391.00
1586,1035.37,3079.82,327.84,1989.00,1311.00
1588,1035.64,3082.33,248.33,2143.00,1471.00
1590,1035.91,3084.84,0.00,2021.00,1410.00
1592,1036.17,3087.34,154.33,2000.00,1342.00
1594,1036.44,3089.85,287.61,2114.00,1440.00
1596,1036.71,3092.35,93.35,1991.00,1336.00
1598,1036.98,3094.84,30.72,1961.00,1313.00
1600,1037.25,3097.34,0.00,1959.00,1315.00
1602,1037.52,3099.83,66.05,2012.00,1357.00
1604,1037.78,3102.32,113.73,2033.00,1370.00
1606,1038.05,3104.80,148.50,2082.00,1412.00
1608,1038.32,3107.29,75.45,2025.00,1361.00
1610,1038.59,3109.77,251.34,2057.00,1370.00
1612,1038.85,3112.24,140.24,2025.00,1344.00
1614,1039.12,3114.72,85.33,2099.00,1416.00
1616,1039.39,3117.19,0.00,1953.00,1287.00
1618,1039.66,3119.66,0.00,2074.00,1425.00
1620,1039.92,3122.13,373.63,2093.00,1380.00
1622,1040.19,3124.59,19.42,2065.00,1380.00
1624,1040.45,3127.05,15.84,2019.00,1327.00
1626,1040.72,3129.51,0.00,2074.00,1399.00
1628,1040.99,3131.97,110.79,2152.00,1439.00
1630,1041.25,3134.42,458.78,2213.00,1461.00
1632,1041.52,3136.87,0.00,2021.00,1340.00
1634,1041.78,3139.32,285.68,2114.00,1355.00
1636,1042.05,3141.77,16.43,2312.00,1575.00
1638,1042.32,3144.21,0.00,2107.00,1363.00
1640,1042.58,3146.65,214.90,2232.00,1446.00
1642,1042.85,3149.09,40.56,2183.00,1410.00
1644,1043.11,3151.52,212.23,2190.00,1387.00
1646,1043.38,3153.96,473.54,2262.00,1421.00
1648,1043.64,3156.39,394.03,2209.00,1368.00
1650,1043.90,3158.81,410.82,2242.00,1389.00
1652,1044.17,3161.24,228.92,2276.00,1431.00
1654,1044.43,3163.66,511.82,2207.00,1321.00
1656,1044.70,3166.08,551.50,2376.00,1478.00
1658,1044.96,3168.49,369.72,2268.00,1383.00
1660,1045.22,3170.91,871.64,2287.00,1347.00
1662,1045.49,3173.32,643.75,2310.00,1383.00
1664,1045.75,3175.73,853.02,2378.00,1416.00
1666,1046.01,3178.13,354.89,2276.00,1363.00
1668,1046.28,3180.54,1099.81,2409.00,1420.00
1670,1046.54,3182.94,1130.70,2416.00,1437.00
1672,1046.80,3185.34,1469.40,2397.00,1391.00
1674,1047.07,3187.73,1591.55,2367.00,1342.00
1676,1047.33,3190.12,1469.81,2401.00,1385.00
1678,1047.59,3192.51,2188.27,2473.00,1401.00
1680,1047.85,3194.90,1899.38,2496.00,1465.00
1682,1048.11,3197.29,2126.00,2494.00,1442.00
1684,1048.38,3199.67,2157.09,2477.00,1408.00
1686,1048.64,3202.05,1747.19,2507.00,1471.00
1688,1048.90,3204.43,2302.11,2475.00,1397.00
1690,1049.16,3206.80,3115.90,2490.00,1361.00
1692,1049.42,3209.17,2704.52,2538.00,1454.00
1694,1049.68,3211.54,3149.22,2483.00,1357.00
1696,1049.94,3213.91,2769.38,2504.00,1404.00
1698,1050.20,3216.27,2724.29,2502.00,1408.00
1700,1050.46,3218.63,3088.37,2593.00,1478.00
1702,1050.72,3220.99,3567.65,2547.00,1402.00
1704,1050.98,3223.35,3507.76,2559.00,1423.00
1706,1051.24,3225.70,3779.73,2542.00,1387.00
1708,1051.50,3228.05,3986.44,2505.00,1338.00
1710,1051.76,3230.40,3859.11,2629.00,1473.00
1712,1052.02,3232.75,3869.94,2568.00,1410.00
1714,1052.28,3235.09,4010.77,2636.00,1475.00
1716,1052.54,3237.43,4549.18,2576.00,1391.00
1718,1052.80,3239.77,4914.43,2560.00,1357.00
1720,1053.06,3242.11,4597.13,2570.00,1385.00
1722,1053.32,3244.44,3950.58,2498.00,1361.00
1724,1053.58,3246.77,4689.01,2673.00,1488.00
1726,1053.84,3249.10,4645.99,2587.00,1416.00
1728,1054.10,3251.42,4699.13,2579.00,1412.00
1730,1054.35,3253.75,5621.37,2604.00,1376.00
1732,1054.61,3256.07,5450.14,2665.00,1452.00
1734,1054.87,3258.39,5049.13,2587.00,1406.00
1736,1055.13,3260.70,5854.95,2610.00,1378.00
1738,1055.38,3263.01,5988.50,2619.00,1385.00
1740,1055.64,3265.32,5835.88,2623.00,1406.00
1742,1055.90,3267.63,6359.77,2578.00,1334.00
1744,1056.16,3269.94,6963.51,2752.00,1478.00
1746,1056.41,3272.24,6997.64,2750.00,1480.00
1748,1056.67,3274.54,7106.11,2688.00,1414.00
1750,1056.93,3276.84,6992.68,2682.00,1423.00
1752,1057.18,3279.13,7863.06,2688.00,1383.00
1754,1057.44,3281.42,7786.35,2652.00,1364.00
1756,1057.69,3283.71,8593.15,2690.00,1361.00
1758,1057.95,3286.00,8860.33,2817.00,1478.00
1760,1058.21,3288.28,8760.38,2720.00,1391.00
1762,1058.46,3290.57,8354.15,2760.00,1465.00
1764,1058.72,3292.85,8795.82,2739.00,1433.00
1766,1058.97,3295.12,8736.50,2635.00,1344.00
1768,1059.23,3297.40,8336.34,2635.00,1366.00
1770,1059.48,3299.67,6913.77,2627.00,1442.00
1772,1059.74,3301.94,6865.34,2513.00,1340.00
1774,1059.99,3304.21,6918.35,2583.00,1421.00
1776,1060.25,3306.47,6521.13,2625.00,1494.00
1778,1060.50,3308.73,5497.08,2437.00,1368.00
1780,1060.76,3310.99,5502.60,2441.00,1376.00
1782,1061.01,3313.25,5015.99,2412.00,1382.00
1784,1061.26,3315.50,4427.36,2371.00,1382.00
1786,1061.52,3317.76,4399.33,2441.00,1461.00
1788,1061.77,3320.01,4507.51,2426.00,1444.00
1790,1062.02,3322.25,3719.87,2293.00,1353.00
1792,1062.28,3324.50,3193.29,2323.00,1414.00
1794,1062.53,3326.74,3365.19,2249.00,1342.00
1796,1062.78,3328.98,3463.05,2300.00,1404.00
1798,1063.04,3331.22,3243.25,2253.00,1376.00
1800,1063.29,3333.45,2864.17,2232.00,1370.00
1802,1063.54,3335.68,2306.09,2217.00,1376.00
1804,1063.79,3337.91,1630.29,2242.00,1439.00
1806,1064.05,3340.14,1921.65,2329.00,1520.00
1808,1064.30,3342.36,1513.80,2131.00,1355.00
1810,1064.55,3344.59,2048.95,2230.00,1435.00
1812,1064.80,3346.81,708.50,2116.00,1387.00
1814,1065.05,3349.02,1695.58,2133.00,1363.00
1816,1065.30,3351.24,1553.64,2209.00,1450.00
1818,1065.55,3353.45,1692.04,2131.00,1368.00
1820,1065.81,3355.66,1944.79,2249.00,1484.00
1822,1066.06,3357.87,2425.37,2145.00,1380.00
1824,1066.31,3360.07,2208.72,2074.00,1332.00
1826,1066.56,3362.27,1773.63,2156.00,1427.00
1828,1066.81,3364.47,180.38,2019.00,1370.00
1830,1067.06,3366.67,622.66,2056.00,1391.00
1832,1067.31,3368.87,1176.59,2052.00,1378.00
1834,1067.56,3371.06,1406.64,1980.00,1311.00
1836,1067.81,3373.25,377.91,1949.00,1328.00
1838,1068.06,3375.44,1281.55,1972.00,1313.00
1840,1068.31,3377.62,1113.75,1980.00,1338.00
1842,1068.56,3379.81,1224.37,1942.00,1309.00
1844,1068.80,3381.99,1823.33,2135.00,1492.00
1846,1069.05,3384.16,1734.16,2035.00,1406.00
1848,1069.30,3386.34,1723.11,1976.00,1355.00
1850,1069.55,3388.51,1145.20,1945.00,1353.00
1852,1069.80,3390.68,1127.32,1972.00,1387.00
1854,1070.05,3392.85,1429.23,2092.00,1497.00
1856,1070.30,3395.02,786.22,1949.00,1385.00
1858,1070.54,3397.18,436.23,1860.00,1321.00
1860,1070.79,3399.34,2045.69,1959.00,1372.00
1862,1071.04,3401.50,1805.90,1909.00,1345.00
1864,1071.29,3403.66,926.52,1820.00,1289.00
1866,1071.53,3405.81,16.86,1896.00,1404.00
1868,1071.78,3407.96,1015.34,1898.00,1372.00
1870,1072.03,3410.11,796.24,1913.00,1404.00
1872,1072.27,3412.26,345.28,1888.00,1404.00
1874,1072.52,3414.40,871.39,1854.00,1359.00
1876,1072.77,3416.54,1647.15,1856.00,1345.00
1878,1073.01,3418.68,1004.27,1926.00,1442.00
1880,1073.26,3420.82,464.95,1731.00,1268.00
1882,1073.51,3422.96,159.86,1862.00,1416.00
1884,1073.75,3425.09,24.36,1828.00,1395.00
1886,1074.00,3427.22,1961.96,1782.00,1287.00
1888,1074.24,3429.35,1049.23,1892.00,1442.00
1890,1074.49,3431.47,1429.49,1782.00,1328.00
1892,1074.73,3433.59,1097.22,1742.00,1302.00
1894,1074.98,3435.71,1213.51,1887.00,1448.00
1896,1075.22,3437.83,1714.10,1803.00,1353.00
1898,1075.47,3439.95,2039.72,1868.00,1410.00
1900,1075.71,3442.06,1082.64,1830.00,1408.00
1902,1075.96,3444.17,944.11,1797.00,1387.00
1904,1076.20,3446.28,1950.53,1645.00,1215.00
1906,1076.44,3448.38,2726.07,1904.00,1465.00
1908,1076.69,3450.49,2362.23,1849.00,1423.00
1910,1076.93,3452.59,1162.78,1780.00,1389.00
1912,1077.17,3454.69,1691.88,1752.00,1349.00
1914,1077.42,3456.79,1334.83,1754.00,1372.00
1916,1077.66,3458.88,2501.59,1738.00,1334.00
1918,1077.90,3460.97,1837.74,1714.00,1330.00
1920,1078.15,3463.06,1473.03,1811.00,1437.00
1922,1078.39,3465.15,915.20,1725.00,1372.00
1924,1078.63,3467.23,1152.67,1651.00,1298.00
1926,1078.87,3469.32,1386.73,1763.00,1412.00
1928,1079.12,3471.40,2067.28,1702.00,1340.00
1930,1079.36,3473.47,817.03,1852.00,1526.00
1932,1079.60,3475.55,1290.91,1649.00,1313.00
1934,1079.84,3477.62,922.72,1727.00,1406.00
1936,1080.08,3479.69,2445.01,1695.00,1340.00
1938,1080.33,3481.76,1535.94,1644.00,1319.00
1940,1080.57,3483.83,2888.82,1731.00,1372.00
1942,1080.81,3485.89,2175.36,1697.00,1355.00
1944,1081.05,3487.95,1025.45,1738.00,1433.00
1946,1081.29,3490.01,2933.12,1744.00,1387.00
1948,1081.53,3492.07,3036.36,1678.00,1334.00
1950,1081.77,3494.12,4929.69,1710.00,1338.00
1952,1082.01,3496.18,7259.36,1809.00,1402.00
1954,1082.25,3498.23,6852.85,1714.00,1323.00
1956,1082.49,3500.27,7720.44,1784.00,1376.00
1958,1082.73,3502.32,6020.25,1682.00,1306.00
1960,1082.97,3504.36,4352.14,1738.00,1395.00
1962,1083.21,3506.40,3853.16,1663.00,1332.00
1964,1083.45,3508.44,2720.31,1577.00,1281.00
1966,1083.69,3510.48,3451.83,1780.00,1475.00
1968,1083.93,3512.51,1844.39,1657.00,1393.00
1970,1084.16,3514.54,2801.88,1630.00,1344.00
1972,1084.40,3516.57,1323.21,1590.00,1344.00
1974,1084.64,3518.60,2409.29,1579.00,1317.00
1976,1084.88,3520.62,1624.12,1678.00,1440.00
1978,1085.12,3522.65,1513.37,1678.00,1444.00
1980,1085.36,3524.67,860.67,1594.00,1374.00
1982,1085.59,3526.68,923.28,1564.00,1345.00
1984,1085.83,3528.70,2205.11,1651.00,1410.00
1986,1086.07,3530.71,3035.21,1564.00,1315.00
1988,1086.31,3532.72,2257.67,1628.00,1395.00
1990,1086.54,3534.73,374.99,1516.00,1325.00
1992,1086.78,3536.74,2368.43,1682.00,1454.00
1994,1087.02,3538.74,2977.33,1606.00,1378.00
1996,1087.25,3540.74,3374.55,1503.00,1271.00
1998,1087.49,3542.74,2687.52,1598.00,1372.00
2000,1087.73,3544.74,0.00,1522.00,1359.00
2002,1087.96,3546.74,625.09,1558.00,1380.00
2004,1088.20,3548.73,2024.31,1632.00,1433.00
2006,1088.43,3550.72,3007.56,1573.00,1361.00
2008,1088.67,3552.71,853.65,1522.00,1349.00
2010,1088.90,3554.69,166.11,1454.00,1296.00
2012,1089.14,3556.68,2366.42,1575.00,1383.00
2014,1089.38,3558.66,1858.62,1488.00,1308.00
2016,1089.61,3560.64,1331.88,1490.00,1319.00
2018,1089.84,3562.62,904.18,1562.00,1399.00
2020,1090.08,3564.59,709.99,1486.00,1328.00
2022,1090.31,3566.56,1161.06,1482.00,1315.00
2024,1090.55,3568.53,661.55,1478.00,1323.00
2026,1090.78,3570.50,1322.98,1456.00,1290.00
2028,1091.02,3572.47,1632.30,1440.00,1277.00
2030,1091.25,3574.43,1376.47,1442.00,1289.00
2032,1091.48,3576.39,2237.02,1374.00,1209.00
2034,1091.72,3578.35,1280.21,1372.00,1216.00
2036,1091.95,3580.31,0.00,1440.00,1315.00
2038,1092.18,3582.26,553.91,1364.00,1224.00
2040,1092.42,3584.22,1757.71,1359.00,1207.00
2042,1092.65,3586.17,2483.20,1387.00,1232.00
2044,1092.88,3588.12,317.85,1351.00,1220.00
2046,1093.11,3590.06,0.00,1338.00,1228.00
2047,1093.23,3591.03,204.46,1342.00,1196.00