File: enlighten/plugins/Raman/MatchingLibrary/785X/cyclohexane.csv
ENLIGHTEN Version,4.1.22
Measurement ID,20250220-200742-199801-WP-01977
Serial Number,WP-01977
Model,WP-785X-F13-R-ILC
Detector,S16011-1106
Label,cyclohexane
Declared Match,
Declared Score,0
Scan Averaging,9
Boxcar,0
Technique,Raman
Baseline Correction Algo,AirPLS
ROI Pixel Start,47
ROI Pixel End,2047
ROI Start Line,0
ROI Stop Line,63
CCD C4,1.38617e-12
Slit Width,25
Cropped,True
Interpolated,False
Wavenumber Correction,-0.100481
Raman Intensity Corrected,True
Deconvolved,True
Region,
High Gain Mode,False
Laser Power mW,
Electrical Dark Correction,False
Battery %,
Device ID,<DeviceID USB:0x24aa:0x1000:0:1>
FW Version,10.0.0.10
FPGA Version,035-001
BLE Version,
Prefix,enlighten
Suffix,
Preset,
Auto-Raman,True
Session Count,0
Plugin Name,
Integration Time,113
Timestamp,2025-02-20 20:07:42.1998
Note,
Temperature,0
CCD C0,793.274
CCD C1,0.153259
CCD C2,1.40788e-05
CCD C3,-1.132e-08
CCD Offset,0
CCD Gain,1.9
CCD Offset Odd,0
CCD Gain Odd,1.9
Laser Wavelength,785.032
Laser Enable,False
Laser Power %,0
Laser Temperature,0
Pixel Count,2048

Pixel,Wavelength,Wavenumber,Processed,Raw,Dark
0,793.27,132.25,NA,872.22,867.00
2,793.58,137.12,NA,875.33,872.78
4,793.89,141.99,NA,876.11,868.89
6,794.19,146.86,NA,877.89,871.22
8,794.50,151.72,NA,875.89,872.78
10,794.81,156.58,NA,877.67,872.56
12,795.12,161.44,NA,873.67,870.67
14,795.42,166.30,NA,874.78,868.22
16,795.73,171.16,NA,874.56,870.89
18,796.04,176.01,NA,879.33,871.22
20,796.35,180.86,NA,880.78,873.33
22,796.65,185.71,NA,886.89,879.56
24,796.96,190.56,NA,878.67,875.56
26,797.27,195.41,NA,885.33,878.78
28,797.58,200.25,NA,884.89,876.56
30,797.88,205.09,NA,878.67,869.22
32,798.19,209.93,NA,880.44,872.11
34,798.50,214.77,NA,880.89,871.56
36,798.81,219.60,NA,879.78,869.89
38,799.12,224.43,NA,885.56,872.56
40,799.43,229.27,NA,904.78,877.11
42,799.74,234.09,NA,953.00,873.33
44,800.04,238.92,NA,1046.22,883.56
46,800.35,243.75,NA,1073.00,874.00
48,800.66,248.57,27.74,1081.33,878.67
50,800.97,253.39,20.58,1074.22,877.22
52,801.28,258.21,7.43,1064.44,881.67
54,801.59,263.02,11.19,1062.00,877.56
56,801.90,267.83,3.06,1050.89,878.89
58,802.21,272.65,0.86,1047.11,879.11
60,802.52,277.46,5.36,1049.00,876.22
62,802.83,282.26,5.89,1050.33,882.11
64,803.14,287.07,4.27,1048.22,881.67
66,803.45,291.87,2.70,1043.56,880.11
68,803.76,296.67,0.83,1036.67,878.44
70,804.07,301.47,0.00,1032.78,879.11
72,804.38,306.26,0.00,1028.33,877.44
74,804.69,311.06,0.00,1029.22,878.00
76,805.00,315.85,6.10,1035.22,874.56
78,805.31,320.64,5.93,1037.22,876.56
80,805.62,325.42,3.43,1039.56,880.56
82,805.93,330.21,18.52,1050.56,876.89
84,806.24,334.99,15.59,1045.78,872.00
86,806.55,339.77,24.70,1059.67,872.89
88,806.86,344.55,39.33,1080.44,876.67
90,807.17,349.32,51.03,1096.22,873.89
92,807.48,354.10,71.48,1127.56,876.11
94,807.80,358.87,102.55,1176.22,877.78
96,808.11,363.63,148.60,1248.11,877.22
98,808.42,368.40,235.64,1391.00,875.22
100,808.73,373.16,415.74,1675.67,875.89
102,809.04,377.93,785.09,2143.22,871.67
104,809.35,382.68,1233.35,2579.89,873.22
106,809.66,387.44,1078.04,2444.44,877.89
108,809.98,392.19,568.40,1905.22,871.11
110,810.29,396.95,312.76,1541.89,878.00
112,810.60,401.70,250.03,1410.33,876.11
114,810.91,406.44,267.55,1423.89,874.67
116,811.22,411.19,323.56,1545.89,879.89
118,811.54,415.93,514.14,1875.67,877.11
120,811.85,420.67,1028.04,2533.44,873.22
122,812.16,425.41,1642.57,3139.33,876.44
124,812.47,430.14,1391.10,2920.44,881.89
126,812.79,434.87,742.61,2200.56,873.67
128,813.10,439.60,409.24,1693.00,870.67
130,813.41,444.33,274.30,1448.22,873.89
132,813.72,449.06,208.85,1327.22,874.22
134,814.04,453.78,173.18,1271.11,875.78
136,814.35,458.50,146.56,1231.11,872.22
138,814.66,463.22,146.99,1228.67,872.56
140,814.98,467.93,165.56,1252.78,871.67
142,815.29,472.65,189.87,1287.00,877.22
144,815.60,477.36,208.17,1302.00,875.44
146,815.92,482.06,184.60,1269.22,873.22
148,816.23,486.77,138.51,1213.11,875.56
150,816.54,491.47,102.22,1165.00,882.00
152,816.86,496.17,77.29,1110.78,868.11
154,817.17,500.87,57.69,1087.56,874.22
156,817.48,505.57,51.52,1073.00,873.33
158,817.80,510.26,45.46,1061.78,872.56
160,818.11,514.95,46.79,1067.78,875.78
162,818.42,519.64,51.20,1072.22,877.22
164,818.74,524.32,59.33,1074.11,873.33
166,819.05,529.00,48.31,1065.00,877.78
168,819.37,533.68,39.13,1048.67,875.11
170,819.68,538.36,27.39,1032.22,875.78
172,819.99,543.04,23.55,1022.78,875.67
174,820.31,547.71,16.30,1009.22,875.22
176,820.62,552.38,10.27,996.44,871.78
178,820.94,557.05,12.77,995.89,871.22
180,821.25,561.71,2.78,980.00,869.44
182,821.57,566.37,4.27,982.44,871.11
184,821.88,571.03,0.00,974.33,873.33
186,822.20,575.69,0.00,975.89,875.44
188,822.51,580.34,0.00,967.00,871.44
190,822.83,584.99,0.00,968.78,877.11
192,823.14,589.64,0.00,971.00,872.89
194,823.46,594.29,3.57,978.22,873.22
196,823.77,598.93,2.52,978.00,874.11
198,824.09,603.57,11.26,981.78,869.33
200,824.40,608.21,5.02,981.44,874.22
202,824.72,612.85,4.22,981.22,874.22
204,825.03,617.48,11.78,991.33,872.89
206,825.35,622.11,17.62,997.67,875.67
208,825.66,626.74,12.52,993.78,876.89
210,825.98,631.36,4.88,979.33,871.78
212,826.29,635.99,3.70,980.11,875.78
214,826.61,640.61,1.00,974.00,874.67
216,826.92,645.22,0.95,973.22,874.11
218,827.24,649.84,0.01,968.22,870.56
220,827.56,654.45,0.00,971.89,878.67
222,827.87,659.06,2.37,974.56,873.44
224,828.19,663.67,2.92,975.56,873.11
226,828.50,668.27,0.46,983.56,882.00
228,828.82,672.87,0.00,973.33,876.33
230,829.13,677.47,2.20,975.22,870.56
232,829.45,682.06,0.00,976.33,875.33
234,829.77,686.66,0.24,987.33,883.00
236,830.08,691.25,0.00,979.11,873.78
238,830.40,695.83,0.00,973.67,875.78
240,830.72,700.42,0.00,979.33,873.44
242,831.03,705.00,0.00,977.78,868.22
244,831.35,709.58,0.00,989.56,872.00
246,831.66,714.15,0.00,988.78,867.78
248,831.98,718.73,0.43,1008.78,872.78
250,832.30,723.30,6.50,1018.78,869.44
252,832.61,727.87,12.46,1039.89,877.44
254,832.93,732.43,19.76,1044.44,863.67
256,833.25,736.99,27.98,1074.78,876.89
258,833.56,741.55,43.80,1100.33,871.78
260,833.88,746.11,69.19,1141.56,869.22
262,834.20,750.66,102.45,1206.11,872.67
264,834.51,755.22,140.17,1278.78,875.89
266,834.83,759.76,209.72,1395.22,875.00
268,835.15,764.31,287.85,1528.44,874.22
270,835.47,768.85,372.37,1676.56,869.44
272,835.78,773.39,467.38,1876.00,875.67
274,836.10,777.93,669.13,2209.22,872.33
276,836.42,782.46,1015.80,2791.56,873.33
278,836.73,787.00,1318.79,3941.44,873.67
280,837.05,791.52,2264.11,7770.78,871.56
282,837.37,796.05,9457.31,21757.78,875.33
284,837.69,800.57,32268.09,43731.56,876.11
286,838.00,805.09,22620.47,36183.67,871.67
288,838.32,809.61,3970.56,12948.22,873.11
290,838.64,814.13,1073.11,4533.89,876.00
292,838.95,818.64,716.32,2545.56,870.78
294,839.27,823.15,502.44,1934.33,871.33
296,839.59,827.65,334.24,1662.22,874.78
298,839.91,832.15,240.52,1498.11,870.89
300,840.22,836.65,181.21,1406.11,880.89
302,840.54,841.15,149.08,1345.22,869.33
304,840.86,845.65,150.33,1351.33,877.22
306,841.18,850.14,184.31,1375.44,872.44
308,841.50,854.63,173.50,1368.00,885.00
310,841.81,859.11,105.36,1273.22,871.44
312,842.13,863.60,57.31,1202.78,875.78
314,842.45,868.07,42.18,1161.67,869.00
316,842.77,872.55,25.17,1140.44,876.56
318,843.08,877.03,11.81,1126.56,879.33
320,843.40,881.50,6.41,1106.44,867.00
322,843.72,885.97,10.10,1119.00,877.00
324,844.04,890.43,13.97,1117.89,872.33
326,844.36,894.89,21.05,1133.11,874.00
328,844.67,899.35,45.38,1166.11,873.78
330,844.99,903.81,58.01,1169.00,866.78
332,845.31,908.26,50.51,1169.44,876.22
334,845.63,912.71,28.58,1135.89,874.11
336,845.95,917.16,16.45,1112.33,875.22
338,846.27,921.61,10.83,1147.89,923.00
340,846.58,926.05,3.70,1086.33,872.22
342,846.90,930.49,0.15,1074.22,870.56
344,847.22,934.92,0.00,1062.67,870.78
346,847.54,939.36,0.00,1056.44,867.89
348,847.86,943.79,0.00,1062.11,869.22
350,848.18,948.21,0.00,1061.11,869.56
352,848.49,952.64,0.00,1074.33,874.44
354,848.81,957.06,0.49,1088.33,867.89
356,849.13,961.48,12.36,1118.67,876.89
358,849.45,965.89,23.49,1139.00,873.44
360,849.77,970.31,48.21,1182.33,869.44
362,850.09,974.71,72.89,1228.67,870.89
364,850.40,979.12,108.47,1302.67,875.67
366,850.72,983.52,153.20,1389.11,877.89
368,851.04,987.92,225.53,1506.67,865.00
370,851.36,992.32,312.64,1668.33,868.78
372,851.68,996.72,444.47,1909.67,871.89
374,852.00,1001.11,623.16,2239.56,868.78
376,852.32,1005.50,906.46,2759.11,866.56
378,852.63,1009.88,1338.01,3609.67,878.89
380,852.95,1014.26,2062.10,5113.78,876.22
382,853.27,1018.64,3533.50,7901.78,877.89
384,853.59,1023.02,6626.67,12370.44,872.11
386,853.91,1027.39,9945.54,16072.67,870.56
388,854.23,1031.76,8551.76,14611.89,871.78
390,854.55,1036.13,4809.34,9949.22,874.00
392,854.87,1040.49,2682.85,6362.44,870.33
394,855.18,1044.86,1736.02,4405.22,875.00
396,855.50,1049.21,1215.06,3342.89,870.78
398,855.82,1053.57,875.45,2719.67,874.33
400,856.14,1057.92,640.23,2304.67,872.78
402,856.46,1062.27,471.66,2008.22,871.22
404,856.78,1066.62,365.44,1814.33,867.89
406,857.10,1070.96,268.91,1654.44,867.44
408,857.42,1075.30,213.36,1566.56,875.11
410,857.74,1079.64,172.36,1493.00,871.44
412,858.06,1083.97,145.77,1445.67,868.33
414,858.37,1088.30,133.17,1425.78,866.33
416,858.69,1092.63,118.64,1406.89,867.89
418,859.01,1096.95,124.46,1415.44,869.22
420,859.33,1101.27,128.10,1427.78,872.33
422,859.65,1105.59,122.30,1420.33,872.78
424,859.97,1109.91,116.55,1409.33,870.78
426,860.29,1114.22,102.44,1388.89,868.11
428,860.61,1118.53,78.37,1358.22,869.22
430,860.93,1122.84,55.96,1332.33,871.33
432,861.25,1127.14,59.13,1347.44,875.44
434,861.56,1131.44,70.18,1364.33,870.89
436,861.88,1135.74,115.75,1433.89,867.44
438,862.20,1140.03,164.52,1527.33,871.44
440,862.52,1144.32,213.55,1696.89,875.56
442,862.84,1148.61,345.22,2129.44,875.67
444,863.16,1152.89,1085.62,3341.56,870.78
446,863.48,1157.17,2876.58,4974.56,871.89
448,863.80,1161.45,1789.67,4113.33,875.11
450,864.12,1165.73,359.92,2284.89,873.22
452,864.44,1170.00,120.78,1611.11,870.33
454,864.76,1174.27,70.48,1410.22,871.56
456,865.07,1178.53,22.90,1325.00,870.22
458,865.39,1182.80,1.15,1287.89,870.11
460,865.71,1187.06,0.00,1269.11,871.44
462,866.03,1191.31,0.00,1272.78,871.33
464,866.35,1195.57,0.00,1280.56,869.89
466,866.67,1199.82,0.17,1305.33,872.56
468,866.99,1204.06,17.34,1347.89,871.11
470,867.31,1208.31,61.42,1402.56,873.11
472,867.63,1212.55,83.67,1448.56,870.33
474,867.95,1216.79,106.37,1494.22,867.22
476,868.27,1221.02,137.94,1560.44,870.44
478,868.58,1225.25,187.56,1644.33,867.00
480,868.90,1229.48,265.96,1786.67,874.89
482,869.22,1233.71,362.09,1962.44,877.33
484,869.54,1237.93,506.59,2219.67,878.67
486,869.86,1242.15,720.87,2588.56,873.44
488,870.18,1246.36,1032.13,3138.44,867.89
490,870.50,1250.58,1501.62,4075.22,872.22
492,870.82,1254.79,2343.89,5799.78,880.89
494,871.14,1258.99,4229.82,8921.67,874.11
496,871.46,1263.20,7798.69,13255.11,874.78
498,871.78,1267.40,9628.82,15075.56,874.78
500,872.10,1271.59,6763.36,12154.11,871.56
502,872.41,1275.79,3758.79,8176.33,868.11
504,872.73,1279.98,2309.39,5608.22,874.44
506,873.05,1284.17,1609.79,4201.11,874.22
508,873.37,1288.35,1168.61,3370.22,867.11
510,873.69,1292.53,887.20,2884.56,869.22
512,874.01,1296.71,704.30,2576.67,871.22
514,874.33,1300.88,576.77,2356.22,863.33
516,874.65,1305.06,503.41,2241.33,873.56
518,874.97,1309.22,456.15,2156.56,867.78
520,875.29,1313.39,439.61,2132.89,872.56
522,875.60,1317.55,433.18,2130.11,872.56
524,875.92,1321.71,449.27,2164.67,869.89
526,876.24,1325.87,511.65,2267.78,875.78
528,876.56,1330.02,596.88,2413.44,870.00
530,876.88,1334.17,710.70,2647.44,872.00
532,877.20,1338.32,957.96,3050.89,867.56
534,877.52,1342.46,1388.49,3614.11,868.11
536,877.84,1346.60,1772.29,4037.56,870.44
538,878.16,1350.73,1637.86,3887.89,870.56
540,878.47,1354.87,1151.72,3313.89,870.11
542,878.79,1359.00,757.57,2753.33,874.11
544,879.11,1363.13,558.07,2401.56,871.33
546,879.43,1367.25,430.66,2176.78,871.00
548,879.75,1371.37,356.66,2054.44,871.22
550,880.07,1375.49,330.17,2004.33,870.11
552,880.39,1379.60,323.00,1990.22,871.00
554,880.71,1383.71,316.59,1982.00,870.44
556,881.03,1387.82,334.57,2009.78,869.67
558,881.34,1391.93,342.64,2022.33,864.78
560,881.66,1396.03,355.40,2053.89,865.67
562,881.98,1400.13,400.37,2139.22,870.56
564,882.30,1404.22,480.21,2268.11,871.67
566,882.62,1408.31,583.93,2441.89,869.67
568,882.94,1412.40,740.92,2729.67,871.89
570,883.26,1416.49,1000.95,3167.22,870.78
572,883.57,1420.57,1476.41,3865.89,873.78
574,883.89,1424.65,2073.59,4719.78,869.89
576,884.21,1428.73,2566.24,5653.56,876.56
578,884.53,1432.80,3166.52,6982.00,877.33
580,884.85,1436.87,4816.63,9512.33,872.56
582,885.17,1440.93,7963.95,12993.89,868.78
584,885.49,1445.00,9411.11,14304.56,868.33
586,885.80,1449.06,6843.36,11778.78,869.22
588,886.12,1453.11,4051.02,8371.78,874.89
590,886.44,1457.17,2619.94,6102.33,875.44
592,886.76,1461.22,2082.40,4939.89,871.22
594,887.08,1465.26,2008.82,4508.78,873.89
596,887.40,1469.31,1544.88,3878.67,868.78
598,887.71,1473.35,963.59,3160.11,867.44
600,888.03,1477.38,759.81,2811.78,872.22
602,888.35,1481.42,710.17,2652.22,875.44
604,888.67,1485.45,654.08,2534.56,873.67
606,888.99,1489.48,536.56,2369.89,868.56
608,889.31,1493.50,414.44,2209.44,874.11
610,889.62,1497.52,307.88,2055.67,873.56
612,889.94,1501.54,236.12,1937.78,867.00
614,890.26,1505.56,168.94,1839.11,870.11
616,890.58,1509.57,126.14,1778.78,870.56
618,890.90,1513.57,89.07,1725.00,869.67
620,891.21,1517.58,66.79,1690.22,869.67
622,891.53,1521.58,45.60,1664.11,872.78
624,891.85,1525.58,38.84,1653.67,869.22
626,892.17,1529.57,23.61,1630.89,872.22
628,892.49,1533.57,42.55,1648.67,873.11
630,892.80,1537.56,54.99,1642.44,867.00
632,893.12,1541.54,58.02,1635.11,870.11
634,893.44,1545.52,22.66,1606.89,871.11
636,893.76,1549.50,0.32,1556.33,868.33
638,894.07,1553.48,0.01,1548.56,873.11
640,894.39,1557.45,0.09,1538.33,870.44
642,894.71,1561.42,6.11,1545.22,872.78
644,895.03,1565.39,29.54,1559.56,868.56
646,895.34,1569.35,38.72,1566.00,872.33
648,895.66,1573.31,42.88,1561.11,869.56
650,895.98,1577.26,30.31,1540.11,869.00
652,896.30,1581.22,21.49,1519.22,866.11
654,896.61,1585.17,9.89,1499.11,871.11
656,896.93,1589.11,5.98,1489.00,874.44
658,897.25,1593.06,0.00,1463.56,867.00
660,897.57,1597.00,0.00,1456.11,869.44
662,897.88,1600.93,0.00,1447.56,871.11
664,898.20,1604.87,0.00,1437.00,867.00
666,898.52,1608.80,0.78,1435.89,865.44
668,898.84,1612.72,0.00,1425.78,867.89
670,899.15,1616.65,0.27,1435.33,875.22
672,899.47,1620.57,1.97,1425.78,867.44
674,899.79,1624.49,9.59,1430.78,867.56
676,900.10,1628.40,16.76,1433.11,869.11
678,900.42,1632.31,8.57,1429.00,874.89
680,900.74,1636.22,8.55,1416.33,865.00
682,901.05,1640.12,17.17,1430.11,875.89
684,901.37,1644.02,12.81,1416.67,872.56
686,901.69,1647.92,14.97,1416.44,872.11
688,902.00,1651.82,26.91,1419.56,865.89
690,902.32,1655.71,21.08,1409.44,867.22
692,902.64,1659.60,27.61,1413.89,864.78
694,902.95,1663.48,34.39,1422.11,870.33
696,903.27,1667.36,38.82,1421.78,868.78
698,903.59,1671.24,44.43,1431.33,874.22
700,903.90,1675.11,48.62,1431.56,871.67
702,904.22,1678.99,60.63,1441.22,866.78
704,904.54,1682.85,89.67,1481.78,876.33
706,904.85,1686.72,100.90,1481.56,871.44
708,905.17,1690.58,118.15,1492.44,869.67
710,905.49,1694.44,104.41,1470.78,867.33
712,905.80,1698.29,73.40,1434.33,868.44
714,906.12,1702.15,56.60,1409.33,870.44
716,906.43,1706.00,39.64,1384.89,872.67
718,906.75,1709.84,32.45,1376.44,876.56
720,907.07,1713.68,29.16,1361.11,870.78
722,907.38,1717.52,48.71,1372.00,869.67
724,907.70,1721.36,49.71,1364.67,869.78
726,908.01,1725.19,24.47,1338.22,870.33
728,908.33,1729.02,14.95,1324.00,872.22
730,908.65,1732.85,13.52,1312.22,869.00
732,908.96,1736.67,8.24,1305.22,873.22
734,909.28,1740.49,5.66,1292.11,868.56
736,909.59,1744.30,16.27,1300.89,872.44
738,909.91,1748.12,5.06,1283.56,867.00
740,910.22,1751.93,1.15,1278.22,871.33
742,910.54,1755.73,6.51,1290.11,879.78
744,910.85,1759.54,10.85,1282.11,874.44
746,911.17,1763.34,9.30,1267.56,867.67
748,911.49,1767.13,10.67,1269.33,870.33
750,911.80,1770.93,1.76,1253.33,867.67
752,912.12,1774.72,1.61,1252.33,871.33
754,912.43,1778.50,2.86,1244.11,867.22
756,912.75,1782.29,0.00,1235.44,867.89
758,913.06,1786.07,0.30,1233.00,867.00
760,913.38,1789.84,6.32,1239.11,868.22
762,913.69,1793.62,4.18,1232.78,870.56
764,914.01,1797.39,6.56,1233.33,870.56
766,914.32,1801.15,8.01,1231.56,868.11
768,914.64,1804.92,12.32,1232.33,869.00
770,914.95,1808.68,22.97,1241.44,872.22
772,915.26,1812.44,28.89,1244.00,872.56
774,915.58,1816.19,17.86,1224.67,865.89
776,915.89,1819.94,24.51,1233.44,871.00
778,916.21,1823.69,25.10,1229.89,872.44
780,916.52,1827.43,18.33,1226.89,877.22
782,916.84,1831.17,22.23,1216.11,866.22
784,917.15,1834.91,30.63,1216.22,863.67
786,917.47,1838.64,30.25,1222.33,871.56
788,917.78,1842.38,33.88,1222.00,869.33
790,918.09,1846.10,45.24,1228.56,869.89
792,918.41,1849.83,46.16,1226.67,871.22
794,918.72,1853.55,36.71,1209.11,866.11
796,919.04,1857.27,40.16,1210.33,865.00
798,919.35,1860.98,35.80,1205.89,867.44
800,919.66,1864.69,32.59,1198.89,869.78
802,919.98,1868.40,43.53,1205.89,872.67
804,920.29,1872.11,51.93,1208.44,870.00
806,920.60,1875.81,34.72,1192.11,872.22
808,920.92,1879.51,33.78,1186.89,871.33
810,921.23,1883.20,32.61,1179.56,872.22
812,921.55,1886.90,29.69,1166.00,865.22
814,921.86,1890.58,19.27,1160.67,872.67
816,922.17,1894.27,20.10,1157.00,872.89
818,922.49,1897.95,21.23,1150.44,870.78
820,922.80,1901.63,24.95,1146.67,865.22
822,923.11,1905.31,16.29,1140.00,871.78
824,923.42,1908.98,22.84,1140.22,868.33
826,923.74,1912.65,17.67,1138.44,875.11
828,924.05,1916.31,23.63,1132.67,866.44
830,924.36,1919.98,26.77,1131.00,865.22
832,924.68,1923.64,28.83,1131.78,866.33
834,924.99,1927.29,31.15,1131.44,866.11
836,925.30,1930.94,31.75,1126.44,865.00
838,925.61,1934.59,35.33,1130.11,867.22
840,925.93,1938.24,35.30,1128.89,868.11
842,926.24,1941.88,46.68,1136.22,867.89
844,926.55,1945.52,51.40,1135.22,865.22
846,926.86,1949.16,52.97,1139.44,868.00
848,927.18,1952.79,58.53,1140.89,867.33
850,927.49,1956.42,71.14,1146.33,867.67
852,927.80,1960.05,71.91,1150.78,872.00
854,928.11,1963.67,64.92,1144.00,869.00
856,928.42,1967.29,72.25,1147.78,868.11
858,928.74,1970.91,92.59,1157.22,867.44
860,929.05,1974.52,107.95,1160.22,864.22
862,929.36,1978.13,87.41,1143.67,868.11
864,929.67,1981.74,59.79,1117.00,868.22
866,929.98,1985.35,40.23,1096.44,871.44
868,930.29,1988.95,28.61,1078.22,869.89
870,930.61,1992.54,18.44,1059.78,868.33
872,930.92,1996.14,19.69,1056.33,867.44
874,931.23,1999.73,9.98,1048.56,871.56
876,931.54,2003.32,9.93,1043.00,870.33
878,931.85,2006.90,13.35,1038.89,867.22
880,932.16,2010.48,3.65,1027.56,867.89
882,932.47,2014.06,5.01,1025.00,867.00
884,932.78,2017.63,11.89,1028.00,868.78
886,933.09,2021.21,6.02,1018.89,866.78
888,933.41,2024.77,0.72,1016.00,871.44
890,933.72,2028.34,1.65,1020.33,877.00
892,934.03,2031.90,3.60,1013.11,871.56
894,934.34,2035.46,3.20,1008.22,869.00
896,934.65,2039.01,4.76,1007.78,868.33
898,934.96,2042.57,13.88,1019.89,871.89
900,935.27,2046.11,30.05,1035.89,874.00
902,935.58,2049.66,57.04,1041.11,863.67
904,935.89,2053.20,67.68,1047.89,867.11
906,936.20,2056.74,31.76,1021.22,868.00
908,936.51,2060.28,17.33,1012.11,871.56
910,936.82,2063.81,7.84,997.33,872.56
912,937.13,2067.34,9.69,990.56,869.56
914,937.44,2070.86,7.35,986.33,867.00
916,937.75,2074.39,1.35,975.22,865.56
918,938.06,2077.91,6.29,976.78,866.33
920,938.37,2081.42,0.00,973.00,871.33
922,938.68,2084.94,0.00,965.89,868.78
924,938.99,2088.45,0.00,964.11,866.56
926,939.30,2091.95,0.00,965.56,871.00
928,939.60,2095.46,0.00,963.33,870.89
930,939.91,2098.96,0.03,966.78,872.00
932,940.22,2102.45,0.66,965.56,868.22
934,940.53,2105.95,5.99,971.22,867.22
936,940.84,2109.44,18.19,983.33,869.67
938,941.15,2112.92,45.72,1006.33,870.00
940,941.46,2116.41,61.80,1011.78,866.56
942,941.77,2119.89,52.29,1012.00,874.33
944,942.07,2123.37,35.87,996.44,868.56
946,942.38,2126.84,19.74,986.89,870.56
948,942.69,2130.31,13.54,978.33,871.00
950,943.00,2133.78,14.27,970.78,866.56
952,943.31,2137.24,12.20,972.11,869.89
954,943.62,2140.70,7.71,966.56,868.33
956,943.92,2144.16,12.79,972.22,869.22
958,944.23,2147.62,14.05,976.22,871.22
960,944.54,2151.07,21.37,989.78,875.89
962,944.85,2154.52,49.07,1012.56,874.44
964,945.16,2157.96,77.64,1024.78,870.67
966,945.46,2161.40,88.64,1031.33,871.00
968,945.77,2164.84,66.64,1011.89,864.78
970,946.08,2168.28,45.48,1003.78,870.78
972,946.39,2171.71,29.50,987.56,868.11
974,946.69,2175.14,25.02,982.89,871.00
976,947.00,2178.57,36.79,984.00,867.89
978,947.31,2181.99,28.93,975.89,865.89
980,947.61,2185.41,13.71,971.22,871.11
982,947.92,2188.82,14.12,974.56,873.33
984,948.23,2192.24,22.87,974.44,866.00
986,948.53,2195.65,31.53,986.11,871.89
988,948.84,2199.05,58.23,998.33,863.22
990,949.15,2202.46,70.85,1017.67,870.56
992,949.45,2205.86,83.10,1030.89,870.78
994,949.76,2209.25,113.50,1049.56,866.78
996,950.07,2212.65,133.69,1061.67,866.11
998,950.37,2216.04,133.87,1063.56,863.44
1000,950.68,2219.43,119.74,1064.11,869.89
1002,950.98,2222.81,143.51,1078.67,869.00
1004,951.29,2226.19,175.61,1092.78,867.22
1006,951.60,2229.57,170.51,1086.11,864.56
1008,951.90,2232.94,137.39,1065.22,865.22
1010,952.21,2236.32,103.58,1042.00,867.89
1012,952.51,2239.68,93.73,1035.67,869.00
1014,952.82,2243.05,93.84,1029.56,864.33
1016,953.12,2246.41,105.75,1041.56,873.00
1018,953.43,2249.77,119.87,1051.00,878.78
1020,953.73,2253.12,111.22,1038.78,873.11
1022,954.04,2256.48,81.26,1010.22,863.33
1024,954.34,2259.83,53.35,998.22,872.67
1026,954.65,2263.17,40.61,976.22,864.78
1028,954.95,2266.51,34.70,969.78,866.33
1030,955.26,2269.85,13.93,963.78,874.67
1032,955.56,2273.19,2.05,951.56,872.67
1034,955.87,2276.52,0.17,945.78,870.11
1036,956.17,2279.85,0.00,946.56,874.11
1038,956.48,2283.18,0.02,939.89,865.78
1040,956.78,2286.50,0.87,943.11,866.78
1042,957.08,2289.82,16.36,953.22,866.67
1044,957.39,2293.14,32.26,960.78,869.00
1046,957.69,2296.45,13.98,950.78,865.33
1048,957.99,2299.76,4.07,954.56,875.67
1050,958.30,2303.07,6.29,953.89,872.11
1052,958.60,2306.38,12.25,955.78,870.44
1054,958.91,2309.68,31.41,965.44,868.11
1056,959.21,2312.98,40.09,966.33,864.44
1058,959.51,2316.27,40.17,972.89,869.00
1060,959.82,2319.56,41.40,979.56,873.44
1062,960.12,2322.85,52.59,980.44,867.67
1064,960.42,2326.14,62.63,984.67,864.89
1066,960.72,2329.42,54.76,983.33,866.78
1068,961.03,2332.70,57.65,990.78,868.78
1070,961.33,2335.97,67.75,1001.44,869.22
1072,961.63,2339.25,101.48,1023.78,865.11
1074,961.93,2342.52,162.87,1066.78,867.11
1076,962.24,2345.78,231.57,1106.11,867.89
1078,962.54,2349.05,270.40,1129.11,872.11
1080,962.84,2352.31,257.19,1118.00,867.22
1082,963.14,2355.56,192.49,1087.44,868.33
1084,963.45,2358.82,132.05,1054.00,870.56
1086,963.75,2362.07,120.79,1045.22,872.56
1088,964.05,2365.32,135.04,1049.56,875.56
1090,964.35,2368.56,160.24,1052.33,871.44
1092,964.65,2371.80,153.53,1046.22,873.33
1094,964.95,2375.04,109.98,1017.67,868.78
1096,965.25,2378.27,68.91,991.11,867.56
1098,965.56,2381.51,36.97,973.22,871.11
1100,965.86,2384.73,16.48,953.67,868.33
1102,966.16,2387.96,9.76,945.56,867.00
1104,966.46,2391.18,6.78,950.11,873.11
1106,966.76,2394.40,0.00,939.22,870.33
1108,967.06,2397.62,7.65,944.33,870.56
1110,967.36,2400.83,2.00,938.56,867.67
1112,967.66,2404.04,0.00,941.33,874.11
1114,967.96,2407.25,3.63,936.11,864.67
1116,968.26,2410.45,0.00,938.11,869.44
1118,968.56,2413.65,0.00,937.11,868.33
1120,968.86,2416.85,0.87,945.78,873.11
1122,969.16,2420.04,0.87,945.11,871.56
1124,969.46,2423.23,7.08,950.33,869.22
1126,969.76,2426.42,30.07,964.78,870.22
1128,970.06,2429.60,54.41,975.11,867.44
1130,970.36,2432.79,67.92,987.44,868.33
1132,970.66,2435.96,72.44,995.00,869.44
1134,970.96,2439.14,85.50,1002.11,867.11
1136,971.26,2442.31,100.86,1016.89,869.89
1138,971.56,2445.48,106.94,1026.67,871.67
1140,971.86,2448.65,143.16,1048.44,867.44
1142,972.16,2451.81,200.85,1085.00,871.33
1144,972.45,2454.97,270.72,1109.56,865.67
1146,972.75,2458.13,289.36,1116.33,867.56
1148,973.05,2461.28,233.74,1091.33,866.22
1150,973.35,2464.43,162.81,1061.22,869.44
1152,973.65,2467.58,107.91,1032.89,870.33
1154,973.95,2470.72,61.24,1001.67,870.89
1156,974.24,2473.86,58.19,994.33,867.22
1158,974.54,2477.00,49.93,985.78,865.44
1160,974.84,2480.13,50.64,989.33,869.44
1162,975.14,2483.27,54.51,989.00,868.33
1164,975.43,2486.40,56.47,986.33,864.78
1166,975.73,2489.52,41.18,983.56,871.00
1168,976.03,2492.64,44.46,984.33,868.11
1170,976.33,2495.76,16.05,977.22,874.56
1172,976.62,2498.88,9.95,968.89,869.00
1174,976.92,2501.99,11.49,973.89,871.89
1176,977.22,2505.10,16.04,976.44,870.78
1178,977.51,2508.21,38.10,988.22,871.00
1180,977.81,2511.31,85.47,1007.22,869.89
1182,978.11,2514.41,77.00,1005.11,869.00
1184,978.40,2517.51,57.88,1004.67,870.56
1186,978.70,2520.61,59.97,1008.33,868.44
1188,979.00,2523.70,95.05,1032.11,874.78
1190,979.29,2526.79,161.29,1050.56,870.22
1192,979.59,2529.87,188.19,1056.33,869.22
1194,979.88,2532.95,130.96,1034.56,868.56
1196,980.18,2536.03,66.23,1012.11,870.33
1198,980.48,2539.11,19.01,994.67,875.56
1200,980.77,2542.18,2.40,975.22,872.11
1202,981.07,2545.25,4.27,977.67,872.22
1204,981.36,2548.32,1.01,970.33,868.89
1206,981.66,2551.38,0.00,972.56,877.33
1208,981.95,2554.44,8.12,976.89,869.22
1210,982.25,2557.50,16.92,985.44,875.22
1212,982.54,2560.56,23.20,989.44,874.67
1214,982.84,2563.61,25.88,994.33,874.78
1216,983.13,2566.66,36.32,1005.56,876.78
1218,983.43,2569.70,65.41,1022.44,874.22
1220,983.72,2572.74,128.44,1055.44,874.78
1222,984.01,2575.78,221.22,1086.22,869.22
1224,984.31,2578.82,295.58,1115.00,870.33
1226,984.60,2581.85,275.04,1114.56,873.22
1228,984.90,2584.88,249.91,1108.11,867.89
1230,985.19,2587.91,224.72,1106.44,872.22
1232,985.48,2590.93,241.49,1119.67,873.67
1234,985.78,2593.96,295.49,1141.78,870.11
1236,986.07,2596.97,383.62,1178.78,871.67
1238,986.36,2599.99,487.80,1220.78,875.22
1240,986.66,2603.00,545.36,1243.11,875.89
1242,986.95,2606.01,529.05,1241.56,878.67
1244,987.24,2609.01,470.28,1214.22,872.89
1246,987.54,2612.02,393.16,1175.33,865.44
1248,987.83,2615.02,334.76,1157.67,874.33
1250,988.12,2618.01,309.30,1146.22,873.78
1252,988.41,2621.01,309.08,1153.22,869.00
1254,988.71,2624.00,313.36,1179.00,868.78
1256,989.00,2626.99,428.76,1256.44,875.78
1258,989.29,2629.97,930.57,1426.78,871.56
1260,989.58,2632.95,1691.49,1617.56,876.44
1262,989.87,2635.93,1268.70,1518.78,872.67
1264,990.16,2638.91,496.96,1284.11,869.89
1266,990.46,2641.88,277.56,1183.78,874.67
1268,990.75,2644.85,319.00,1186.56,879.56
1270,991.04,2647.81,438.06,1216.78,874.22
1272,991.33,2650.78,592.43,1295.56,873.00
1274,991.62,2653.74,777.98,1417.22,874.00
1276,991.91,2656.70,1218.20,1645.00,872.11
1278,992.20,2659.65,2121.83,1983.67,875.78
1280,992.49,2662.60,3456.90,2356.44,869.89
1282,992.78,2665.55,3839.28,2459.33,879.67
1284,993.07,2668.50,2825.38,2191.00,879.00
1286,993.36,2671.44,1846.04,1879.11,874.22
1288,993.65,2674.38,1279.01,1646.33,878.67
1290,993.94,2677.31,1028.01,1507.89,871.00
1292,994.23,2680.25,928.13,1441.67,873.22
1294,994.52,2683.18,1029.03,1457.89,875.44
1296,994.81,2686.10,1237.17,1520.44,875.11
1298,995.10,2689.03,1278.21,1547.11,875.78
1300,995.39,2691.95,1328.70,1574.00,873.11
1302,995.68,2694.87,1635.77,1652.44,878.89
1304,995.97,2697.78,1955.13,1703.67,875.89
1306,996.26,2700.70,1523.79,1572.22,868.67
1308,996.55,2703.61,850.17,1377.33,871.44
1310,996.84,2706.51,510.22,1248.11,874.78
1312,997.13,2709.42,356.60,1163.56,876.22
1314,997.41,2712.32,270.79,1112.78,876.78
1316,997.70,2715.21,187.73,1072.00,874.22
1318,997.99,2718.11,127.02,1044.78,871.78
1320,998.28,2721.00,89.60,1029.00,872.44
1322,998.57,2723.89,60.58,1018.44,877.11
1324,998.86,2726.77,61.51,1007.11,868.33
1326,999.14,2729.66,30.32,1002.11,873.44
1328,999.43,2732.54,11.51,999.44,872.33
1330,999.72,2735.41,0.00,989.67,873.56
1332,1000.01,2738.29,0.00,988.67,875.00
1334,1000.29,2741.16,0.00,982.56,872.44
1336,1000.58,2744.03,0.00,981.56,869.33
1338,1000.87,2746.89,0.00,990.22,877.11
1340,1001.15,2749.75,0.00,990.44,873.89
1342,1001.44,2752.61,0.00,992.00,872.89
1344,1001.73,2755.47,0.00,997.78,871.00
1346,1002.01,2758.32,0.00,1001.89,873.33
1348,1002.30,2761.17,0.00,1014.00,875.56
1350,1002.59,2764.02,0.00,1028.56,876.00
1352,1002.87,2766.86,0.00,1032.11,873.22
1354,1003.16,2769.70,0.00,1043.11,871.22
1356,1003.44,2772.54,0.00,1048.89,872.00
1358,1003.73,2775.38,0.00,1052.89,874.22
1360,1004.01,2778.21,0.00,1057.22,867.67
1362,1004.30,2781.04,0.00,1077.89,875.44
1364,1004.58,2783.87,0.00,1101.00,869.67
1366,1004.87,2786.69,0.00,1118.78,867.67
1368,1005.15,2789.51,0.00,1155.56,874.00
1370,1005.44,2792.33,0.24,1197.89,877.56
1372,1005.72,2795.14,40.99,1257.44,877.44
1374,1006.01,2797.95,302.43,1322.67,878.22
1376,1006.29,2800.76,346.65,1347.33,873.22
1378,1006.58,2803.57,90.00,1337.78,877.22
1380,1006.86,2806.37,16.36,1325.00,869.44
1382,1007.14,2809.17,29.20,1358.11,873.22
1384,1007.43,2811.97,129.04,1409.00,869.22
1386,1007.71,2814.77,339.54,1471.00,870.56
1388,1008.00,2817.56,671.51,1572.33,870.22
1390,1008.28,2820.35,1004.43,1685.56,875.56
1392,1008.56,2823.13,1507.58,1843.00,871.22
1394,1008.85,2825.91,2172.69,2053.56,874.89
1396,1009.13,2828.69,2906.97,2284.44,875.44
1398,1009.41,2831.47,3875.11,2600.44,875.67
1400,1009.69,2834.24,5061.78,3007.89,871.11
1402,1009.98,2837.02,6727.77,3643.11,871.89
1404,1010.26,2839.78,9117.79,4619.00,876.67
1406,1010.54,2842.55,13239.75,6160.67,872.89
1408,1010.82,2845.31,21440.74,8614.67,877.67
1410,1011.11,2848.07,36323.98,11933.56,877.44
1412,1011.39,2850.83,54431.53,15085.78,877.33
1414,1011.67,2853.58,58970.81,15747.22,873.89
1416,1011.95,2856.33,44859.25,13449.44,875.78
1418,1012.23,2859.08,28274.98,10159.67,872.11
1420,1012.51,2861.83,18992.11,7723.00,874.11
1422,1012.80,2864.57,15521.58,6394.89,881.67
1424,1013.08,2867.31,14839.34,5764.00,880.00
1426,1013.36,2870.04,14816.53,5446.67,878.89
1428,1013.64,2872.78,14178.70,5196.44,878.56
1430,1013.92,2875.51,12874.36,4931.78,881.00
1432,1014.20,2878.24,12074.70,4786.11,877.78
1434,1014.48,2880.96,12423.62,4837.89,874.78
1436,1014.76,2883.68,13835.58,5064.67,872.00
1438,1015.04,2886.40,15545.43,5362.56,871.22
1440,1015.32,2889.12,16060.90,5467.11,877.89
1442,1015.60,2891.83,15900.37,5453.11,871.33
1444,1015.88,2894.54,16069.30,5494.11,877.56
1446,1016.16,2897.25,16423.64,5530.56,868.89
1448,1016.44,2899.96,16417.33,5529.11,878.56
1450,1016.72,2902.66,16174.69,5493.33,871.78
1452,1017.00,2905.36,16363.69,5586.00,878.11
1454,1017.28,2908.06,17286.78,5860.11,877.67
1456,1017.55,2910.75,19093.73,6369.33,876.67
1458,1017.83,2913.44,22183.64,7162.11,873.33
1460,1018.11,2916.13,27334.98,8268.89,875.67
1462,1018.39,2918.81,35325.04,9666.89,876.33
1464,1018.67,2921.49,43722.01,10949.67,877.44
1466,1018.95,2924.17,45844.16,11365.78,875.67
1468,1019.22,2926.85,39677.45,10688.11,879.00
1470,1019.50,2929.52,33227.53,9822.67,873.33
1472,1019.78,2932.20,33333.37,9773.56,869.22
1474,1020.06,2934.86,40744.29,10618.67,870.44
1476,1020.33,2937.53,48529.57,11303.56,881.00
1478,1020.61,2940.19,45710.96,10626.44,874.89
1480,1020.89,2942.85,33675.19,8760.67,876.56
1482,1021.17,2945.51,23089.28,6890.67,873.11
1484,1021.44,2948.16,16998.99,5536.00,874.44
1486,1021.72,2950.81,13550.51,4586.44,876.56
1488,1022.00,2953.46,11337.72,3934.56,879.33
1490,1022.27,2956.11,9483.67,3428.89,874.11
1492,1022.55,2958.75,7932.99,3054.89,875.22
1494,1022.82,2961.39,6490.66,2725.22,872.44
1496,1023.10,2964.03,5411.65,2488.22,878.78
1498,1023.38,2966.66,4472.05,2268.67,871.67
1500,1023.65,2969.29,3639.66,2087.78,878.22
1502,1023.93,2971.92,3009.03,1947.33,879.33
1504,1024.20,2974.55,2434.54,1817.44,876.11
1506,1024.48,2977.17,1967.68,1714.44,875.78
1508,1024.75,2979.79,1552.13,1618.56,871.67
1510,1025.03,2982.41,1243.60,1551.11,873.00
1512,1025.30,2985.02,892.77,1477.33,873.78
1514,1025.58,2987.63,643.16,1429.00,874.44
1516,1025.85,2990.24,384.83,1376.11,870.00
1518,1026.13,2992.85,201.25,1341.33,876.00
1520,1026.40,2995.45,69.93,1293.89,875.22
1522,1026.68,2998.05,37.61,1265.11,873.11
1524,1026.95,3000.65,21.18,1246.89,875.78
1526,1027.22,3003.25,1.14,1208.78,871.67
1528,1027.50,3005.84,0.00,1174.78,871.67
1530,1027.77,3008.43,0.00,1165.44,877.11
1532,1028.04,3011.02,0.00,1145.56,876.22
1534,1028.32,3013.60,0.00,1126.00,875.78
1536,1028.59,3016.18,0.00,1109.00,876.00
1538,1028.86,3018.76,0.00,1079.22,866.56
1540,1029.14,3021.34,0.00,1064.78,876.00
1542,1029.41,3023.91,0.00,1051.11,869.22
1544,1029.68,3026.48,0.00,1034.67,870.22
1546,1029.95,3029.05,0.00,1030.67,874.33
1548,1030.22,3031.61,0.00,1017.00,870.56
1550,1030.50,3034.17,0.00,1001.78,870.44
1552,1030.77,3036.73,0.00,999.78,872.44
1554,1031.04,3039.29,0.00,990.11,876.11
1556,1031.31,3041.84,0.00,979.22,868.11
1558,1031.58,3044.39,11.07,986.11,878.11
1560,1031.85,3046.94,0.00,974.78,877.22
1562,1032.13,3049.49,0.00,962.56,872.56
1564,1032.40,3052.03,0.00,965.33,876.67
1566,1032.67,3054.57,6.68,959.56,872.00
1568,1032.94,3057.11,0.00,959.78,877.89
1570,1033.21,3059.64,0.00,945.22,869.67
1572,1033.48,3062.18,2.55,952.67,875.56
1574,1033.75,3064.70,0.00,949.56,875.67
1576,1034.02,3067.23,0.98,945.78,873.89
1578,1034.29,3069.75,0.00,937.44,868.78
1580,1034.56,3072.28,8.05,940.11,872.22
1582,1034.83,3074.79,17.78,935.33,868.78
1584,1035.10,3077.31,30.46,942.11,875.67
1586,1035.37,3079.82,3.15,933.33,872.22
1588,1035.64,3082.33,13.47,940.67,878.89
1590,1035.91,3084.84,0.00,934.56,877.78
1592,1036.17,3087.34,4.28,929.11,872.11
1594,1036.44,3089.85,6.45,935.11,879.33
1596,1036.71,3092.35,24.14,927.11,871.00
1598,1036.98,3094.84,11.38,925.00,871.56
1600,1037.25,3097.34,29.35,925.11,869.89
1602,1037.52,3099.83,0.00,922.00,875.78
1604,1037.78,3102.32,1.56,921.89,872.00
1606,1038.05,3104.80,1.82,924.22,875.11
1608,1038.32,3107.29,0.00,920.78,874.11
1610,1038.59,3109.77,12.62,921.89,873.11
1612,1038.85,3112.24,23.27,922.33,872.33
1614,1039.12,3114.72,14.62,926.22,877.33
1616,1039.39,3117.19,18.82,915.33,866.56
1618,1039.66,3119.66,46.17,928.44,877.22
1620,1039.92,3122.13,31.94,924.67,875.67
1622,1040.19,3124.59,59.12,925.89,874.00
1624,1040.45,3127.05,62.82,921.33,869.22
1626,1040.72,3129.51,21.89,923.22,876.56
1628,1040.99,3131.97,49.57,928.22,878.67
1630,1041.25,3134.42,118.53,933.22,877.78
1632,1041.52,3136.87,87.86,921.22,870.00
1634,1041.78,3139.32,67.46,922.89,873.44
1636,1042.05,3141.77,53.75,935.44,887.44
1638,1042.32,3144.21,82.30,923.33,872.56
1640,1042.58,3146.65,105.03,930.33,878.33
1642,1042.85,3149.09,103.07,924.89,873.78
1644,1043.11,3151.52,94.14,925.22,875.56
1646,1043.38,3153.96,143.78,929.67,875.67
1648,1043.64,3156.39,168.97,928.67,872.44
1650,1043.90,3158.81,81.85,922.22,875.22
1652,1044.17,3161.24,156.99,928.33,873.56
1654,1044.43,3163.66,154.36,922.89,869.44
1656,1044.70,3166.08,146.65,930.56,878.56
1658,1044.96,3168.49,149.24,926.89,875.67
1660,1045.22,3170.91,214.72,927.56,871.11
1662,1045.49,3173.32,148.70,925.78,875.89
1664,1045.75,3175.73,127.15,922.11,874.11
1666,1046.01,3178.13,111.44,920.78,874.78
1668,1046.28,3180.54,145.14,924.00,875.78
1670,1046.54,3182.94,138.73,924.89,878.22
1672,1046.80,3185.34,143.35,921.44,874.11
1674,1047.07,3187.73,71.28,915.78,875.56
1676,1047.33,3190.12,132.80,921.22,875.44
1678,1047.59,3192.51,148.85,921.00,874.89
1680,1047.85,3194.90,157.07,927.22,880.89
1682,1048.11,3197.29,74.83,917.56,879.33
1684,1048.38,3199.67,211.38,924.33,874.22
1686,1048.64,3202.05,127.07,922.00,880.22
1688,1048.90,3204.43,167.95,919.00,874.33
1690,1049.16,3206.80,132.98,917.11,875.89
1692,1049.42,3209.17,189.56,922.78,876.22
1694,1049.68,3211.54,106.72,914.67,875.44
1696,1049.94,3213.91,170.67,919.22,874.44
1698,1050.20,3216.27,208.02,923.11,876.56
1700,1050.46,3218.63,237.30,925.78,878.67
1702,1050.72,3220.99,259.99,924.44,876.67
1704,1050.98,3223.35,260.37,923.33,875.22
1706,1051.24,3225.70,222.49,921.56,875.56
1708,1051.50,3228.05,212.22,919.22,873.89
1710,1051.76,3230.40,237.07,926.44,880.33
1712,1052.02,3232.75,295.10,926.11,877.67
1714,1052.28,3235.09,309.43,927.56,879.11
1716,1052.54,3237.43,305.15,922.78,873.44
1718,1052.80,3239.77,254.01,921.67,875.11
1720,1053.06,3242.11,250.48,920.89,875.44
1722,1053.32,3244.44,363.35,923.89,872.00
1724,1053.58,3246.77,339.50,930.67,882.00
1726,1053.84,3249.10,325.41,922.67,874.78
1728,1054.10,3251.42,332.38,923.22,874.56
1730,1054.35,3253.75,365.66,923.56,873.22
1732,1054.61,3256.07,387.30,926.89,876.44
1734,1054.87,3258.39,370.08,922.67,874.44
1736,1055.13,3260.70,392.25,921.44,871.78
1738,1055.38,3263.01,356.43,923.11,875.33
1740,1055.64,3265.32,337.47,923.22,876.56
1742,1055.90,3267.63,330.73,918.00,872.89
1744,1056.16,3269.94,471.47,932.56,879.67
1746,1056.41,3272.24,404.63,929.11,881.89
1748,1056.67,3274.54,478.88,928.11,876.11
1750,1056.93,3276.84,413.13,926.11,878.00
1752,1057.18,3279.13,422.86,922.33,873.67
1754,1057.44,3281.42,420.53,921.00,873.56
1756,1057.69,3283.71,497.90,922.00,870.78
1758,1057.95,3286.00,479.57,928.67,879.22
1760,1058.21,3288.28,507.33,922.33,871.56
1762,1058.46,3290.57,398.98,926.22,882.56
1764,1058.72,3292.85,392.57,922.44,879.11
1766,1058.97,3295.12,375.46,919.56,876.89
1768,1059.23,3297.40,341.13,916.33,876.22
1770,1059.48,3299.67,473.05,924.00,877.56
1772,1059.74,3301.94,513.36,917.78,871.22
1774,1059.99,3304.21,548.89,925.78,877.67
1776,1060.25,3306.47,422.26,923.89,882.11
1778,1060.50,3308.73,457.15,919.22,874.89
1780,1060.76,3310.99,454.72,917.44,873.67
1782,1061.01,3313.25,450.59,916.89,874.44
1784,1061.26,3315.50,444.51,915.56,874.78
1786,1061.52,3317.76,469.49,919.33,878.22
1788,1061.77,3320.01,505.52,921.00,878.22
1790,1062.02,3322.25,424.53,913.00,874.00
1792,1062.28,3324.50,422.34,914.67,875.00
1794,1062.53,3326.74,353.70,911.00,875.33
1796,1062.78,3328.98,419.03,916.44,878.44
1798,1063.04,3331.22,485.20,913.89,874.33
1800,1063.29,3333.45,492.80,912.56,873.78
1802,1063.54,3335.68,548.14,916.00,874.56
1804,1063.79,3337.91,451.11,916.44,879.44
1806,1064.05,3340.14,438.33,918.44,882.00
1808,1064.30,3342.36,401.68,908.67,874.22
1810,1064.55,3344.59,499.13,916.33,877.11
1812,1064.80,3346.81,411.12,910.56,876.22
1814,1065.05,3349.02,445.58,908.89,873.67
1816,1065.30,3351.24,461.25,912.33,877.44
1818,1065.55,3353.45,518.36,910.56,873.89
1820,1065.81,3355.66,464.05,916.78,882.78
1822,1066.06,3357.87,422.49,907.33,875.11
1824,1066.31,3360.07,409.13,903.89,872.44
1826,1066.56,3362.27,403.29,908.44,877.67
1828,1066.81,3364.47,447.50,903.11,870.56
1830,1067.06,3366.67,450.53,907.89,875.33
1832,1067.31,3368.87,446.86,907.67,875.78
1834,1067.56,3371.06,443.70,900.78,869.89
1836,1067.81,3373.25,413.69,899.78,870.78
1838,1068.06,3375.44,439.93,901.11,871.00
1840,1068.31,3377.62,347.94,899.78,873.44
1842,1068.56,3379.81,500.86,900.67,868.11
1844,1068.80,3381.99,402.37,907.78,880.33
1846,1069.05,3384.16,430.75,903.22,875.56
1848,1069.30,3386.34,471.34,901.78,872.89
1850,1069.55,3388.51,396.29,898.67,872.22
1852,1069.80,3390.68,392.35,903.44,876.33
1854,1070.05,3392.85,319.13,906.78,882.67
1856,1070.30,3395.02,437.43,903.22,875.11
1858,1070.54,3397.18,422.47,896.89,871.00
1860,1070.79,3399.34,467.84,899.22,872.67
1862,1071.04,3401.50,463.17,899.89,873.44
1864,1071.29,3403.66,414.78,893.89,868.56
1866,1071.53,3405.81,489.89,901.22,872.33
1868,1071.78,3407.96,347.92,897.00,874.11
1870,1072.03,3410.11,487.55,902.00,875.56
1872,1072.27,3412.26,590.12,902.22,874.11
1874,1072.52,3414.40,402.10,896.67,874.56
1876,1072.77,3416.54,352.12,894.78,873.00
1878,1073.01,3418.68,285.55,898.78,878.22
1880,1073.26,3420.82,295.88,889.33,868.33
1882,1073.51,3422.96,335.84,898.67,877.78
1884,1073.75,3425.09,592.55,899.89,872.78
1886,1074.00,3427.22,573.31,895.78,870.56
1888,1074.24,3429.35,505.11,901.22,877.67
1890,1074.49,3431.47,519.40,896.89,872.00
1892,1074.73,3433.59,310.88,890.33,872.00
1894,1074.98,3435.71,417.54,901.67,880.00
1896,1075.22,3437.83,384.04,896.44,876.22
1898,1075.47,3439.95,350.42,895.00,876.00
1900,1075.71,3442.06,362.30,897.56,878.11
1902,1075.96,3444.17,384.22,892.44,872.22
1904,1076.20,3446.28,411.86,886.22,865.56
1906,1076.44,3448.38,440.00,902.11,881.67
1908,1076.69,3450.49,475.91,896.11,875.56
1910,1076.93,3452.59,491.54,896.67,875.89
1912,1077.17,3454.69,457.19,890.78,870.78
1914,1077.42,3456.79,583.52,895.11,871.22
1916,1077.66,3458.88,412.10,891.00,872.22
1918,1077.90,3460.97,555.64,891.78,869.44
1920,1078.15,3463.06,538.61,898.78,877.56
1922,1078.39,3465.15,454.95,890.56,871.56
1924,1078.63,3467.23,374.16,887.11,870.11
1926,1078.87,3469.32,327.62,892.00,876.56
1928,1079.12,3471.40,480.22,891.56,872.33
1930,1079.36,3473.47,382.22,899.11,882.44
1932,1079.60,3475.55,425.10,886.44,868.33
1934,1079.84,3477.62,451.65,893.22,874.89
1936,1080.08,3479.69,588.52,890.33,869.44
1938,1080.33,3481.76,513.30,887.56,869.22
1940,1080.57,3483.83,485.73,891.22,873.78
1942,1080.81,3485.89,432.57,889.89,873.89
1944,1081.05,3487.95,352.49,891.11,877.11
1946,1081.29,3490.01,467.63,890.22,873.11
1948,1081.53,3492.07,313.25,886.00,872.33
1950,1081.77,3494.12,225.43,884.67,873.33
1952,1082.01,3496.18,262.00,889.78,878.00
1954,1082.25,3498.23,414.09,885.33,870.56
1956,1082.49,3500.27,448.39,888.11,872.78
1958,1082.73,3502.32,197.89,885.00,875.44
1960,1082.97,3504.36,621.41,890.22,871.22
1962,1083.21,3506.40,349.52,883.89,871.22
1964,1083.45,3508.44,251.56,880.56,870.00
1966,1083.69,3510.48,405.76,893.89,879.33
1968,1083.93,3512.51,220.08,883.78,873.67
1970,1084.16,3514.54,350.61,884.89,872.22
1972,1084.40,3516.57,421.58,882.78,869.67
1974,1084.64,3518.60,337.07,884.22,873.33
1976,1084.88,3520.62,452.51,889.56,876.22
1978,1085.12,3522.65,420.25,889.33,875.89
1980,1085.36,3524.67,159.12,885.56,877.56
1982,1085.59,3526.68,226.91,883.44,873.89
1984,1085.83,3528.70,417.42,889.33,876.00
1986,1086.07,3530.71,162.99,879.00,871.67
1988,1086.31,3532.72,506.12,889.33,875.89
1990,1086.54,3534.73,298.70,880.67,870.89
1992,1086.78,3536.74,374.92,890.00,878.00
1994,1087.02,3538.74,94.04,881.67,875.67
1996,1087.25,3540.74,312.65,881.00,870.56
1998,1087.49,3542.74,226.58,882.56,874.33
2000,1087.73,3544.74,152.13,883.78,877.11
2002,1087.96,3546.74,241.04,881.44,873.22
2004,1088.20,3548.73,335.86,885.44,876.11
2006,1088.43,3550.72,448.77,882.89,872.22
2008,1088.67,3552.71,623.72,884.33,870.00
2010,1088.90,3554.69,395.12,882.56,870.78
2012,1089.14,3556.68,144.40,881.89,875.11
2014,1089.38,3558.66,39.12,879.22,875.00
2016,1089.61,3560.64,147.52,879.67,873.56
2018,1089.84,3562.62,245.64,883.78,876.33
2020,1090.08,3564.59,218.06,878.56,871.89
2022,1090.31,3566.56,209.88,876.67,870.33
2024,1090.55,3568.53,384.71,880.78,871.67
2026,1090.78,3570.50,279.03,875.33,867.22
2028,1091.02,3572.47,126.86,876.89,871.22
2030,1091.25,3574.43,243.90,878.22,870.33
2032,1091.48,3576.39,395.75,872.89,863.11
2034,1091.72,3578.35,299.90,874.89,867.22
2036,1091.95,3580.31,238.66,877.56,870.67
2038,1092.18,3582.26,190.81,872.00,865.67
2040,1092.42,3584.22,118.09,871.67,866.78
2042,1092.65,3586.17,329.47,876.11,869.00
2044,1092.88,3588.12,462.63,874.11,865.33
2046,1093.11,3590.06,344.57,872.67,861.00
2047,1093.23,3591.03,34.55,868.11,862.89