File: enlighten/plugins/Raman/MatchingLibrary/785X/diethylamine.csv
ENLIGHTEN Version,4.1.22
Measurement ID,20250220-201019-664913-WP-01977
Serial Number,WP-01977
Model,WP-785X-F13-R-ILC
Detector,S16011-1106
Label,diethylamine
Declared Match,
Declared Score,0
Scan Averaging,2
Boxcar,0
Technique,Raman
Baseline Correction Algo,AirPLS
ROI Pixel Start,47
ROI Pixel End,2047
ROI Start Line,0
ROI Stop Line,63
CCD C4,1.38617e-12
Slit Width,25
Cropped,True
Interpolated,False
Wavenumber Correction,-0.100481
Raman Intensity Corrected,True
Deconvolved,True
Region,
High Gain Mode,False
Laser Power mW,
Electrical Dark Correction,False
Battery %,
Device ID,<DeviceID USB:0x24aa:0x1000:0:1>
FW Version,10.0.0.10
FPGA Version,035-001
BLE Version,
Prefix,enlighten
Suffix,
Preset,
Auto-Raman,True
Session Count,0
Plugin Name,
Integration Time,573
Timestamp,2025-02-20 20:10:19.6649
Note,
Temperature,0
CCD C0,793.274
CCD C1,0.153259
CCD C2,1.40788e-05
CCD C3,-1.132e-08
CCD Offset,0
CCD Gain,1.9
CCD Offset Odd,0
CCD Gain Odd,1.9
Laser Wavelength,785.032
Laser Enable,False
Laser Power %,0
Laser Temperature,0
Pixel Count,2048

Pixel,Wavelength,Wavenumber,Processed,Raw,Dark
0,793.27,132.25,NA,1014.00,968.50
2,793.58,137.12,NA,1042.00,995.50
4,793.89,141.99,NA,1027.50,988.50
6,794.19,146.86,NA,1026.50,981.00
8,794.50,151.72,NA,1039.00,993.50
10,794.81,156.58,NA,1044.50,997.00
12,795.12,161.44,NA,1022.00,975.00
14,795.42,166.30,NA,1023.50,968.00
16,795.73,171.16,NA,1027.50,981.00
18,796.04,176.01,NA,1056.00,1011.00
20,796.35,180.86,NA,1051.50,998.00
22,796.65,185.71,NA,1086.00,1024.00
24,796.96,190.56,NA,1053.50,1001.00
26,797.27,195.41,NA,1082.00,1030.00
28,797.58,200.25,NA,1078.00,1008.50
30,797.88,205.09,NA,1060.00,993.50
32,798.19,209.93,NA,1070.00,995.00
34,798.50,214.77,NA,1070.00,997.00
36,798.81,219.60,NA,1075.00,989.50
38,799.12,224.43,NA,1127.00,1002.00
40,799.43,229.27,NA,1334.00,1018.00
42,799.74,234.09,NA,2108.00,1011.50
44,800.04,238.92,NA,3310.50,1045.50
46,800.35,243.75,NA,3779.00,1007.50
48,800.66,248.57,300.03,3912.50,1023.00
50,800.97,253.39,222.28,3845.00,1029.50
52,801.28,258.21,159.11,3785.00,1021.00
54,801.59,263.02,77.72,3661.50,1023.00
56,801.90,267.83,62.84,3604.50,1006.00
58,802.21,272.65,2.65,3543.00,1031.50
60,802.52,277.46,0.00,3511.00,1026.50
62,802.83,282.26,40.51,3571.00,1039.00
64,803.14,287.07,93.63,3626.50,1041.50
66,803.45,291.87,164.93,3684.00,1032.00
68,803.76,296.67,267.49,3797.50,1049.00
70,804.07,301.47,284.65,3766.50,1022.00
72,804.38,306.26,203.96,3641.50,1008.00
74,804.69,311.06,60.24,3504.00,1019.00
76,805.00,315.85,0.14,3371.00,1019.00
78,805.31,320.64,0.00,3338.50,1022.00
80,805.62,325.42,0.00,3315.50,1033.50
82,805.93,330.21,0.00,3292.50,1028.00
84,806.24,334.99,1.24,3308.50,994.00
86,806.55,339.77,90.09,3465.00,1017.00
88,806.86,344.55,254.12,3667.50,1029.00
90,807.17,349.32,489.13,4016.50,1016.00
92,807.48,354.10,939.65,4696.00,1016.00
94,807.80,358.87,1798.16,5884.00,1026.50
96,808.11,363.63,3040.70,7389.50,1022.00
98,808.42,368.40,3966.20,8458.00,1010.50
100,808.73,373.16,3976.33,8510.00,1007.50
102,809.04,377.93,3176.65,7597.00,998.00
104,809.35,382.68,2240.14,6417.50,1012.00
106,809.66,387.44,1560.14,5466.00,1027.50
108,809.98,392.19,1123.95,4793.00,994.50
110,810.29,396.95,985.85,4585.50,1024.00
112,810.60,401.70,1053.91,4638.50,1003.00
114,810.91,406.44,1330.99,5149.00,1011.50
116,811.22,411.19,1995.07,6679.00,1037.00
118,811.54,415.93,4198.88,11164.50,1025.00
120,811.85,420.67,12278.68,22119.00,1004.50
122,812.16,425.41,25210.97,33865.50,1006.50
124,812.47,430.14,19136.26,28997.00,1028.50
126,812.79,434.87,7176.56,15858.00,1003.00
128,813.10,439.60,3012.75,8607.00,985.00
130,813.41,444.33,1828.06,5912.50,1005.00
132,813.72,449.06,1228.21,4757.00,1001.50
134,814.04,453.78,866.32,4180.50,1015.00
136,814.35,458.50,704.98,3863.00,985.50
138,814.66,463.22,579.11,3663.50,992.00
140,814.98,467.93,551.66,3600.00,1004.50
142,815.29,472.65,592.99,3639.50,1003.00
144,815.60,477.36,682.06,3810.00,1012.00
146,815.92,482.06,920.06,4193.00,990.50
148,816.23,486.77,1461.18,5023.00,1012.50
150,816.54,491.47,2420.44,6239.00,1030.50
152,816.86,496.17,3105.08,6936.50,987.00
154,817.17,500.87,2673.94,6449.50,1012.00
156,817.48,505.57,1653.86,5171.50,994.00
158,817.80,510.26,809.45,3933.50,986.50
160,818.11,514.95,432.28,3266.50,1008.50
162,818.42,519.64,246.84,2918.50,1019.00
164,818.74,524.32,161.15,2727.50,1002.00
166,819.05,529.00,120.94,2622.50,1022.00
168,819.37,533.68,52.17,2500.00,1011.50
170,819.68,538.36,1.33,2397.50,1013.00
172,819.99,543.04,0.00,2321.50,1022.50
174,820.31,547.71,0.00,2244.50,996.00
176,820.62,552.38,0.00,2212.00,990.50
178,820.94,557.05,0.00,2199.50,1001.00
180,821.25,561.71,0.00,2155.00,979.00
182,821.57,566.37,7.41,2183.50,989.50
184,821.88,571.03,0.00,2165.50,1005.00
186,822.20,575.69,0.00,2136.00,1007.50
188,822.51,580.34,0.00,2110.50,991.00
190,822.83,584.99,0.00,2128.50,1007.00
192,823.14,589.64,8.57,2129.50,993.50
194,823.46,594.29,0.00,2099.50,997.00
196,823.77,598.93,0.00,2091.50,1001.00
198,824.09,603.57,1.19,2099.00,983.50
200,824.40,608.21,0.00,2113.50,1003.00
202,824.72,612.85,0.00,2097.00,1005.50
204,825.03,617.48,0.00,2122.50,1009.50
206,825.35,622.11,6.29,2140.00,1011.00
208,825.66,626.74,0.00,2126.00,1011.00
210,825.98,631.36,0.00,2099.50,998.00
212,826.29,635.99,0.00,2114.00,1001.00
214,826.61,640.61,0.00,2110.50,1014.00
216,826.92,645.22,0.00,2136.00,994.00
218,827.24,649.84,0.00,2150.50,987.00
220,827.56,654.45,0.00,2195.00,1002.50
222,827.87,659.06,0.00,2217.00,1011.50
224,828.19,663.67,7.96,2253.00,993.00
226,828.50,668.27,3.84,2333.00,1055.00
228,828.82,672.87,52.54,2383.00,1008.00
230,829.13,677.47,73.09,2426.50,1002.00
232,829.45,682.06,111.59,2528.50,1012.00
234,829.77,686.66,218.10,2817.00,1129.00
236,830.08,691.25,258.68,2793.50,999.00
238,830.40,695.83,369.91,3004.00,995.00
240,830.72,700.42,526.53,3265.00,1000.00
242,831.03,705.00,701.97,3507.00,960.00
244,831.35,709.58,799.56,3753.50,1003.00
246,831.66,714.15,912.67,3970.00,975.50
248,831.98,718.73,1110.06,4314.00,999.00
250,832.30,723.30,1334.51,4646.00,990.50
252,832.61,727.87,1437.62,4876.00,1016.00
254,832.93,732.43,1501.22,4938.50,963.00
256,833.25,736.99,1444.67,4945.50,1012.50
258,833.56,741.55,1394.38,4880.50,994.00
260,833.88,746.11,1358.40,4838.00,1001.00
262,834.20,750.66,1342.46,4819.00,996.00
264,834.51,755.22,1291.80,4775.00,1006.50
266,834.83,759.76,1280.69,4790.00,1007.50
268,835.15,764.31,1308.01,4914.50,1013.00
270,835.47,768.85,1470.99,5267.00,985.00
272,835.78,773.39,2023.39,6132.50,997.00
274,836.10,777.93,2801.94,7103.50,991.50
276,836.42,782.46,2802.37,7233.50,1009.50
278,836.73,787.00,2382.41,6817.50,1001.00
280,837.05,791.52,2238.61,6553.00,982.00
282,837.37,796.05,2181.69,6420.00,1002.00
284,837.69,800.57,2069.71,6232.00,985.00
286,838.00,805.09,1921.22,6060.00,997.00
288,838.32,809.61,1886.92,6040.50,997.00
290,838.64,814.13,1956.21,6166.50,1015.00
292,838.95,818.64,2050.82,6275.50,994.50
294,839.27,823.15,2179.44,6411.00,985.00
296,839.59,827.65,1989.19,6183.50,1004.00
298,839.91,832.15,1656.82,5730.00,987.00
300,840.22,836.65,1537.89,5602.50,1031.00
302,840.54,841.15,1499.65,5554.50,992.50
304,840.86,845.65,1680.86,5973.50,1020.50
306,841.18,850.14,2253.67,7009.50,1004.50
308,841.50,854.63,3186.32,8773.00,1057.00
310,841.81,859.11,4830.22,11381.50,1003.00
312,842.13,863.60,7005.19,14370.00,1002.00
314,842.45,868.07,7837.18,15609.50,991.00
316,842.77,872.55,6989.05,14880.50,1012.00
318,843.08,877.03,5972.74,13684.50,1036.00
320,843.40,881.50,5917.92,13378.00,974.00
322,843.72,885.97,6390.34,13741.50,1028.50
324,844.04,890.43,6200.01,13304.50,994.00
326,844.36,894.89,5138.98,11880.00,998.00
328,844.67,899.35,4151.21,10423.00,1017.00
330,844.99,903.81,3572.50,9437.50,981.00
332,845.31,908.26,3374.97,9107.00,1014.00
334,845.63,912.71,3605.14,9355.00,997.00
336,845.95,917.16,3801.71,9711.00,1006.50
338,846.27,921.61,4066.59,10412.50,1235.50
340,846.58,926.05,4416.74,10579.00,1000.00
342,846.90,930.49,4457.82,10428.50,1008.50
344,847.22,934.92,3523.04,9077.00,999.00
346,847.54,939.36,2185.34,7144.00,975.50
348,847.86,943.79,1289.51,5660.50,981.00
350,848.18,948.21,803.18,4730.00,974.50
352,848.49,952.64,516.79,4207.50,987.00
354,848.81,957.06,288.04,3792.50,966.00
356,849.13,961.48,157.79,3625.50,1026.50
358,849.45,965.89,26.76,3445.00,1016.00
360,849.77,970.31,0.17,3335.00,987.00
362,850.09,974.71,0.00,3269.50,998.00
364,850.40,979.12,0.00,3284.50,1016.00
366,850.72,983.52,0.00,3332.00,1031.50
368,851.04,987.92,0.00,3389.00,973.50
370,851.36,992.32,32.06,3569.50,977.00
372,851.68,996.72,138.78,3772.50,996.00
374,852.00,1001.11,360.11,4181.50,975.50
376,852.32,1005.50,696.92,4772.00,976.50
378,852.63,1009.88,1126.41,5627.50,1033.50
380,852.95,1014.26,1600.71,6576.50,1004.50
382,853.27,1018.64,2652.79,8198.00,1022.00
384,853.59,1023.02,3711.76,9687.00,989.50
386,853.91,1027.39,3818.26,10290.00,978.00
388,854.23,1031.76,4430.48,11461.00,991.50
390,854.55,1036.13,5134.45,12989.50,999.00
392,854.87,1040.49,6461.00,15485.00,989.50
394,855.18,1044.86,10070.10,19662.50,1006.50
396,855.50,1049.21,10657.26,20048.50,1008.50
398,855.82,1053.57,6517.65,15483.50,1010.50
400,856.14,1057.92,3944.82,11662.50,989.50
402,856.46,1062.27,3619.28,10485.50,993.00
404,856.78,1066.62,3960.87,10302.00,981.00
406,857.10,1070.96,3295.72,9353.00,980.00
408,857.42,1075.30,2198.65,8009.00,1013.50
410,857.74,1079.64,1629.98,7089.00,990.50
412,858.06,1083.97,1602.85,6934.50,987.50
414,858.37,1088.30,1803.62,7164.00,972.50
416,858.69,1092.63,2017.23,7473.50,971.00
418,859.01,1096.95,2161.59,7699.50,976.00
420,859.33,1101.27,2041.49,7651.00,987.00
422,859.65,1105.59,1883.14,7578.00,997.00
424,859.97,1109.91,2132.45,7999.50,974.50
426,860.29,1114.22,2649.38,8786.50,983.00
428,860.61,1118.53,3225.99,9733.00,981.00
430,860.93,1122.84,3754.37,10725.00,985.00
432,861.25,1127.14,4433.17,11891.50,1015.00
434,861.56,1131.44,5119.93,12977.50,981.00
436,861.88,1135.74,5789.67,13961.50,989.50
438,862.20,1140.03,6072.64,14246.50,999.00
440,862.52,1144.32,5555.46,13417.00,993.00
442,862.84,1148.61,4204.36,11505.00,1002.00
444,863.16,1152.89,2759.93,9341.00,988.50
446,863.48,1157.17,1674.62,7567.00,991.50
448,863.80,1161.45,999.37,6406.00,990.50
450,864.12,1165.73,585.62,5720.50,1005.00
452,864.44,1170.00,414.21,5404.00,982.00
454,864.76,1174.27,375.61,5366.50,990.50
456,865.07,1178.53,509.70,5649.00,977.00
458,865.39,1182.80,853.40,6363.00,1001.00
460,865.71,1187.06,1667.34,7698.00,993.00
462,866.03,1191.31,2778.20,9208.00,999.00
464,866.35,1195.57,3644.31,10212.50,989.50
466,866.67,1199.82,3124.51,9647.50,1000.00
468,866.99,1204.06,1878.79,8022.50,1003.00
470,867.31,1208.31,884.11,6514.00,999.00
472,867.63,1212.55,164.89,5500.50,998.00
474,867.95,1216.79,0.85,4957.50,971.50
476,868.27,1221.02,0.00,4807.00,990.00
478,868.58,1225.25,0.00,4829.00,970.00
480,868.90,1229.48,0.00,5045.50,995.00
482,869.22,1233.71,24.79,5356.00,1014.00
484,869.54,1237.93,311.55,5879.00,1018.00
486,869.86,1242.15,780.28,6759.00,995.00
488,870.18,1246.36,1636.44,8285.50,966.00
490,870.50,1250.58,3133.13,10441.00,991.50
492,870.82,1254.79,4293.67,12047.00,1032.00
494,871.14,1258.99,4395.56,12357.00,1006.00
496,871.46,1263.20,3690.39,11535.00,998.50
498,871.78,1267.40,2746.49,10242.50,983.00
500,872.10,1271.59,1914.87,9134.00,991.50
502,872.41,1275.79,1430.46,8465.50,978.00
504,872.73,1279.98,1519.37,8576.50,997.00
506,873.05,1284.17,2034.45,9143.50,995.00
508,873.37,1288.35,2210.76,9329.50,959.00
510,873.69,1292.53,1699.59,8887.00,985.00
512,874.01,1296.71,1269.98,8346.00,983.00
514,874.33,1300.88,1165.32,8122.00,965.00
516,874.65,1305.06,949.45,7857.50,994.50
518,874.97,1309.22,696.76,7555.00,973.50
520,875.29,1313.39,554.84,7452.00,993.50
522,875.60,1317.55,548.08,7537.00,990.50
524,875.92,1321.71,823.46,7981.50,991.50
526,876.24,1325.87,1279.77,8506.50,1013.00
528,876.56,1330.02,1197.31,8448.00,979.50
530,876.88,1334.17,633.52,7922.00,1000.00
532,877.20,1338.32,403.09,7644.50,971.50
534,877.52,1342.46,421.82,7649.50,966.00
536,877.84,1346.60,625.50,7925.00,1006.50
538,878.16,1350.73,771.79,8138.50,986.50
540,878.47,1354.87,1033.88,8526.00,985.00
542,878.79,1359.00,1246.94,8792.00,991.00
544,879.11,1363.13,1316.65,8882.00,999.00
546,879.43,1367.25,1138.82,8697.00,977.00
548,879.75,1371.37,1016.66,8606.00,982.00
550,880.07,1375.49,1084.88,8643.50,983.00
552,880.39,1379.60,1353.98,8942.00,990.00
554,880.71,1383.71,1313.74,8910.00,984.50
556,881.03,1387.82,1274.23,8872.50,977.00
558,881.34,1391.93,1283.12,8834.00,959.00
560,881.66,1396.03,1182.97,8722.00,970.50
562,881.98,1400.13,1091.20,8663.00,992.00
564,882.30,1404.22,1194.44,8829.50,995.00
566,882.62,1408.31,1410.96,9115.00,975.50
568,882.94,1412.40,1781.01,9700.50,996.00
570,883.26,1416.49,2161.36,10339.00,983.00
572,883.57,1420.57,2826.59,11497.50,1012.50
574,883.89,1424.65,3792.92,13169.00,978.00
576,884.21,1428.73,5454.22,16087.00,1014.50
578,884.53,1432.80,8513.51,20800.00,1016.00
580,884.85,1436.87,13095.26,27017.50,986.50
582,885.17,1440.93,17446.92,33091.00,963.00
584,885.49,1445.00,19974.36,37494.50,983.00
586,885.80,1449.06,22351.86,41227.00,980.00
588,886.12,1453.11,25099.89,44204.50,1021.00
590,886.44,1457.17,25678.16,43999.50,995.00
592,886.76,1461.22,21029.48,38317.50,1000.00
594,887.08,1465.26,15031.85,30782.50,1009.50
596,887.40,1469.31,11230.45,25132.00,983.00
598,887.71,1473.35,9497.47,22112.50,978.00
600,888.03,1477.38,9086.42,20974.50,994.00
602,888.35,1481.42,9481.50,20774.00,1022.00
604,888.67,1485.45,8866.23,19549.50,1003.00
606,888.99,1489.48,6567.06,16747.00,973.50
608,889.31,1493.50,4353.53,13790.50,1001.00
610,889.62,1497.52,3151.29,11855.50,997.00
612,889.94,1501.54,2326.60,10420.00,966.00
614,890.26,1505.56,1819.97,9573.00,974.00
616,890.58,1509.57,1365.89,8872.00,982.00
618,890.90,1513.57,1084.98,8421.00,975.00
620,891.21,1517.58,807.30,8020.50,990.50
622,891.53,1521.58,603.34,7683.50,988.00
624,891.85,1525.58,496.17,7479.50,982.50
626,892.17,1529.57,331.34,7260.00,992.50
628,892.49,1533.57,173.80,7018.00,988.00
630,892.80,1537.56,121.61,6874.50,976.00
632,893.12,1541.54,36.75,6701.00,969.00
634,893.44,1545.52,6.43,6555.00,1005.00
636,893.76,1549.50,3.83,6408.50,969.00
638,894.07,1553.48,0.00,6319.50,993.00
640,894.39,1557.45,0.00,6172.50,980.00
642,894.71,1561.42,0.00,6095.50,1000.00
644,895.03,1565.39,0.00,6023.50,964.00
646,895.34,1569.35,0.00,5938.00,1006.50
648,895.66,1573.31,34.65,5930.00,979.00
650,895.98,1577.26,0.00,5803.00,968.00
652,896.30,1581.22,0.01,5735.50,969.50
654,896.61,1585.17,0.00,5641.00,982.00
656,896.93,1589.11,0.00,5578.00,1008.50
658,897.25,1593.06,0.00,5529.50,962.00
660,897.57,1597.00,22.68,5552.50,984.50
662,897.88,1600.93,2.67,5456.50,981.00
664,898.20,1604.87,53.10,5485.50,982.50
666,898.52,1608.80,57.41,5417.00,969.00
668,898.84,1612.72,124.77,5437.00,964.00
670,899.15,1616.65,43.61,5350.50,1003.50
672,899.47,1620.57,59.23,5310.00,970.00
674,899.79,1624.49,115.00,5334.50,977.00
676,900.10,1628.40,153.85,5331.50,977.50
678,900.42,1632.31,270.07,5437.00,996.00
680,900.74,1636.22,318.42,5426.00,959.00
682,901.05,1640.12,319.93,5451.00,1013.00
684,901.37,1644.02,328.49,5363.50,977.00
686,901.69,1647.92,334.53,5340.00,994.00
688,902.00,1651.82,310.78,5253.00,969.00
690,902.32,1655.71,267.27,5152.50,970.50
692,902.64,1659.60,266.87,5084.50,969.00
694,902.95,1663.48,266.33,5069.50,997.00
696,903.27,1667.36,228.61,4955.50,974.00
698,903.59,1671.24,273.64,4981.00,1003.50
700,903.90,1675.11,270.71,4902.00,987.50
702,904.22,1678.99,227.02,4799.00,963.00
704,904.54,1682.85,161.58,4742.50,1025.50
706,904.85,1686.72,217.30,4680.00,965.00
708,905.17,1690.58,241.25,4671.00,980.00
710,905.49,1694.44,172.97,4540.50,971.00
712,905.80,1698.29,217.16,4548.00,969.00
714,906.12,1702.15,192.83,4485.50,981.00
716,906.43,1706.00,204.17,4456.00,990.00
718,906.75,1709.84,176.33,4387.00,1006.00
720,907.07,1713.68,132.55,4252.00,972.50
722,907.38,1717.52,119.28,4204.00,990.50
724,907.70,1721.36,71.37,4093.50,982.00
726,908.01,1725.19,37.20,4017.00,989.50
728,908.33,1729.02,36.64,3963.50,985.00
730,908.65,1732.85,28.57,3896.00,983.00
732,908.96,1736.67,41.08,3884.50,987.50
734,909.28,1740.49,7.42,3793.50,985.00
736,909.59,1744.30,10.87,3760.50,997.00
738,909.91,1748.12,67.48,3749.00,972.00
740,910.22,1751.93,27.21,3682.50,990.00
742,910.54,1755.73,34.06,3695.00,1035.00
744,910.85,1759.54,4.74,3593.00,995.50
746,911.17,1763.34,0.00,3500.50,976.50
748,911.49,1767.13,0.00,3460.50,988.50
750,911.80,1770.93,0.00,3418.00,974.00
752,912.12,1774.72,0.00,3417.50,996.00
754,912.43,1778.50,0.00,3338.00,968.00
756,912.75,1782.29,0.00,3323.50,967.00
758,913.06,1786.07,0.00,3290.50,965.00
760,913.38,1789.84,0.00,3287.00,981.00
762,913.69,1793.62,34.39,3312.50,997.00
764,914.01,1797.39,0.00,3229.50,981.00
766,914.32,1801.15,0.97,3207.00,973.50
768,914.64,1804.92,13.30,3194.50,972.50
770,914.95,1808.68,0.00,3154.50,982.00
772,915.26,1812.44,0.00,3140.50,989.50
774,915.58,1816.19,3.67,3103.50,958.50
776,915.89,1819.94,7.52,3108.00,986.00
778,916.21,1823.69,23.41,3115.00,993.00
780,916.52,1827.43,34.55,3122.50,1011.00
782,916.84,1831.17,52.03,3082.50,969.00
784,917.15,1834.91,71.44,3072.00,965.00
786,917.47,1838.64,70.59,3075.00,986.00
788,917.78,1842.38,75.37,3055.00,974.50
790,918.09,1846.10,69.59,3030.50,979.00
792,918.41,1849.83,78.36,3009.50,977.50
794,918.72,1853.55,108.77,3006.00,961.00
796,919.04,1857.27,89.78,2990.50,979.00
798,919.35,1860.98,79.50,2955.50,980.00
800,919.66,1864.69,157.49,3004.50,970.00
802,919.98,1868.40,147.34,2984.50,981.00
804,920.29,1872.11,134.27,2955.50,975.50
806,920.60,1875.81,128.34,2919.00,970.00
808,920.92,1879.51,160.42,2927.00,969.50
810,921.23,1883.20,149.71,2912.50,987.50
812,921.55,1886.90,147.34,2864.00,961.00
814,921.86,1890.58,168.47,2896.50,992.50
816,922.17,1894.27,150.91,2870.00,1006.00
818,922.49,1897.95,117.53,2800.50,992.00
820,922.80,1901.63,171.69,2819.50,977.00
822,923.11,1905.31,129.38,2751.00,978.00
824,923.42,1908.98,162.92,2782.50,985.00
826,923.74,1912.65,131.76,2733.00,989.00
828,924.05,1916.31,149.55,2722.50,984.00
830,924.36,1919.98,147.38,2689.00,975.50
832,924.68,1923.64,147.66,2658.50,964.00
834,924.99,1927.29,159.88,2657.00,971.50
836,925.30,1930.94,149.22,2606.00,952.50
838,925.61,1934.59,161.75,2614.50,972.50
840,925.93,1938.24,152.23,2591.00,970.00
842,926.24,1941.88,106.89,2527.50,974.50
844,926.55,1945.52,121.67,2521.50,975.50
846,926.86,1949.16,122.77,2507.50,982.50
848,927.18,1952.79,147.98,2488.50,965.50
850,927.49,1956.42,114.45,2448.50,975.00
852,927.80,1960.05,126.99,2470.50,996.00
854,928.11,1963.67,116.73,2419.50,979.50
856,928.42,1967.29,119.09,2407.00,986.50
858,928.74,1970.91,105.88,2366.00,982.00
860,929.05,1974.52,123.98,2351.50,965.50
862,929.36,1978.13,70.30,2281.50,969.00
864,929.67,1981.74,87.01,2285.00,981.00
866,929.98,1985.35,57.71,2229.00,976.00
868,930.29,1988.95,23.10,2198.50,997.00
870,930.61,1992.54,17.69,2144.50,966.00
872,930.92,1996.14,5.16,2121.00,977.50
874,931.23,1999.73,17.58,2119.00,983.00
876,931.54,2003.32,17.89,2108.50,988.00
878,931.85,2006.90,2.71,2068.50,982.00
880,932.16,2010.48,14.73,2057.50,975.50
882,932.47,2014.06,0.00,2021.50,978.00
884,932.78,2017.63,37.55,2046.00,983.00
886,933.09,2021.21,27.64,2006.00,970.50
888,933.41,2024.77,6.89,2002.50,994.50
890,933.72,2028.34,0.48,1985.50,1006.00
892,934.03,2031.90,0.00,1942.00,984.00
894,934.34,2035.46,11.83,1943.50,990.50
896,934.65,2039.01,8.48,1899.00,966.00
898,934.96,2042.57,1.91,1898.00,986.00
900,935.27,2046.11,3.71,1901.00,999.00
902,935.58,2049.66,0.00,1829.00,955.50
904,935.89,2053.20,12.26,1858.00,986.00
906,936.20,2056.74,0.00,1811.50,987.50
908,936.51,2060.28,31.43,1845.50,984.00
910,936.82,2063.81,46.72,1853.00,985.50
912,937.13,2067.34,13.86,1808.00,985.50
914,937.44,2070.86,39.76,1804.00,973.50
916,937.75,2074.39,18.32,1763.00,964.00
918,938.06,2077.91,23.54,1771.00,976.00
920,938.37,2081.42,48.87,1779.50,979.50
922,938.68,2084.94,67.88,1764.00,966.00
924,938.99,2088.45,44.23,1745.50,978.00
926,939.30,2091.95,31.13,1738.50,991.00
928,939.60,2095.46,17.34,1697.50,970.50
930,939.91,2098.96,10.80,1705.00,1003.00
932,940.22,2102.45,9.87,1662.50,979.00
934,940.53,2105.95,4.95,1640.00,971.50
936,940.84,2109.44,0.23,1624.50,972.50
938,941.15,2112.92,0.00,1614.50,980.00
940,941.46,2116.41,6.35,1599.00,964.00
942,941.77,2119.89,0.00,1593.00,986.00
944,942.07,2123.37,0.00,1580.00,977.00
946,942.38,2126.84,5.72,1592.00,986.00
948,942.69,2130.31,0.00,1579.00,995.50
950,943.00,2133.78,0.00,1555.00,971.50
952,943.31,2137.24,0.00,1555.50,991.50
954,943.62,2140.70,0.09,1574.50,990.50
956,943.92,2144.16,5.67,1572.50,980.00
958,944.23,2147.62,18.73,1581.00,987.50
960,944.54,2151.07,14.08,1596.50,1005.00
962,944.85,2154.52,7.18,1606.50,1016.00
964,945.16,2157.96,14.93,1586.50,989.50
966,945.46,2161.40,45.70,1603.00,987.50
968,945.77,2164.84,49.72,1568.50,952.50
970,946.08,2168.28,63.91,1600.50,973.50
972,946.39,2171.71,56.59,1599.50,975.50
974,946.69,2175.14,45.92,1596.00,982.00
976,947.00,2178.57,87.84,1621.50,972.50
978,947.31,2181.99,110.23,1623.00,960.00
980,947.61,2185.41,142.10,1654.00,974.50
982,947.92,2188.82,126.33,1652.50,984.00
984,948.23,2192.24,86.05,1613.00,970.50
986,948.53,2195.65,86.65,1614.50,976.00
988,948.84,2199.05,74.82,1568.50,944.00
990,949.15,2202.46,68.98,1600.00,980.00
992,949.45,2205.86,82.57,1600.00,972.50
994,949.76,2209.25,90.95,1588.50,959.50
996,950.07,2212.65,97.72,1603.50,970.00
998,950.37,2216.04,89.04,1583.00,956.00
1000,950.68,2219.43,107.07,1617.00,972.50
1002,950.98,2222.81,121.63,1646.50,992.50
1004,951.29,2226.19,163.12,1649.00,965.00
1006,951.60,2229.57,172.34,1656.00,963.00
1008,951.90,2232.94,223.51,1700.50,964.00
1010,952.21,2236.32,264.44,1733.50,972.50
1012,952.51,2239.68,304.34,1778.50,986.00
1014,952.82,2243.05,331.54,1768.00,949.00
1016,953.12,2246.41,321.72,1821.00,1007.50
1018,953.43,2249.77,371.05,1864.50,1015.00
1020,953.73,2253.12,395.10,1862.00,1004.00
1022,954.04,2256.48,417.96,1833.50,956.50
1024,954.34,2259.83,396.87,1859.00,995.00
1026,954.65,2263.17,446.12,1872.00,968.50
1028,954.95,2266.51,441.38,1874.50,982.00
1030,955.26,2269.85,495.99,1925.50,996.00
1032,955.56,2273.19,482.95,1905.50,998.00
1034,955.87,2276.52,508.09,1915.00,991.00
1036,956.17,2279.85,423.12,1862.50,999.00
1038,956.48,2283.18,370.93,1781.50,963.00
1040,956.78,2286.50,346.29,1754.50,959.00
1042,957.08,2289.82,286.58,1699.50,951.00
1044,957.39,2293.14,270.42,1708.00,979.00
1046,957.69,2296.45,239.65,1657.00,962.00
1048,957.99,2299.76,231.44,1690.00,1003.00
1050,958.30,2303.07,210.75,1657.50,985.00
1052,958.60,2306.38,200.88,1629.50,975.00
1054,958.91,2309.68,194.42,1620.50,981.00
1056,959.21,2312.98,137.73,1560.50,956.00
1058,959.51,2316.27,85.94,1542.00,974.00
1060,959.82,2319.56,84.26,1560.00,1001.00
1062,960.12,2322.85,84.50,1512.50,963.00
1064,960.42,2326.14,50.89,1490.50,967.50
1066,960.72,2329.42,44.36,1499.00,980.50
1068,961.03,2332.70,27.74,1489.50,981.00
1070,961.33,2335.97,0.00,1463.00,986.00
1072,961.63,2339.25,15.37,1452.00,963.00
1074,961.93,2342.52,3.58,1460.00,982.00
1076,962.24,2345.78,16.77,1470.00,983.00
1078,962.54,2349.05,3.30,1452.00,977.00
1080,962.84,2352.31,19.40,1457.50,974.00
1082,963.14,2355.56,17.34,1446.00,966.00
1084,963.45,2358.82,0.00,1440.50,973.50
1086,963.75,2362.07,0.00,1450.00,985.50
1088,964.05,2365.32,8.20,1478.50,1006.00
1090,964.35,2368.56,26.97,1460.50,976.00
1092,964.65,2371.80,20.21,1472.00,991.00
1094,964.95,2375.04,0.00,1457.50,992.00
1096,965.25,2378.27,30.53,1453.50,967.00
1098,965.56,2381.51,21.30,1471.00,991.00
1100,965.86,2384.73,21.60,1469.50,986.00
1102,966.16,2387.96,6.14,1444.00,973.00
1104,966.46,2391.18,22.29,1481.00,998.00
1106,966.76,2394.40,32.40,1455.00,967.00
1108,967.06,2397.62,24.60,1472.50,991.00
1110,967.36,2400.83,31.07,1457.50,970.50
1112,967.66,2404.04,25.45,1484.00,999.00
1114,967.96,2407.25,9.83,1439.50,963.00
1116,968.26,2410.45,7.00,1469.00,992.50
1118,968.56,2413.65,37.07,1469.00,968.00
1120,968.86,2416.85,65.41,1514.50,1005.50
1122,969.16,2420.04,75.46,1499.50,982.00
1124,969.46,2423.23,65.63,1488.00,971.50
1126,969.76,2426.42,66.77,1501.00,983.00
1128,970.06,2429.60,74.96,1480.50,956.50
1130,970.36,2432.79,76.00,1503.00,977.50
1132,970.66,2435.96,78.54,1494.50,972.50
1134,970.96,2439.14,56.23,1487.00,979.50
1136,971.26,2442.31,49.67,1492.50,983.00
1138,971.56,2445.48,20.30,1471.50,981.00
1140,971.86,2448.65,18.20,1470.00,968.00
1142,972.16,2451.81,0.00,1457.50,985.00
1144,972.45,2454.97,0.00,1451.00,976.50
1146,972.75,2458.13,10.13,1470.00,982.00
1148,973.05,2461.28,0.99,1456.00,968.00
1150,973.35,2464.43,0.00,1472.00,983.00
1152,973.65,2467.58,0.00,1468.00,975.00
1154,973.95,2470.72,0.00,1481.00,976.00
1156,974.24,2473.86,0.00,1480.50,976.50
1158,974.54,2477.00,0.00,1482.50,958.50
1160,974.84,2480.13,0.00,1526.50,986.50
1162,975.14,2483.27,0.15,1536.50,974.00
1164,975.43,2486.40,0.00,1526.50,963.00
1166,975.73,2489.52,34.97,1594.50,974.00
1168,976.03,2492.64,13.51,1596.50,973.50
1170,976.33,2495.76,36.51,1651.00,989.50
1172,976.62,2498.88,89.05,1664.50,962.00
1174,976.92,2501.99,136.07,1728.00,989.50
1176,977.22,2505.10,147.18,1750.00,989.00
1178,977.51,2508.21,175.66,1776.00,982.50
1180,977.81,2511.31,129.92,1768.50,975.50
1182,978.11,2514.41,99.06,1774.00,979.50
1184,978.40,2517.51,90.85,1791.50,985.00
1186,978.70,2520.61,54.44,1784.00,988.00
1188,979.00,2523.70,136.65,1834.50,988.50
1190,979.29,2526.79,94.87,1817.00,977.00
1192,979.59,2529.87,39.24,1812.50,979.00
1194,979.88,2532.95,22.26,1800.50,962.00
1196,980.18,2536.03,16.94,1841.00,990.50
1198,980.48,2539.11,7.41,1876.00,1012.50
1200,980.77,2542.18,0.00,1844.00,982.00
1202,981.07,2545.25,8.76,1903.50,1004.00
1204,981.36,2548.32,90.37,1940.00,973.50
1206,981.66,2551.38,117.30,1982.50,1007.00
1208,981.95,2554.44,188.04,2010.00,975.00
1210,982.25,2557.50,256.50,2101.00,1009.00
1212,982.54,2560.56,387.89,2159.50,991.50
1214,982.84,2563.61,475.95,2233.00,1019.00
1216,983.13,2566.66,552.73,2252.00,998.00
1218,983.43,2569.70,539.58,2256.00,993.50
1220,983.72,2572.74,361.18,2204.00,1000.00
1222,984.01,2575.78,207.12,2141.50,1000.00
1224,984.31,2578.82,175.68,2102.00,966.00
1226,984.60,2581.85,110.83,2109.50,986.50
1228,984.90,2584.88,21.73,2061.00,980.00
1230,985.19,2587.91,60.96,2105.50,985.00
1232,985.48,2590.93,58.73,2119.00,1004.50
1234,985.78,2593.96,58.09,2115.50,995.00
1236,986.07,2596.97,48.05,2134.50,988.50
1238,986.36,2599.99,0.00,2142.00,1021.00
1240,986.66,2603.00,0.00,2132.00,1010.00
1242,986.95,2606.01,0.00,2135.00,999.00
1244,987.24,2609.01,0.00,2136.00,995.50
1246,987.54,2612.02,0.00,2103.00,956.50
1248,987.83,2615.02,0.00,2201.50,995.00
1250,988.12,2618.01,0.00,2271.00,1007.50
1252,988.41,2621.01,0.35,2339.50,999.00
1254,988.71,2624.00,32.98,2424.50,981.00
1256,989.00,2626.99,224.76,2573.50,1004.00
1258,989.29,2629.97,493.22,2725.00,994.50
1260,989.58,2632.95,782.00,2930.00,994.00
1262,989.87,2635.93,1255.32,3189.50,1000.00
1264,990.16,2638.91,1961.16,3470.00,986.00
1266,990.46,2641.88,2424.26,3658.00,1007.50
1268,990.75,2644.85,2482.95,3705.50,1025.50
1270,991.04,2647.81,1884.66,3505.00,992.00
1272,991.33,2650.78,862.63,3254.00,989.50
1274,991.62,2653.74,136.33,3046.50,995.00
1276,991.91,2656.70,1.14,2871.00,989.00
1278,992.20,2659.65,0.00,2814.00,1002.00
1280,992.49,2662.60,0.00,2832.00,981.00
1282,992.78,2665.55,0.00,2969.50,1025.00
1284,993.07,2668.50,0.00,3079.00,1021.00
1286,993.36,2671.44,0.00,3208.00,1011.00
1288,993.65,2674.38,86.84,3432.50,1009.50
1290,993.94,2677.31,475.49,3612.00,997.00
1292,994.23,2680.25,823.81,3782.00,1001.50
1294,994.52,2683.18,965.07,3921.50,1006.50
1296,994.81,2686.10,764.35,3963.50,1003.00
1298,995.10,2689.03,410.27,3962.50,998.00
1300,995.39,2691.95,82.10,3928.00,1000.00
1302,995.68,2694.87,10.87,4012.00,1020.00
1304,995.97,2697.78,0.00,4020.50,1017.00
1306,996.26,2700.70,0.00,4043.00,991.00
1308,996.55,2703.61,0.00,4133.50,996.00
1310,996.84,2706.51,0.00,4361.50,1009.50
1312,997.13,2709.42,44.35,4688.00,1005.50
1314,997.41,2712.32,721.98,5197.50,1015.00
1316,997.70,2715.21,2820.50,5830.50,1000.00
1318,997.99,2718.11,4761.40,6302.50,1001.00
1320,998.28,2721.00,4814.64,6440.50,991.50
1322,998.57,2723.89,2467.64,6117.00,1019.00
1324,998.86,2726.77,649.68,5682.00,989.50
1326,999.14,2729.66,103.02,5455.50,995.50
1328,999.43,2732.54,54.99,5493.50,996.00
1330,999.72,2735.41,237.10,5719.50,999.00
1332,1000.01,2738.29,1074.71,6153.50,1011.00
1334,1000.29,2741.16,2451.94,6595.00,1004.50
1336,1000.58,2744.03,3681.44,6958.50,996.50
1338,1000.87,2746.89,4482.28,7248.00,1020.00
1340,1001.15,2749.75,3884.45,7157.50,993.50
1342,1001.44,2752.61,2193.44,6870.00,998.00
1344,1001.73,2755.47,771.03,6539.00,989.50
1346,1002.01,2758.32,253.01,6380.50,997.00
1348,1002.30,2761.17,361.42,6517.00,1015.00
1350,1002.59,2764.02,1145.35,6840.50,1024.00
1352,1002.87,2766.86,2881.96,7276.50,1004.00
1354,1003.16,2769.70,4926.79,7742.00,998.00
1356,1003.44,2772.54,6644.00,8150.50,985.00
1358,1003.73,2775.38,7460.32,8413.50,1004.00
1360,1004.01,2778.21,6994.97,8328.00,988.00
1362,1004.30,2781.04,6466.38,8233.00,992.00
1364,1004.58,2783.87,6754.84,8337.50,999.00
1366,1004.87,2786.69,7825.83,8594.00,973.50
1368,1005.15,2789.51,9222.82,8989.50,1007.50
1370,1005.44,2792.33,11034.76,9507.00,1014.00
1372,1005.72,2795.14,12974.76,10074.50,1020.00
1374,1006.01,2797.95,15233.28,10775.00,1024.50
1376,1006.29,2800.76,17465.89,11456.50,991.50
1378,1006.58,2803.57,19881.18,12241.00,1042.00
1380,1006.86,2806.37,23376.96,13169.00,1004.00
1382,1007.14,2809.17,27123.47,14087.50,999.00
1384,1007.43,2811.97,30310.72,14832.50,995.00
1386,1007.71,2814.77,31446.03,15059.50,1001.00
1388,1008.00,2817.56,31436.98,15002.50,987.00
1390,1008.28,2820.35,29995.11,14577.00,1014.50
1392,1008.56,2823.13,28072.04,13962.50,987.00
1394,1008.85,2825.91,25435.80,13155.50,1005.00
1396,1009.13,2828.69,23400.47,12449.50,1001.50
1398,1009.41,2831.47,22182.36,11967.50,1019.00
1400,1009.69,2834.24,20768.71,11391.50,987.50
1402,1009.98,2837.02,19451.00,10935.50,1001.00
1404,1010.26,2839.78,18245.05,10528.00,1016.00
1406,1010.54,2842.55,17595.80,10237.00,989.50
1408,1010.82,2845.31,16998.02,10019.50,1008.50
1410,1011.11,2848.07,16840.75,9949.50,1012.50
1412,1011.39,2850.83,17383.61,10116.50,1018.00
1414,1011.67,2853.58,18818.93,10569.00,1014.00
1416,1011.95,2856.33,21479.06,11394.00,1005.00
1418,1012.23,2859.08,26282.48,12774.00,1000.00
1420,1012.51,2861.83,34434.58,14864.50,989.50
1422,1012.80,2864.57,45071.61,17354.00,1038.00
1424,1013.08,2867.31,55823.69,19612.00,1026.00
1426,1013.36,2870.04,64094.78,21330.00,1018.00
1428,1013.64,2872.78,66657.24,21931.00,1010.50
1430,1013.92,2875.51,64264.09,21624.50,1035.00
1432,1014.20,2878.24,59635.47,20743.00,1016.00
1434,1014.48,2880.96,56010.91,19885.50,1002.00
1436,1014.76,2883.68,55443.75,19489.50,981.00
1438,1015.04,2886.40,57389.14,19568.00,994.00
1440,1015.32,2889.12,58861.26,19576.50,1022.00
1442,1015.60,2891.83,58011.98,19165.00,998.00
1444,1015.88,2894.54,56607.42,18836.50,1023.00
1446,1016.16,2897.25,54508.25,18276.00,985.50
1448,1016.44,2899.96,53674.36,18037.50,1014.00
1450,1016.72,2902.66,53327.99,17852.50,1002.50
1452,1017.00,2905.36,54415.46,18098.00,1036.50
1454,1017.28,2908.06,56428.83,18503.50,1000.00
1456,1017.55,2910.75,60372.46,19358.50,1024.00
1458,1017.83,2913.44,67226.17,20699.50,998.00
1460,1018.11,2916.13,75436.56,22229.00,1003.50
1462,1018.39,2918.81,82925.53,23574.50,1006.00
1464,1018.67,2921.49,87532.03,24391.50,1003.00
1466,1018.95,2924.17,89645.95,24781.50,1011.50
1468,1019.22,2926.85,89396.53,24626.00,1021.50
1470,1019.50,2929.52,88251.20,24145.00,997.00
1472,1019.78,2932.20,85253.98,23225.00,985.50
1474,1020.06,2934.86,80473.81,22010.00,999.00
1476,1020.33,2937.53,73860.36,20501.50,1029.50
1478,1020.61,2940.19,66432.28,18802.50,1017.00
1480,1020.89,2942.85,59527.84,17222.00,1019.00
1482,1021.17,2945.51,53809.99,15869.50,1010.50
1484,1021.44,2948.16,49445.99,14812.00,1009.50
1486,1021.72,2950.81,46096.92,13985.50,1002.50
1488,1022.00,2953.46,44221.26,13513.50,1027.00
1490,1022.27,2956.11,45060.57,13542.00,1005.50
1492,1022.55,2958.75,46903.75,13740.50,1034.00
1494,1022.82,2961.39,50581.82,14189.50,1000.00
1496,1023.10,2964.03,53725.04,14587.00,1037.00
1498,1023.38,2966.66,55789.83,14724.50,995.00
1500,1023.65,2969.29,55854.34,14556.50,1021.00
1502,1023.93,2971.92,53866.80,14010.00,1022.00
1504,1024.20,2974.55,48818.41,12947.00,1014.00
1506,1024.48,2977.17,42035.53,11643.50,1008.50
1508,1024.75,2979.79,34054.25,10131.50,989.00
1510,1025.03,2982.41,26325.36,8649.50,1001.00
1512,1025.30,2985.02,20451.96,7424.50,983.50
1514,1025.58,2987.63,16098.68,6500.50,1008.00
1516,1025.85,2990.24,12535.76,5688.50,989.50
1518,1026.13,2992.85,9793.30,5098.50,1014.50
1520,1026.40,2995.45,7601.44,4600.50,1006.50
1522,1026.68,2998.05,5781.55,4192.00,1001.00
1524,1026.95,3000.65,4074.32,3841.00,1017.00
1526,1027.22,3003.25,2777.01,3552.50,996.00
1528,1027.50,3005.84,1605.64,3308.50,986.50
1530,1027.77,3008.43,834.56,3151.00,1006.50
1532,1028.04,3011.02,307.57,2974.50,1015.50
1534,1028.32,3013.60,79.14,2815.50,1001.00
1536,1028.59,3016.18,0.00,2651.50,1021.00
1538,1028.86,3018.76,0.00,2528.00,965.00
1540,1029.14,3021.34,0.00,2440.00,998.00
1542,1029.41,3023.91,0.00,2353.50,991.50
1544,1029.68,3026.48,0.00,2235.00,981.00
1546,1029.95,3029.05,0.00,2166.50,1008.00
1548,1030.22,3031.61,0.00,2113.50,988.50
1550,1030.50,3034.17,0.00,2027.00,995.50
1552,1030.77,3036.73,0.00,1997.50,991.50
1554,1031.04,3039.29,0.00,1941.50,1013.50
1556,1031.31,3041.84,0.00,1881.50,975.50
1558,1031.58,3044.39,0.00,1893.00,1026.00
1560,1031.85,3046.94,0.00,1822.00,1011.50
1562,1032.13,3049.49,0.00,1769.50,991.50
1564,1032.40,3052.03,11.39,1772.00,1009.50
1566,1032.67,3054.57,38.25,1714.00,978.00
1568,1032.94,3057.11,0.00,1705.50,1030.00
1570,1033.21,3059.64,77.91,1652.00,968.50
1572,1033.48,3062.18,0.00,1649.00,1017.00
1574,1033.75,3064.70,0.00,1644.50,1019.00
1576,1034.02,3067.23,0.00,1601.50,1015.00
1578,1034.29,3069.75,0.00,1552.50,975.50
1580,1034.56,3072.28,0.00,1564.00,1007.50
1582,1034.83,3074.79,0.00,1528.00,979.00
1584,1035.10,3077.31,0.00,1536.50,1009.50
1586,1035.37,3079.82,42.27,1512.50,987.00
1588,1035.64,3082.33,8.03,1535.00,1027.50
1590,1035.91,3084.84,30.58,1509.50,1011.50
1592,1036.17,3087.34,30.27,1477.50,992.00
1594,1036.44,3089.85,15.14,1493.50,1023.00
1596,1036.71,3092.35,80.53,1464.00,996.00
1598,1036.98,3094.84,0.00,1414.50,981.00
1600,1037.25,3097.34,184.25,1440.00,980.00
1602,1037.52,3099.83,37.77,1428.00,994.00
1604,1037.78,3102.32,53.87,1428.00,1000.00
1606,1038.05,3104.80,135.32,1446.00,1017.00
1608,1038.32,3107.29,83.79,1404.00,989.50
1610,1038.59,3109.77,23.84,1396.00,998.00
1612,1038.85,3112.24,72.87,1386.50,991.50
1614,1039.12,3114.72,111.38,1395.00,1006.50
1616,1039.39,3117.19,86.78,1356.50,976.00
1618,1039.66,3119.66,10.92,1380.00,1015.00
1620,1039.92,3122.13,0.00,1367.00,1019.00
1622,1040.19,3124.59,0.00,1348.00,1001.00
1624,1040.45,3127.05,0.00,1324.50,982.00
1626,1040.72,3129.51,0.00,1332.00,1011.50
1628,1040.99,3131.97,0.00,1351.00,1018.00
1630,1041.25,3134.42,143.51,1368.00,1022.00
1632,1041.52,3136.87,75.76,1315.00,980.00
1634,1041.78,3139.32,269.24,1342.50,989.50
1636,1042.05,3141.77,0.35,1385.00,1060.00
1638,1042.32,3144.21,29.94,1330.50,999.00
1640,1042.58,3146.65,0.00,1339.00,1033.00
1642,1042.85,3149.09,9.48,1334.00,1010.00
1644,1043.11,3151.52,66.78,1323.00,993.00
1646,1043.38,3153.96,31.87,1338.50,1013.00
1648,1043.64,3156.39,31.81,1324.00,998.00
1650,1043.90,3158.81,213.52,1337.00,994.00
1652,1044.17,3161.24,33.43,1338.00,1010.50
1654,1044.43,3163.66,60.22,1329.00,997.00
1656,1044.70,3166.08,0.00,1361.50,1038.00
1658,1044.96,3168.49,6.28,1335.00,1006.50
1660,1045.22,3170.91,79.42,1334.00,995.00
1662,1045.49,3173.32,164.12,1339.50,997.00
1664,1045.75,3175.73,70.47,1353.00,1016.00
1666,1046.01,3178.13,10.63,1329.50,996.00
1668,1046.28,3180.54,0.00,1345.50,1016.00
1670,1046.54,3182.94,41.65,1363.50,1020.00
1672,1046.80,3185.34,0.00,1341.50,1012.00
1674,1047.07,3187.73,27.53,1333.50,991.50
1676,1047.33,3190.12,0.00,1343.50,1006.00
1678,1047.59,3192.51,191.40,1370.00,1009.50
1680,1047.85,3194.90,72.37,1393.00,1037.00
1682,1048.11,3197.29,132.88,1384.50,1018.00
1684,1048.38,3199.67,123.10,1380.50,1014.00
1686,1048.64,3202.05,104.55,1394.00,1026.50
1688,1048.90,3204.43,195.37,1384.50,1006.00
1690,1049.16,3206.80,109.24,1378.50,1005.50
1692,1049.42,3209.17,125.70,1394.50,1017.00
1694,1049.68,3211.54,223.93,1391.00,999.00
1696,1049.94,3213.91,37.12,1386.50,1008.50
1698,1050.20,3216.27,16.86,1395.50,1017.00
1700,1050.46,3218.63,256.10,1425.50,1027.50
1702,1050.72,3220.99,100.82,1405.50,1015.00
1704,1050.98,3223.35,26.67,1409.00,1021.00
1706,1051.24,3225.70,136.65,1408.00,1002.00
1708,1051.50,3228.05,24.86,1385.00,993.00
1710,1051.76,3230.40,281.90,1437.50,1024.50
1712,1052.02,3232.75,317.17,1420.50,1006.50
1714,1052.28,3235.09,117.41,1432.00,1029.50
1716,1052.54,3237.43,148.25,1416.00,1008.50
1718,1052.80,3239.77,240.15,1424.00,1011.50
1720,1053.06,3242.11,570.12,1443.50,1012.00
1722,1053.32,3244.44,705.21,1433.00,995.00
1724,1053.58,3246.77,659.77,1475.50,1042.00
1726,1053.84,3249.10,882.65,1462.00,1014.50
1728,1054.10,3251.42,1408.79,1486.00,1006.00
1730,1054.35,3253.75,1375.43,1473.50,1002.50
1732,1054.61,3256.07,1546.32,1508.50,1028.50
1734,1054.87,3258.39,1952.53,1512.50,1005.00
1736,1055.13,3260.70,1727.54,1494.50,1005.00
1738,1055.38,3263.01,2210.36,1525.00,1005.50
1740,1055.64,3265.32,2611.80,1541.00,1003.00
1742,1055.90,3267.63,3042.87,1540.00,981.00
1744,1056.16,3269.94,3018.70,1582.00,1027.50
1746,1056.41,3272.24,3034.88,1586.50,1031.50
1748,1056.67,3274.54,3289.84,1576.50,1006.00
1750,1056.93,3276.84,3555.83,1597.00,1013.50
1752,1057.18,3279.13,3710.26,1596.00,1010.50
1754,1057.44,3281.42,4266.58,1614.50,1001.00
1756,1057.69,3283.71,4602.44,1629.00,999.00
1758,1057.95,3286.00,4484.58,1654.00,1035.00
1760,1058.21,3288.28,5088.44,1647.50,995.00
1762,1058.46,3290.57,5426.83,1693.50,1025.00
1764,1058.72,3292.85,5699.01,1696.50,1013.50
1766,1058.97,3295.12,5880.46,1689.00,997.00
1768,1059.23,3297.40,6393.98,1723.00,1006.50
1770,1059.48,3299.67,7493.76,1795.50,1024.50
1772,1059.74,3301.94,8404.31,1802.50,989.50
1774,1059.99,3304.21,8777.31,1854.00,1027.50
1776,1060.25,3306.47,10002.12,1934.00,1043.00
1778,1060.50,3308.73,10666.85,1917.00,997.00
1780,1060.76,3310.99,11289.23,1945.50,1004.50
1782,1061.01,3313.25,12461.53,2001.50,1015.00
1784,1061.26,3315.50,12826.42,1994.00,1006.50
1786,1061.52,3317.76,12637.00,1993.00,1025.50
1788,1061.77,3320.01,12182.72,1965.00,1021.00
1790,1062.02,3322.25,10894.67,1877.00,996.00
1792,1062.28,3324.50,10164.36,1855.00,1012.00
1794,1062.53,3326.74,10007.89,1815.00,989.50
1796,1062.78,3328.98,9675.18,1802.00,1008.50
1798,1063.04,3331.22,8599.05,1729.00,1002.00
1800,1063.29,3333.45,8261.54,1707.00,1003.00
1802,1063.54,3335.68,7511.49,1667.50,1007.50
1804,1063.79,3337.91,6760.50,1646.50,1032.00
1806,1064.05,3340.14,6562.50,1635.00,1037.00
1808,1064.30,3342.36,5542.67,1540.00,996.00
1810,1064.55,3344.59,4912.90,1536.00,1025.50
1812,1064.80,3346.81,4523.47,1488.00,1001.00
1814,1065.05,3349.02,3926.53,1449.00,996.50
1816,1065.30,3351.24,3554.25,1445.00,1014.00
1818,1065.55,3353.45,2498.40,1387.50,1009.50
1820,1065.81,3355.66,2520.76,1409.00,1033.00
1822,1066.06,3357.87,1661.15,1337.50,1006.50
1824,1066.31,3360.07,1701.63,1318.00,988.00
1826,1066.56,3362.27,1305.39,1331.50,1021.00
1828,1066.81,3364.47,844.72,1293.50,1005.50
1830,1067.06,3366.67,770.10,1294.50,1011.00
1832,1067.31,3368.87,964.76,1290.00,999.50
1834,1067.56,3371.06,268.82,1236.00,984.50
1836,1067.81,3373.25,1003.95,1252.50,976.00
1838,1068.06,3375.44,406.86,1237.00,989.00
1840,1068.31,3377.62,258.17,1230.00,992.50
1842,1068.56,3379.81,470.78,1221.50,981.00
1844,1068.80,3381.99,594.18,1269.00,1031.00
1846,1069.05,3384.16,415.37,1241.00,1013.00
1848,1069.30,3386.34,59.43,1207.50,997.50
1850,1069.55,3388.51,420.83,1213.50,991.00
1852,1069.80,3390.68,62.99,1207.00,1006.00
1854,1070.05,3392.85,357.99,1257.00,1047.50
1856,1070.30,3395.02,267.48,1202.00,1001.00
1858,1070.54,3397.18,152.79,1180.50,990.00
1860,1070.79,3399.34,871.62,1207.00,997.00
1862,1071.04,3401.50,293.12,1181.50,996.00
1864,1071.29,3403.66,0.00,1144.50,978.50
1866,1071.53,3405.81,371.98,1188.00,1006.50
1868,1071.78,3407.96,200.92,1176.50,1004.00
1870,1072.03,3410.11,0.00,1170.00,1012.00
1872,1072.27,3412.26,260.71,1180.00,1010.50
1874,1072.52,3414.40,289.78,1164.00,999.00
1876,1072.77,3416.54,567.48,1163.00,994.50
1878,1073.01,3418.68,183.24,1165.00,1011.50
1880,1073.26,3420.82,508.51,1131.00,969.50
1882,1073.51,3422.96,315.52,1162.00,1008.50
1884,1073.75,3425.09,323.84,1148.00,997.00
1886,1074.00,3427.22,96.03,1126.00,986.50
1888,1074.24,3429.35,720.17,1170.00,1013.00
1890,1074.49,3431.47,206.64,1133.50,995.00
1892,1074.73,3433.59,0.00,1114.00,987.00
1894,1074.98,3435.71,628.09,1161.50,1014.00
1896,1075.22,3437.83,252.78,1133.00,1002.50
1898,1075.47,3439.95,495.59,1147.00,1012.50
1900,1075.71,3442.06,403.08,1146.00,1016.00
1902,1075.96,3444.17,380.32,1125.00,997.00
1904,1076.20,3446.28,601.05,1085.00,950.50
1906,1076.44,3448.38,268.01,1152.50,1032.00
1908,1076.69,3450.49,389.35,1138.50,1018.00
1910,1076.93,3452.59,687.03,1133.50,1009.50
1912,1077.17,3454.69,562.39,1112.00,992.50
1914,1077.42,3456.79,452.90,1115.00,996.50
1916,1077.66,3458.88,97.13,1094.00,989.50
1918,1077.90,3460.97,419.83,1102.00,987.50
1920,1078.15,3463.06,568.45,1129.50,1017.00
1922,1078.39,3465.15,676.69,1117.50,1007.00
1924,1078.63,3467.23,433.53,1078.00,975.50
1926,1078.87,3469.32,846.50,1123.00,1011.50
1928,1079.12,3471.40,655.69,1098.50,993.00
1930,1079.36,3473.47,214.31,1139.50,1047.50
1932,1079.60,3475.55,434.41,1084.50,988.50
1934,1079.84,3477.62,519.26,1106.00,1009.00
1936,1080.08,3479.69,523.22,1081.50,985.00
1938,1080.33,3481.76,434.27,1074.50,982.50
1940,1080.57,3483.83,510.07,1095.00,1004.00
1942,1080.81,3485.89,751.59,1100.50,1006.50
1944,1081.05,3487.95,827.41,1112.00,1018.00
1946,1081.29,3490.01,839.04,1095.00,1002.00
1948,1081.53,3492.07,310.88,1063.50,985.00
1950,1081.77,3494.12,1024.74,1078.00,986.50
1952,1082.01,3496.18,975.46,1098.00,1009.50
1954,1082.25,3498.23,491.98,1068.50,989.50
1956,1082.49,3500.27,316.28,1082.50,1006.00
1958,1082.73,3502.32,0.00,1047.50,986.50
1960,1082.97,3504.36,183.62,1079.00,1007.50
1962,1083.21,3506.40,543.21,1072.00,992.00
1964,1083.45,3508.44,694.61,1049.50,972.50
1966,1083.69,3510.48,1045.07,1111.00,1031.00
1968,1083.93,3512.51,657.37,1074.00,1002.00
1970,1084.16,3514.54,381.57,1063.50,997.00
1972,1084.40,3516.57,876.60,1065.50,988.00
1974,1084.64,3518.60,521.48,1055.00,986.50
1976,1084.88,3520.62,893.71,1083.50,1008.50
1978,1085.12,3522.65,585.27,1091.50,1025.50
1980,1085.36,3524.67,1191.16,1078.00,1003.00
1982,1085.59,3526.68,1333.61,1064.00,986.00
1984,1085.83,3528.70,263.45,1072.00,1014.00
1986,1086.07,3530.71,334.96,1054.00,994.00
1988,1086.31,3532.72,357.18,1068.00,1008.50
1990,1086.54,3534.73,689.54,1049.00,984.00
1992,1086.78,3536.74,213.79,1086.00,1033.00
1994,1087.02,3538.74,244.24,1062.50,1010.00
1996,1087.25,3540.74,713.67,1036.00,975.50
1998,1087.49,3542.74,128.30,1048.00,999.00
2000,1087.73,3544.74,534.52,1060.00,1002.00
2002,1087.96,3546.74,204.99,1055.00,1005.50
2004,1088.20,3548.73,613.30,1080.50,1024.50
2006,1088.43,3550.72,395.04,1057.00,1007.00
2008,1088.67,3552.71,1108.11,1052.50,992.00
2010,1088.90,3554.69,454.19,1029.50,980.00
2012,1089.14,3556.68,71.65,1051.00,1008.50
2014,1089.38,3558.66,771.95,1038.00,983.00
2016,1089.61,3560.64,376.86,1030.00,983.00
2018,1089.84,3562.62,605.83,1056.50,1006.50
2020,1090.08,3564.59,784.48,1030.50,979.00
2022,1090.31,3566.56,1070.99,1045.00,989.50
2024,1090.55,3568.53,678.41,1034.00,985.00
2026,1090.78,3570.50,390.05,1024.50,981.00
2028,1091.02,3572.47,225.45,1019.00,979.00
2030,1091.25,3574.43,853.94,1032.50,982.00
2032,1091.48,3576.39,665.83,1006.50,958.50
2034,1091.72,3578.35,0.00,998.00,965.00
2036,1091.95,3580.31,752.08,1021.00,974.50
2038,1092.18,3582.26,971.19,1000.00,952.50
2040,1092.42,3584.22,524.23,999.00,958.00
2042,1092.65,3586.17,604.63,1003.00,961.00
2044,1092.88,3588.12,348.05,999.00,959.50
2046,1093.11,3590.06,276.84,989.50,946.50
2047,1093.23,3591.03,32.94,986.50,950.50