File: enlighten/plugins/Raman/MatchingLibrary/785X/glycerol.csv
ENLIGHTEN Version,4.1.22
Measurement ID,20250220-201622-634154-WP-01977
Serial Number,WP-01977
Model,WP-785X-F13-R-ILC
Detector,S16011-1106
Label,glycerol
Declared Match,
Declared Score,0
Scan Averaging,2
Boxcar,0
Technique,Raman
Baseline Correction Algo,AirPLS
ROI Pixel Start,47
ROI Pixel End,2047
ROI Start Line,0
ROI Stop Line,63
CCD C4,1.38617e-12
Slit Width,25
Cropped,True
Interpolated,False
Wavenumber Correction,-0.100481
Raman Intensity Corrected,True
Deconvolved,True
Region,
High Gain Mode,False
Laser Power mW,
Electrical Dark Correction,False
Battery %,
Device ID,<DeviceID USB:0x24aa:0x1000:0:1>
FW Version,10.0.0.10
FPGA Version,035-001
BLE Version,
Prefix,enlighten
Suffix,
Preset,
Auto-Raman,True
Session Count,0
Plugin Name,
Integration Time,784
Timestamp,2025-02-20 20:16:22.6342
Note,
Temperature,0
CCD C0,793.274
CCD C1,0.153259
CCD C2,1.40788e-05
CCD C3,-1.132e-08
CCD Offset,0
CCD Gain,1.9
CCD Offset Odd,0
CCD Gain Odd,1.9
Laser Wavelength,785.032
Laser Enable,False
Laser Power %,0
Laser Temperature,0
Pixel Count,2048

Pixel,Wavelength,Wavenumber,Processed,Raw,Dark
0,793.27,132.25,NA,1087.00,1027.50
2,793.58,137.12,NA,1128.00,1049.00
4,793.89,141.99,NA,1116.00,1028.50
6,794.19,146.86,NA,1120.50,1036.00
8,794.50,151.72,NA,1144.50,1062.50
10,794.81,156.58,NA,1146.00,1056.00
12,795.12,161.44,NA,1109.00,1035.00
14,795.42,166.30,NA,1121.50,1033.00
16,795.73,171.16,NA,1127.00,1034.00
18,796.04,176.01,NA,1164.50,1069.00
20,796.35,180.86,NA,1164.50,1062.00
22,796.65,185.71,NA,1203.50,1092.50
24,796.96,190.56,NA,1174.00,1054.00
26,797.27,195.41,NA,1208.00,1097.00
28,797.58,200.25,NA,1201.50,1078.50
30,797.88,205.09,NA,1182.50,1056.00
32,798.19,209.93,NA,1176.50,1056.00
34,798.50,214.77,NA,1210.50,1056.00
36,798.81,219.60,NA,1225.00,1052.00
38,799.12,224.43,NA,1334.00,1060.00
40,799.43,229.27,NA,1855.00,1093.00
42,799.74,234.09,NA,3737.50,1078.00
44,800.04,238.92,NA,6716.50,1115.00
46,800.35,243.75,NA,8072.00,1076.00
48,800.66,248.57,365.11,8328.00,1093.00
50,800.97,253.39,461.24,8382.00,1096.00
52,801.28,258.21,378.89,8377.50,1105.00
54,801.59,263.02,363.63,8343.00,1101.00
56,801.90,267.83,273.24,8204.00,1073.00
58,802.21,272.65,172.63,8102.00,1095.00
60,802.52,277.46,111.38,8035.50,1096.00
62,802.83,282.26,111.59,8035.50,1111.00
64,803.14,287.07,29.24,7949.50,1124.50
66,803.45,291.87,9.13,7910.50,1110.00
68,803.76,296.67,50.32,7997.50,1136.00
70,804.07,301.47,140.02,8026.50,1091.50
72,804.38,306.26,125.74,8022.50,1082.00
74,804.69,311.06,218.89,8146.50,1092.00
76,805.00,315.85,347.21,8286.50,1073.00
78,805.31,320.64,510.97,8487.50,1094.00
80,805.62,325.42,542.37,8552.50,1102.50
82,805.93,330.21,631.65,8633.50,1101.00
84,806.24,334.99,561.39,8493.50,1060.00
86,806.55,339.77,324.76,8223.00,1091.00
88,806.86,344.55,240.58,8095.50,1108.50
90,807.17,349.32,14.00,7846.50,1077.50
92,807.48,354.10,0.00,7646.50,1089.00
94,807.80,358.87,0.00,7616.00,1120.50
96,808.11,363.63,0.00,7636.00,1091.50
98,808.42,368.40,28.50,8017.00,1079.00
100,808.73,373.16,486.83,8544.50,1065.50
102,809.04,377.93,966.03,9133.00,1063.50
104,809.35,382.68,1170.88,9494.50,1058.00
106,809.66,387.44,1211.82,9684.50,1081.00
108,809.98,392.19,1236.87,9848.00,1056.00
110,810.29,396.95,1603.81,10529.00,1091.00
112,810.60,401.70,2488.89,11831.50,1076.50
114,810.91,406.44,3868.99,13753.50,1095.00
116,811.22,411.19,5472.23,15799.50,1094.00
118,811.54,415.93,6291.90,16840.50,1093.00
120,811.85,420.67,5724.71,16288.00,1069.00
122,812.16,425.41,4545.45,14880.50,1063.50
124,812.47,430.14,3485.45,13458.50,1084.50
126,812.79,434.87,2628.47,12211.00,1070.00
128,813.10,439.60,1994.58,11266.00,1049.00
130,813.41,444.33,1511.96,10629.50,1076.00
132,813.72,449.06,1204.36,10211.50,1051.00
134,814.04,453.78,1193.62,10282.50,1071.00
136,814.35,458.50,1467.53,10784.50,1051.00
138,814.66,463.22,2350.69,12212.00,1053.00
140,814.98,467.93,3883.05,14601.50,1065.50
142,815.29,472.65,6193.88,17944.50,1073.00
144,815.60,477.36,8783.33,21549.50,1071.00
146,815.92,482.06,10564.83,24039.00,1045.50
148,816.23,486.77,11152.17,24947.50,1090.00
150,816.54,491.47,9967.51,23438.50,1117.00
152,816.86,496.17,7744.48,20383.00,1056.00
154,817.17,500.87,5242.30,16871.00,1072.00
156,817.48,505.57,3248.86,13922.50,1059.00
158,817.80,510.26,1873.69,11775.50,1038.00
160,818.11,514.95,992.27,10426.50,1094.00
162,818.42,519.64,497.00,9646.50,1089.00
164,818.74,524.32,234.94,9241.00,1077.00
166,819.05,529.00,264.91,9245.50,1095.00
168,819.37,533.68,487.80,9481.00,1069.00
170,819.68,538.36,853.21,9951.00,1079.00
172,819.99,543.04,1268.36,10480.50,1109.00
174,820.31,547.71,1498.14,10726.50,1072.00
176,820.62,552.38,1588.38,10753.50,1056.00
178,820.94,557.05,1277.50,10306.00,1066.50
180,821.25,561.71,1031.35,9861.00,1042.00
182,821.57,566.37,720.31,9322.00,1045.50
184,821.88,571.03,538.03,8941.00,1070.00
186,822.20,575.69,300.61,8520.50,1070.50
188,822.51,580.34,103.58,8164.50,1060.00
190,822.83,584.99,4.96,7943.50,1065.50
192,823.14,589.64,0.00,7721.50,1063.50
194,823.46,594.29,0.00,7704.50,1058.50
196,823.77,598.93,0.00,7614.50,1067.50
198,824.09,603.57,0.00,7559.50,1027.50
200,824.40,608.21,0.00,7584.00,1061.50
202,824.72,612.85,0.00,7612.50,1092.00
204,825.03,617.48,0.00,7547.50,1071.00
206,825.35,622.11,0.92,7652.00,1091.50
208,825.66,626.74,53.44,7742.50,1086.00
210,825.98,631.36,118.29,7777.50,1044.50
212,826.29,635.99,261.67,8059.50,1066.50
214,826.61,640.61,463.04,8385.00,1071.00
216,826.92,645.22,734.89,8777.00,1052.50
218,827.24,649.84,1027.94,9252.50,1033.00
220,827.56,654.45,1321.21,9822.00,1089.00
222,827.87,659.06,1752.50,10528.50,1074.00
224,828.19,663.67,2295.82,11430.50,1070.00
226,828.50,668.27,3075.32,12672.50,1135.00
228,828.82,672.87,3770.82,13555.50,1083.50
230,829.13,677.47,3943.54,13731.00,1062.50
232,829.45,682.06,3333.90,12890.00,1074.00
234,829.77,686.66,2360.41,11648.50,1223.00
236,830.08,691.25,1458.50,10085.50,1067.50
238,830.40,695.83,850.87,9055.00,1061.00
240,830.72,700.42,525.49,8468.50,1066.50
242,831.03,705.00,359.51,8079.50,1009.50
244,831.35,709.58,192.33,7844.50,1063.00
246,831.66,714.15,111.98,7655.00,1020.00
248,831.98,718.73,78.06,7607.50,1061.50
250,832.30,723.30,7.81,7513.50,1048.50
252,832.61,727.87,0.00,7456.50,1094.50
254,832.93,732.43,0.00,7316.50,1004.50
256,833.25,736.99,0.00,7368.50,1080.00
258,833.56,741.55,0.00,7364.50,1054.00
260,833.88,746.11,0.00,7363.50,1048.50
262,834.20,750.66,0.00,7414.00,1067.00
264,834.51,755.22,0.00,7477.50,1075.00
266,834.83,759.76,0.00,7565.00,1072.00
268,835.15,764.31,0.00,7602.00,1065.50
270,835.47,768.85,0.00,7737.50,1041.50
272,835.78,773.39,0.00,7960.50,1047.50
274,836.10,777.93,87.42,8360.50,1045.50
276,836.42,782.46,355.65,8767.50,1060.00
278,836.73,787.00,497.90,9062.50,1045.50
280,837.05,791.52,579.25,9321.00,1034.00
282,837.37,796.05,669.07,9700.50,1064.50
284,837.69,800.57,1021.35,10502.50,1040.00
286,838.00,805.09,1956.86,12353.50,1045.50
288,838.32,809.61,3903.12,15779.00,1068.50
290,838.64,814.13,6934.05,20402.00,1077.00
292,838.95,818.64,9861.49,24438.00,1046.50
294,839.27,823.15,10278.65,25433.50,1049.00
296,839.59,827.65,8819.01,24124.00,1061.00
298,839.91,832.15,7659.50,23111.00,1052.00
300,840.22,836.65,8779.46,25257.50,1124.50
302,840.54,841.15,12479.95,30594.00,1041.00
304,840.86,845.65,16405.57,36276.00,1088.50
306,841.18,850.14,18333.57,39309.00,1084.50
308,841.50,854.63,17613.17,38690.50,1138.50
310,841.81,859.11,15201.36,35340.00,1058.00
312,842.13,863.60,12826.26,31497.50,1068.50
314,842.45,868.07,10654.17,27538.00,1055.50
316,842.77,872.55,8020.33,23128.00,1077.00
318,843.08,877.03,4829.85,18279.50,1105.00
320,843.40,881.50,2266.02,14189.50,1033.00
322,843.72,885.97,841.73,11783.00,1079.00
324,844.04,890.43,371.45,10827.50,1040.00
326,844.36,894.89,589.88,11185.00,1053.50
328,844.67,899.35,1404.75,12524.50,1081.00
330,844.99,903.81,2810.14,14647.50,1035.00
332,845.31,908.26,4284.95,16947.00,1067.50
334,845.63,912.71,5342.87,18778.00,1076.00
336,845.95,917.16,6139.26,20188.50,1079.00
338,846.27,921.61,6835.99,21582.50,1470.00
340,846.58,926.05,7128.18,21285.50,1059.00
342,846.90,930.49,6221.50,19702.50,1064.50
344,847.22,934.92,4015.28,16424.00,1068.00
346,847.54,939.36,1828.29,13009.50,1021.00
348,847.86,943.79,267.82,10731.00,1036.00
350,848.18,948.21,0.16,9519.50,1035.00
352,848.49,952.64,0.00,9125.00,1047.50
354,848.81,957.06,0.00,9236.50,1012.50
356,849.13,961.48,11.58,9917.00,1091.00
358,849.45,965.89,548.35,10976.50,1079.00
360,849.77,970.31,1696.92,12423.50,1060.50
362,850.09,974.71,2344.50,13444.00,1055.00
364,850.40,979.12,2248.04,13442.50,1085.50
366,850.72,983.52,1491.76,12512.00,1100.50
368,851.04,987.92,670.47,11320.00,1040.00
370,851.36,992.32,100.75,10554.00,1032.50
372,851.68,996.72,0.34,10241.50,1065.50
374,852.00,1001.11,0.00,10125.50,1041.00
376,852.32,1005.50,0.00,10243.50,1027.50
378,852.63,1009.88,55.61,10817.00,1087.00
380,852.95,1014.26,655.59,11844.00,1068.50
382,853.27,1018.64,1679.52,13572.50,1090.00
384,853.59,1023.02,3084.78,16012.00,1040.00
386,853.91,1027.39,4912.98,19177.50,1031.00
388,854.23,1031.76,7278.80,23197.50,1046.50
390,854.55,1036.13,9864.98,27530.50,1046.00
392,854.87,1040.49,12646.88,32053.50,1050.50
394,855.18,1044.86,14986.57,35847.50,1067.50
396,855.50,1049.21,16528.93,38519.50,1068.50
398,855.82,1053.57,17173.68,39767.00,1083.00
400,856.14,1057.92,17326.02,40058.50,1052.50
402,856.46,1062.27,16948.55,39412.00,1062.00
404,856.78,1066.62,15900.57,37681.00,1022.00
406,857.10,1070.96,14463.19,35526.00,1035.00
408,857.42,1075.30,12967.71,33282.00,1089.50
410,857.74,1079.64,12010.42,31676.00,1050.50
412,858.06,1083.97,11535.91,30739.00,1047.50
414,858.37,1088.30,11295.13,30180.00,1036.00
416,858.69,1092.63,10977.34,29654.00,1036.00
418,859.01,1096.95,10543.55,29095.00,1031.00
420,859.33,1101.27,10296.01,28902.50,1055.00
422,859.65,1105.59,10572.38,29316.00,1059.00
424,859.97,1109.91,11433.64,30234.00,1025.00
426,860.29,1114.22,11618.17,30115.00,1038.50
428,860.61,1118.53,10266.39,27967.50,1028.50
430,860.93,1122.84,7715.95,24215.00,1048.50
432,861.25,1127.14,4873.91,19926.50,1079.00
434,861.56,1131.44,2623.55,16260.50,1041.50
436,861.88,1135.74,1280.83,13883.50,1035.00
438,862.20,1140.03,588.80,12624.00,1053.00
440,862.52,1144.32,187.65,11979.00,1056.00
442,862.84,1148.61,8.23,11638.00,1065.50
444,863.16,1152.89,0.00,11432.00,1047.50
446,863.48,1157.17,0.00,11366.50,1050.00
448,863.80,1161.45,0.00,11395.50,1055.00
450,864.12,1165.73,0.00,11503.50,1055.00
452,864.44,1170.00,0.00,11600.00,1040.00
454,864.76,1174.27,0.00,11869.50,1050.00
456,865.07,1178.53,14.43,12154.00,1031.00
458,865.39,1182.80,311.57,12780.00,1055.00
460,865.71,1187.06,814.12,13523.00,1048.50
462,866.03,1191.31,1293.69,14421.50,1051.50
464,866.35,1195.57,1778.43,15326.50,1045.50
466,866.67,1199.82,2351.43,16323.50,1073.00
468,866.99,1204.06,2878.24,17215.50,1057.00
470,867.31,1208.31,3242.23,17921.00,1074.00
472,867.63,1212.55,3526.06,18461.00,1056.00
474,867.95,1216.79,3764.96,18949.50,1022.00
476,868.27,1221.02,4031.73,19533.50,1060.50
478,868.58,1225.25,4407.81,20188.50,1034.00
480,868.90,1229.48,4874.75,21092.50,1074.00
482,869.22,1233.71,5451.63,22117.00,1076.00
484,869.54,1237.93,6222.00,23361.50,1082.50
486,869.86,1242.15,6886.89,24433.00,1063.00
488,870.18,1246.36,7505.72,25437.50,1034.00
490,870.50,1250.58,7815.32,26062.00,1056.00
492,870.82,1254.79,7963.41,26438.50,1106.00
494,871.14,1258.99,7973.39,26507.00,1067.00
496,871.46,1263.20,7928.47,26542.50,1066.50
498,871.78,1267.40,7896.95,26497.00,1045.50
500,872.10,1271.59,7883.38,26483.50,1040.50
502,872.41,1275.79,7783.47,26324.00,1032.00
504,872.73,1279.98,7387.93,25797.50,1058.00
506,873.05,1284.17,7032.52,25359.00,1072.50
508,873.37,1288.35,6619.13,24764.00,993.00
510,873.69,1292.53,6426.69,24555.00,1040.00
512,874.01,1296.71,6512.84,24690.50,1026.00
514,874.33,1300.88,6642.91,24962.00,1010.50
516,874.65,1305.06,6951.24,25527.00,1062.00
518,874.97,1309.22,7421.93,26221.50,1030.50
520,875.29,1313.39,7745.48,26763.50,1057.00
522,875.60,1317.55,7921.69,27084.50,1060.00
524,875.92,1321.71,7976.29,27214.50,1045.50
526,876.24,1325.87,7674.67,26905.00,1076.00
528,876.56,1330.02,7414.24,26547.50,1028.50
530,876.88,1334.17,7301.03,26469.50,1076.00
532,877.20,1338.32,7205.45,26316.50,1019.00
534,877.52,1342.46,7243.26,26411.50,1024.50
536,877.84,1346.60,7410.79,26707.00,1051.00
538,878.16,1350.73,7507.44,26889.50,1044.00
540,878.47,1354.87,7586.32,27057.00,1043.00
542,878.79,1359.00,7655.69,27211.50,1055.00
544,879.11,1363.13,7665.17,27296.50,1051.50
546,879.43,1367.25,7601.29,27208.50,1038.00
548,879.75,1371.37,7505.92,27067.50,1042.50
550,880.07,1375.49,7265.98,26788.00,1041.00
552,880.39,1379.60,7034.26,26525.50,1049.00
554,880.71,1383.71,6872.10,26289.00,1042.00
556,881.03,1387.82,6765.41,26113.50,1030.50
558,881.34,1391.93,6639.90,25935.50,1007.00
560,881.66,1396.03,6418.87,25665.50,1038.00
562,881.98,1400.13,6210.89,25419.50,1059.00
564,882.30,1404.22,5986.54,25109.50,1052.00
566,882.62,1408.31,5789.23,24800.50,1036.00
568,882.94,1412.40,5563.27,24529.00,1056.00
570,883.26,1416.49,5202.57,24043.50,1037.00
572,883.57,1420.57,5074.52,23880.00,1077.00
574,883.89,1424.65,4810.29,23488.00,1018.00
576,884.21,1428.73,4656.59,23397.00,1072.00
578,884.53,1432.80,4636.57,23436.00,1089.00
580,884.85,1436.87,4730.12,23653.00,1038.00
582,885.17,1440.93,5082.10,24426.50,1020.50
584,885.49,1445.00,6066.03,26225.00,1029.50
586,885.80,1449.06,8151.21,29472.00,1022.00
588,886.12,1453.11,11386.89,34116.50,1072.00
590,886.44,1457.17,15126.40,39192.50,1059.00
592,886.76,1461.22,17476.27,42567.00,1051.50
594,887.08,1465.26,18635.43,44227.00,1069.50
596,887.40,1469.31,18276.02,43538.00,1026.50
598,887.71,1473.35,15927.73,40295.50,1031.00
600,888.03,1477.38,12297.93,35322.00,1043.00
602,888.35,1481.42,8451.07,29937.00,1073.00
604,888.67,1485.45,5212.38,25297.00,1053.00
606,888.99,1489.48,2888.03,21767.00,1036.00
608,889.31,1493.50,1617.26,19683.50,1063.00
610,889.62,1497.52,904.83,18514.00,1056.00
612,889.94,1501.54,380.28,17703.50,1013.00
614,890.26,1505.56,173.78,17290.50,1041.00
616,890.58,1509.57,54.81,17016.00,1028.50
618,890.90,1513.57,0.00,16683.00,1026.50
620,891.21,1517.58,0.00,16604.00,1058.00
622,891.53,1521.58,3.39,16491.00,1045.00
624,891.85,1525.58,12.56,16361.50,1036.50
626,892.17,1529.57,0.00,16208.00,1047.50
628,892.49,1533.57,83.94,16201.00,1052.00
630,892.80,1537.56,12.50,15962.50,1034.50
632,893.12,1541.54,45.87,15918.00,1032.50
634,893.44,1545.52,0.00,15647.50,1057.00
636,893.76,1549.50,0.00,15487.50,1012.50
638,894.07,1553.48,0.00,15454.50,1063.00
640,894.39,1557.45,0.00,15297.00,1036.00
642,894.71,1561.42,0.00,15243.00,1056.00
644,895.03,1565.39,15.64,15207.00,1005.50
646,895.34,1569.35,41.05,15187.00,1071.00
648,895.66,1573.31,77.46,15142.50,1035.50
650,895.98,1577.26,92.02,15076.00,1044.00
652,896.30,1581.22,47.80,14907.00,1021.00
654,896.61,1585.17,35.73,14834.00,1029.50
656,896.93,1589.11,14.72,14752.00,1057.00
658,897.25,1593.06,49.58,14676.00,1027.50
660,897.57,1597.00,33.12,14597.50,1042.50
662,897.88,1600.93,26.60,14526.00,1043.00
664,898.20,1604.87,119.25,14573.50,1045.50
666,898.52,1608.80,221.16,14576.50,1024.00
668,898.84,1612.72,273.01,14571.00,1016.00
670,899.15,1616.65,314.44,14595.50,1064.50
672,899.47,1620.57,309.82,14481.00,1024.50
674,899.79,1624.49,350.94,14465.50,1042.50
676,900.10,1628.40,376.40,14381.00,1018.00
678,900.42,1632.31,384.58,14349.00,1055.00
680,900.74,1636.22,299.85,14129.50,1001.00
682,901.05,1640.12,281.25,14111.50,1086.50
684,901.37,1644.02,305.42,14015.00,1044.50
686,901.69,1647.92,385.51,14033.50,1052.00
688,902.00,1651.82,398.47,13942.50,1021.00
690,902.32,1655.71,434.01,13911.00,1009.50
692,902.64,1659.60,485.48,13872.50,1019.50
694,902.95,1663.48,507.86,13828.50,1039.00
696,903.27,1667.36,393.75,13633.00,1025.50
698,903.59,1671.24,310.12,13483.00,1072.00
700,903.90,1675.11,322.32,13375.00,1049.50
702,904.22,1678.99,216.27,13138.00,1019.00
704,904.54,1682.85,240.33,13165.50,1095.00
706,904.85,1686.72,275.92,13041.00,1023.00
708,905.17,1690.58,188.58,12893.50,1045.50
710,905.49,1694.44,182.43,12799.50,1029.00
712,905.80,1698.29,367.86,12914.50,1032.00
714,906.12,1702.15,330.13,12798.50,1036.00
716,906.43,1706.00,288.78,12688.00,1047.50
718,906.75,1709.84,236.60,12556.00,1062.50
720,907.07,1713.68,154.68,12354.50,1024.00
722,907.38,1717.52,111.87,12242.50,1045.50
724,907.70,1721.36,117.23,12141.00,1033.00
726,908.01,1725.19,71.75,12002.50,1039.00
728,908.33,1729.02,42.02,11918.50,1048.50
730,908.65,1732.85,72.93,11874.00,1031.00
732,908.96,1736.67,93.17,11800.50,1052.00
734,909.28,1740.49,160.13,11764.00,1020.00
736,909.59,1744.30,107.49,11682.50,1052.00
738,909.91,1748.12,51.96,11519.50,1033.50
740,910.22,1751.93,108.88,11506.00,1046.50
742,910.54,1755.73,127.33,11491.50,1117.00
744,910.85,1759.54,38.23,11264.50,1049.50
746,911.17,1763.34,9.98,11162.50,1024.00
748,911.49,1767.13,0.00,11008.50,1042.00
750,911.80,1770.93,0.00,10928.00,1017.00
752,912.12,1774.72,4.97,10939.50,1053.00
754,912.43,1778.50,0.00,10801.50,1009.50
756,912.75,1782.29,36.12,10831.00,1016.00
758,913.06,1786.07,95.97,10810.00,1013.50
760,913.38,1789.84,177.59,10857.00,1028.50
762,913.69,1793.62,116.54,10767.00,1058.00
764,914.01,1797.39,234.47,10791.50,1030.50
766,914.32,1801.15,167.22,10665.00,1021.50
768,914.64,1804.92,100.22,10525.50,1022.00
770,914.95,1808.68,90.96,10455.00,1038.00
772,915.26,1812.44,54.30,10386.00,1050.50
774,915.58,1816.19,41.70,10276.50,1015.00
776,915.89,1819.94,96.20,10286.50,1039.50
778,916.21,1823.69,195.86,10331.00,1054.00
780,916.52,1827.43,222.02,10320.50,1072.00
782,916.84,1831.17,256.10,10253.00,1016.00
784,917.15,1834.91,255.57,10205.50,1020.00
786,917.47,1838.64,337.92,10247.00,1050.00
788,917.78,1842.38,414.67,10233.00,1043.50
790,918.09,1846.10,332.02,10090.50,1026.50
792,918.41,1849.83,253.78,9968.50,1047.50
794,918.72,1853.55,297.90,9894.00,1003.50
796,919.04,1857.27,301.70,9871.50,1038.00
798,919.35,1860.98,275.62,9773.50,1027.50
800,919.66,1864.69,361.49,9806.50,1026.50
802,919.98,1868.40,373.22,9766.00,1042.50
804,920.29,1872.11,481.46,9798.00,1032.50
806,920.60,1875.81,531.21,9779.00,1019.00
808,920.92,1879.51,425.96,9625.50,1019.00
810,921.23,1883.20,492.45,9661.50,1050.50
812,921.55,1886.90,566.98,9603.00,1007.00
814,921.86,1890.58,508.93,9535.50,1055.00
816,922.17,1894.27,468.11,9454.50,1065.00
818,922.49,1897.95,410.54,9305.50,1049.00
820,922.80,1901.63,385.20,9198.50,1044.00
822,923.11,1905.31,399.34,9140.50,1029.50
824,923.42,1908.98,413.33,9108.50,1045.00
826,923.74,1912.65,361.96,8984.00,1044.50
828,924.05,1916.31,410.39,8952.50,1021.00
830,924.36,1919.98,376.40,8846.50,1015.00
832,924.68,1923.64,485.38,8897.50,1014.50
834,924.99,1927.29,451.80,8798.50,1016.00
836,925.30,1930.94,454.09,8729.50,1006.00
838,925.61,1934.59,452.77,8680.00,1034.00
840,925.93,1938.24,358.90,8528.00,1025.00
842,926.24,1941.88,314.13,8437.00,1036.00
844,926.55,1945.52,299.82,8327.00,1023.00
846,926.86,1949.16,320.49,8285.50,1027.50
848,927.18,1952.79,329.67,8248.50,1026.50
850,927.49,1956.42,262.05,8106.00,1023.50
852,927.80,1960.05,307.71,8124.50,1063.50
854,928.11,1963.67,244.75,7987.50,1041.00
856,928.42,1967.29,249.76,7943.50,1048.50
858,928.74,1970.91,276.35,7872.50,1028.50
860,929.05,1974.52,276.55,7805.00,1026.50
862,929.36,1978.13,208.65,7694.00,1026.00
864,929.67,1981.74,168.02,7597.00,1029.00
866,929.98,1985.35,205.14,7541.50,1026.00
868,930.29,1988.95,140.82,7435.50,1030.50
870,930.61,1992.54,7.41,7231.50,1022.00
872,930.92,1996.14,5.91,7182.00,1033.00
874,931.23,1999.73,52.79,7182.50,1044.00
876,931.54,2003.32,21.50,7080.50,1036.00
878,931.85,2006.90,44.31,7041.50,1024.50
880,932.16,2010.48,88.03,7006.50,1020.00
882,932.47,2014.06,110.69,6962.50,1023.00
884,932.78,2017.63,104.90,6930.00,1042.00
886,933.09,2021.21,73.08,6834.00,1028.50
888,933.41,2024.77,46.10,6757.00,1046.50
890,933.72,2028.34,30.69,6707.50,1077.50
892,934.03,2031.90,31.98,6614.00,1039.00
894,934.34,2035.46,0.00,6524.50,1050.50
896,934.65,2039.01,0.00,6411.50,1015.00
898,934.96,2042.57,19.13,6443.00,1053.00
900,935.27,2046.11,1.99,6414.50,1084.00
902,935.58,2049.66,0.00,6261.50,998.00
904,935.89,2053.20,0.00,6264.50,1041.00
906,936.20,2056.74,39.85,6249.00,1031.00
908,936.51,2060.28,0.00,6161.00,1030.50
910,936.82,2063.81,0.00,6123.00,1050.00
912,937.13,2067.34,0.00,6066.00,1055.00
914,937.44,2070.86,57.41,6089.50,1031.00
916,937.75,2074.39,11.40,5991.00,1018.00
918,938.06,2077.91,45.64,5993.00,1026.50
920,938.37,2081.42,58.56,5974.00,1033.00
922,938.68,2084.94,0.00,5840.00,1031.00
924,938.99,2088.45,0.00,5836.00,1029.50
926,939.30,2091.95,0.00,5807.50,1045.50
928,939.60,2095.46,10.11,5777.50,1025.00
930,939.91,2098.96,1.10,5766.00,1055.00
932,940.22,2102.45,6.69,5731.00,1042.50
934,940.53,2105.95,14.90,5677.00,1009.50
936,940.84,2109.44,60.28,5700.50,1024.50
938,941.15,2112.92,33.14,5649.00,1035.00
940,941.46,2116.41,43.96,5633.00,1024.50
942,941.77,2119.89,15.36,5601.50,1049.50
944,942.07,2123.37,56.76,5582.00,1029.00
946,942.38,2126.84,95.91,5582.00,1041.00
948,942.69,2130.31,17.92,5516.00,1050.00
950,943.00,2133.78,0.00,5430.50,1032.50
952,943.31,2137.24,44.99,5475.50,1045.50
954,943.62,2140.70,19.73,5432.00,1050.50
956,943.92,2144.16,0.00,5361.50,1032.00
958,944.23,2147.62,51.27,5412.00,1049.50
960,944.54,2151.07,80.24,5404.50,1057.00
962,944.85,2154.52,74.21,5410.00,1072.00
964,945.16,2157.96,39.75,5343.00,1062.50
966,945.46,2161.40,117.61,5349.50,1035.50
968,945.77,2164.84,29.77,5215.50,994.50
970,946.08,2168.28,69.84,5273.00,1039.00
972,946.39,2171.71,113.67,5258.50,1033.50
974,946.69,2175.14,62.49,5190.50,1017.00
976,947.00,2178.57,7.73,5147.50,1023.00
978,947.31,2181.99,0.00,5084.50,1022.50
980,947.61,2185.41,0.00,5071.00,1038.00
982,947.92,2188.82,66.84,5126.50,1048.00
984,948.23,2192.24,0.00,5005.50,1010.50
986,948.53,2195.65,40.39,5064.50,1030.50
988,948.84,2199.05,97.96,5042.00,988.50
990,949.15,2202.46,52.08,5038.00,1037.00
992,949.45,2205.86,68.73,5029.50,1031.50
994,949.76,2209.25,117.71,5019.00,1008.50
996,950.07,2212.65,104.71,5000.00,1019.00
998,950.37,2216.04,72.62,4947.00,1004.00
1000,950.68,2219.43,78.30,4953.50,1021.00
1002,950.98,2222.81,55.15,4933.50,1042.00
1004,951.29,2226.19,124.94,4938.00,1011.50
1006,951.60,2229.57,123.47,4903.50,1009.50
1008,951.90,2232.94,81.39,4865.50,1003.00
1010,952.21,2236.32,29.02,4815.00,1019.00
1012,952.51,2239.68,122.31,4871.00,1029.50
1014,952.82,2243.05,39.35,4757.00,996.00
1016,953.12,2246.41,53.01,4810.00,1048.50
1018,953.43,2249.77,49.70,4830.00,1095.00
1020,953.73,2253.12,64.93,4762.50,1043.50
1022,954.04,2256.48,88.10,4723.50,1004.50
1024,954.34,2259.83,6.29,4698.00,1054.00
1026,954.65,2263.17,6.47,4648.00,1017.00
1028,954.95,2266.51,0.00,4615.50,1018.00
1030,955.26,2269.85,12.74,4666.00,1074.00
1032,955.56,2273.19,0.00,4606.00,1043.50
1034,955.87,2276.52,65.96,4637.00,1039.00
1036,956.17,2279.85,0.00,4572.50,1057.50
1038,956.48,2283.18,1.94,4526.50,1000.00
1040,956.78,2286.50,4.86,4515.00,1002.00
1042,957.08,2289.82,16.33,4501.00,995.50
1044,957.39,2293.14,68.76,4562.00,1037.00
1046,957.69,2296.45,34.06,4518.00,1013.50
1048,957.99,2299.76,16.08,4549.00,1071.00
1050,958.30,2303.07,50.31,4523.50,1037.50
1052,958.60,2306.38,75.92,4519.50,1028.50
1054,958.91,2309.68,52.46,4507.00,1036.00
1056,959.21,2312.98,53.14,4464.50,1001.00
1058,959.51,2316.27,50.59,4461.00,1020.00
1060,959.82,2319.56,106.15,4516.00,1051.00
1062,960.12,2322.85,20.99,4418.00,1017.00
1064,960.42,2326.14,24.17,4413.50,1018.00
1066,960.72,2329.42,55.80,4439.00,1035.00
1068,961.03,2332.70,33.87,4406.50,1036.00
1070,961.33,2335.97,71.97,4419.00,1027.50
1072,961.63,2339.25,20.03,4354.50,1015.00
1074,961.93,2342.52,83.85,4402.00,1023.50
1076,962.24,2345.78,80.91,4392.50,1027.50
1078,962.54,2349.05,85.39,4380.00,1028.50
1080,962.84,2352.31,157.06,4405.50,1023.50
1082,963.14,2355.56,116.23,4367.00,1020.00
1084,963.45,2358.82,108.81,4354.00,1018.00
1086,963.75,2362.07,135.46,4399.50,1049.50
1088,964.05,2365.32,132.20,4406.00,1074.00
1090,964.35,2368.56,210.47,4398.00,1039.00
1092,964.65,2371.80,204.80,4390.00,1045.00
1094,964.95,2375.04,143.87,4334.50,1026.50
1096,965.25,2378.27,167.56,4327.00,1021.00
1098,965.56,2381.51,277.04,4387.00,1037.00
1100,965.86,2384.73,197.29,4325.00,1031.00
1102,966.16,2387.96,210.58,4318.50,1018.00
1104,966.46,2391.18,196.23,4333.50,1063.50
1106,966.76,2394.40,217.96,4298.50,1032.50
1108,967.06,2397.62,209.17,4303.00,1051.00
1110,967.36,2400.83,152.59,4219.00,1014.00
1112,967.66,2404.04,116.93,4223.50,1064.50
1114,967.96,2407.25,66.15,4122.00,1008.50
1116,968.26,2410.45,31.53,4125.00,1033.00
1118,968.56,2413.65,6.88,4071.50,1016.00
1120,968.86,2416.85,7.91,4104.00,1065.00
1122,969.16,2420.04,0.00,4034.50,1039.00
1124,969.46,2423.23,22.25,4061.00,1026.50
1126,969.76,2426.42,18.41,4054.50,1037.00
1128,970.06,2429.60,20.17,4019.50,1009.50
1130,970.36,2432.79,36.70,4048.00,1032.50
1132,970.66,2435.96,171.85,4090.50,1015.00
1134,970.96,2439.14,121.92,4058.50,1020.00
1136,971.26,2442.31,98.72,4076.50,1040.00
1138,971.56,2445.48,52.72,4021.50,1026.50
1140,971.86,2448.65,76.39,4012.00,1026.00
1142,972.16,2451.81,120.44,4043.00,1039.00
1144,972.45,2454.97,14.29,3989.00,1041.00
1146,972.75,2458.13,2.09,3957.00,1036.00
1148,973.05,2461.28,10.68,3940.00,1024.50
1150,973.35,2464.43,0.00,3937.00,1038.50
1152,973.65,2467.58,0.00,3889.50,1030.00
1154,973.95,2470.72,49.63,3955.00,1028.50
1156,974.24,2473.86,83.54,3952.00,1020.00
1158,974.54,2477.00,42.70,3917.50,1013.00
1160,974.84,2480.13,105.58,3966.00,1038.00
1162,975.14,2483.27,71.76,3932.50,1029.50
1164,975.43,2486.40,63.42,3909.50,1009.50
1166,975.73,2489.52,50.02,3921.50,1028.00
1168,976.03,2492.64,65.65,3917.00,1017.00
1170,976.33,2495.76,15.15,3887.50,1036.00
1172,976.62,2498.88,122.01,3924.50,1023.00
1174,976.92,2501.99,59.33,3917.50,1046.50
1176,977.22,2505.10,57.85,3912.50,1044.50
1178,977.51,2508.21,142.75,3941.00,1030.50
1180,977.81,2511.31,98.34,3902.00,1029.50
1182,978.11,2514.41,123.53,3907.50,1027.00
1184,978.40,2517.51,155.71,3933.00,1037.00
1186,978.70,2520.61,139.73,3917.00,1030.00
1188,979.00,2523.70,149.18,3932.00,1048.50
1190,979.29,2526.79,207.34,3934.00,1035.00
1192,979.59,2529.87,184.56,3916.00,1031.00
1194,979.88,2532.95,166.57,3900.50,1023.00
1196,980.18,2536.03,190.58,3923.50,1044.00
1198,980.48,2539.11,221.46,3940.50,1058.50
1200,980.77,2542.18,166.45,3888.50,1040.50
1202,981.07,2545.25,182.35,3909.00,1059.00
1204,981.36,2548.32,200.94,3883.00,1036.00
1206,981.66,2551.38,114.20,3853.50,1055.50
1208,981.95,2554.44,48.41,3798.50,1032.50
1210,982.25,2557.50,31.03,3827.50,1070.00
1212,982.54,2560.56,0.00,3774.50,1067.50
1214,982.84,2563.61,113.79,3838.50,1073.00
1216,983.13,2566.66,136.52,3825.50,1053.00
1218,983.43,2569.70,18.89,3774.50,1059.50
1220,983.72,2572.74,53.02,3789.50,1059.50
1222,984.01,2575.78,102.83,3779.50,1041.00
1224,984.31,2578.82,102.66,3744.50,1014.00
1226,984.60,2581.85,85.69,3775.50,1056.00
1228,984.90,2584.88,57.79,3725.00,1021.00
1230,985.19,2587.91,45.51,3733.00,1040.00
1232,985.48,2590.93,0.00,3714.00,1059.00
1234,985.78,2593.96,37.48,3714.50,1045.00
1236,986.07,2596.97,50.54,3729.00,1050.50
1238,986.36,2599.99,0.00,3718.50,1076.00
1240,986.66,2603.00,0.00,3692.50,1070.00
1242,986.95,2606.01,4.14,3714.00,1075.00
1244,987.24,2609.01,0.00,3689.00,1058.00
1246,987.54,2612.02,0.00,3623.00,994.00
1248,987.83,2615.02,0.00,3685.50,1054.00
1250,988.12,2618.01,4.48,3724.00,1074.00
1252,988.41,2621.01,42.92,3702.50,1043.50
1254,988.71,2624.00,76.28,3701.50,1026.50
1256,989.00,2626.99,0.00,3688.50,1059.00
1258,989.29,2629.97,0.00,3702.00,1054.00
1260,989.58,2632.95,16.88,3727.00,1062.00
1262,989.87,2635.93,27.42,3743.00,1070.00
1264,990.16,2638.91,4.65,3697.50,1028.50
1266,990.46,2641.88,25.05,3757.50,1074.00
1268,990.75,2644.85,21.65,3779.50,1087.50
1270,991.04,2647.81,0.00,3709.00,1047.50
1272,991.33,2650.78,0.00,3710.00,1053.00
1274,991.62,2653.74,2.73,3766.50,1046.50
1276,991.91,2656.70,0.00,3759.50,1039.00
1278,992.20,2659.65,0.00,3807.00,1054.00
1280,992.49,2662.60,0.00,3808.50,1038.00
1282,992.78,2665.55,0.00,3868.50,1076.00
1284,993.07,2668.50,0.00,3899.50,1082.50
1286,993.36,2671.44,0.00,3919.00,1069.00
1288,993.65,2674.38,0.00,3950.00,1079.00
1290,993.94,2677.31,12.25,3982.50,1063.50
1292,994.23,2680.25,0.00,3960.00,1054.00
1294,994.52,2683.18,0.00,4004.00,1049.00
1296,994.81,2686.10,0.00,4030.00,1048.50
1298,995.10,2689.03,16.47,4079.50,1058.50
1300,995.39,2691.95,0.00,4072.50,1048.00
1302,995.68,2694.87,0.00,4126.50,1081.00
1304,995.97,2697.78,5.82,4205.50,1076.00
1306,996.26,2700.70,28.98,4211.50,1032.50
1308,996.55,2703.61,132.80,4328.00,1062.50
1310,996.84,2706.51,173.83,4378.00,1069.00
1312,997.13,2709.42,278.79,4449.50,1059.00
1314,997.41,2712.32,376.40,4556.00,1078.50
1316,997.70,2715.21,434.50,4588.00,1052.00
1318,997.99,2718.11,875.72,4792.00,1057.00
1320,998.28,2721.00,861.81,4812.00,1051.00
1322,998.57,2723.89,1108.12,4981.00,1086.00
1324,998.86,2726.77,1202.43,4995.00,1033.50
1326,999.14,2729.66,1374.31,5120.50,1063.00
1328,999.43,2732.54,1625.42,5226.00,1050.50
1330,999.72,2735.41,1564.34,5241.00,1054.00
1332,1000.01,2738.29,1549.24,5311.50,1083.50
1334,1000.29,2741.16,1592.82,5325.50,1053.00
1336,1000.58,2744.03,1594.36,5319.00,1033.50
1338,1000.87,2746.89,1584.48,5386.00,1086.50
1340,1001.15,2749.75,1589.28,5375.50,1051.00
1342,1001.44,2752.61,1312.48,5319.00,1056.00
1344,1001.73,2755.47,1026.62,5253.50,1051.50
1346,1002.01,2758.32,974.97,5258.50,1051.00
1348,1002.30,2761.17,936.16,5279.00,1079.50
1350,1002.59,2764.02,911.76,5294.00,1085.50
1352,1002.87,2766.86,570.48,5174.50,1052.50
1354,1003.16,2769.70,477.50,5155.50,1040.00
1356,1003.44,2772.54,302.05,5113.00,1037.00
1358,1003.73,2775.38,58.24,5076.00,1059.50
1360,1004.01,2778.21,48.28,5090.50,1030.50
1362,1004.30,2781.04,2.46,5104.50,1047.50
1364,1004.58,2783.87,0.00,5077.00,1039.00
1366,1004.87,2786.69,0.00,5072.50,1035.50
1368,1005.15,2789.51,0.00,5151.00,1066.50
1370,1005.44,2792.33,0.00,5184.50,1079.00
1372,1005.72,2795.14,0.00,5235.50,1069.00
1374,1006.01,2797.95,0.00,5346.50,1079.00
1376,1006.29,2800.76,0.00,5411.00,1051.00
1378,1006.58,2803.57,0.00,5558.00,1097.00
1380,1006.86,2806.37,0.00,5637.50,1046.50
1382,1007.14,2809.17,0.00,5809.00,1055.00
1384,1007.43,2811.97,0.00,5938.00,1045.00
1386,1007.71,2814.77,0.00,6100.00,1030.50
1388,1008.00,2817.56,0.00,6274.50,1041.50
1390,1008.28,2820.35,0.00,6559.00,1069.50
1392,1008.56,2823.13,0.00,6652.50,1049.50
1394,1008.85,2825.91,0.00,6966.00,1060.50
1396,1009.13,2828.69,12.47,7222.00,1057.00
1398,1009.41,2831.47,245.75,7546.00,1066.50
1400,1009.69,2834.24,543.73,7715.50,1026.50
1402,1009.98,2837.02,1118.70,8039.00,1045.00
1404,1010.26,2839.78,2141.56,8417.00,1074.00
1406,1010.54,2842.55,3834.25,8779.00,1042.00
1408,1010.82,2845.31,5412.10,9150.00,1070.50
1410,1011.11,2848.07,7364.73,9636.00,1070.50
1412,1011.39,2850.83,9356.11,10155.00,1084.50
1414,1011.67,2853.58,11565.85,10693.50,1059.00
1416,1011.95,2856.33,14006.83,11320.50,1060.50
1418,1012.23,2859.08,16922.59,12043.50,1057.00
1420,1012.51,2861.83,20601.22,12926.50,1036.00
1422,1012.80,2864.57,23965.54,13825.50,1106.50
1424,1013.08,2867.31,27802.54,14775.00,1088.50
1426,1013.36,2870.04,32204.69,15846.00,1089.00
1428,1013.64,2872.78,36810.18,16892.00,1068.00
1430,1013.92,2875.51,41530.15,17992.00,1098.00
1432,1014.20,2878.24,45966.16,18951.50,1072.00
1434,1014.48,2880.96,49601.91,19695.00,1053.50
1436,1014.76,2883.68,52537.89,20256.50,1043.50
1438,1015.04,2886.40,54324.32,20547.00,1044.50
1440,1015.32,2889.12,54695.27,20541.00,1077.00
1442,1015.60,2891.83,54089.71,20262.50,1063.50
1444,1015.88,2894.54,53212.10,19941.50,1077.00
1446,1016.16,2897.25,51885.30,19451.50,1042.00
1448,1016.44,2899.96,50421.23,18967.50,1080.00
1450,1016.72,2902.66,50045.31,18675.50,1054.00
1452,1017.00,2905.36,48529.44,18204.50,1099.00
1454,1017.28,2908.06,47483.72,17782.50,1057.00
1456,1017.55,2910.75,47113.96,17556.00,1081.00
1458,1017.83,2913.44,46752.86,17243.00,1048.50
1460,1018.11,2916.13,47263.43,17215.50,1066.00
1462,1018.39,2918.81,47055.94,17039.00,1070.00
1464,1018.67,2921.49,47616.70,17024.00,1058.00
1466,1018.95,2924.17,48522.47,17083.00,1057.00
1468,1019.22,2926.85,48847.80,17018.00,1076.00
1470,1019.50,2929.52,50171.03,17118.00,1038.00
1472,1019.78,2932.20,51484.61,17249.00,1038.00
1474,1020.06,2934.86,52255.80,17266.50,1052.50
1476,1020.33,2937.53,53424.08,17402.50,1099.00
1478,1020.61,2940.19,53861.87,17301.00,1066.00
1480,1020.89,2942.85,54080.70,17206.00,1072.00
1482,1021.17,2945.51,53939.74,17013.00,1051.00
1484,1021.44,2948.16,53357.50,16749.50,1066.50
1486,1021.72,2950.81,53466.09,16591.00,1053.00
1488,1022.00,2953.46,52137.44,16169.00,1082.50
1490,1022.27,2956.11,50451.85,15650.00,1061.50
1492,1022.55,2958.75,48351.31,15100.50,1095.00
1494,1022.82,2961.39,46340.75,14488.50,1062.50
1496,1023.10,2964.03,43946.77,13878.00,1098.00
1498,1023.38,2966.66,40295.30,12968.00,1061.00
1500,1023.65,2969.29,36451.37,12090.50,1086.00
1502,1023.93,2971.92,33039.73,11288.50,1090.00
1504,1024.20,2974.55,28927.23,10362.00,1077.00
1506,1024.48,2977.17,24947.52,9488.00,1068.50
1508,1024.75,2979.79,20734.87,8539.50,1045.50
1510,1025.03,2982.41,17324.92,7783.50,1051.00
1512,1025.30,2985.02,13987.85,7049.50,1044.00
1514,1025.58,2987.63,10915.34,6400.00,1064.00
1516,1025.85,2990.24,8456.15,5829.50,1045.50
1518,1026.13,2992.85,6413.89,5395.50,1079.00
1520,1026.40,2995.45,4318.44,4915.50,1062.50
1522,1026.68,2998.05,2775.87,4580.50,1047.50
1524,1026.95,3000.65,1287.65,4302.00,1076.00
1526,1027.22,3003.25,298.88,3988.00,1066.50
1528,1027.50,3005.84,55.71,3791.50,1045.50
1530,1027.77,3008.43,0.55,3628.50,1064.50
1532,1028.04,3011.02,0.00,3468.00,1072.00
1534,1028.32,3013.60,0.00,3324.50,1051.00
1536,1028.59,3016.18,0.00,3235.00,1068.50
1538,1028.86,3018.76,0.00,3075.00,1012.50
1540,1029.14,3021.34,0.00,3009.50,1051.00
1542,1029.41,3023.91,0.00,2927.00,1039.00
1544,1029.68,3026.48,0.00,2869.00,1036.00
1546,1029.95,3029.05,0.00,2819.50,1059.00
1548,1030.22,3031.61,0.00,2760.00,1046.50
1550,1030.50,3034.17,0.00,2716.00,1024.50
1552,1030.77,3036.73,0.00,2668.50,1051.50
1554,1031.04,3039.29,0.00,2664.00,1062.50
1556,1031.31,3041.84,0.00,2625.00,1031.00
1558,1031.58,3044.39,0.00,2649.00,1097.00
1560,1031.85,3046.94,0.00,2627.00,1080.50
1562,1032.13,3049.49,0.00,2583.50,1040.00
1564,1032.40,3052.03,0.00,2596.50,1078.00
1566,1032.67,3054.57,17.13,2568.00,1039.50
1568,1032.94,3057.11,0.00,2591.00,1089.00
1570,1033.21,3059.64,165.36,2555.50,1027.00
1572,1033.48,3062.18,0.00,2574.00,1082.50
1574,1033.75,3064.70,0.00,2554.00,1069.50
1576,1034.02,3067.23,0.00,2554.50,1071.00
1578,1034.29,3069.75,9.67,2509.00,1023.00
1580,1034.56,3072.28,0.00,2546.50,1066.50
1582,1034.83,3074.79,0.00,2498.00,1028.50
1584,1035.10,3077.31,0.00,2527.50,1072.00
1586,1035.37,3079.82,0.00,2508.50,1053.00
1588,1035.64,3082.33,0.00,2561.50,1094.00
1590,1035.91,3084.84,0.00,2545.50,1071.00
1592,1036.17,3087.34,0.00,2522.00,1051.50
1594,1036.44,3089.85,0.00,2565.50,1092.00
1596,1036.71,3092.35,0.00,2528.50,1052.50
1598,1036.98,3094.84,3.66,2534.00,1034.00
1600,1037.25,3097.34,0.00,2539.00,1035.00
1602,1037.52,3099.83,69.73,2571.00,1050.00
1604,1037.78,3102.32,240.84,2605.00,1060.00
1606,1038.05,3104.80,58.45,2617.50,1083.50
1608,1038.32,3107.29,224.04,2603.50,1040.00
1610,1038.59,3109.77,0.00,2583.00,1051.50
1612,1038.85,3112.24,206.86,2621.00,1043.00
1614,1039.12,3114.72,58.18,2655.50,1086.50
1616,1039.39,3117.19,0.00,2579.50,1026.50
1618,1039.66,3119.66,0.00,2637.00,1082.00
1620,1039.92,3122.13,137.54,2692.00,1083.50
1622,1040.19,3124.59,1.82,2656.50,1055.00
1624,1040.45,3127.05,0.00,2665.00,1055.00
1626,1040.72,3129.51,120.85,2715.50,1072.00
1628,1040.99,3131.97,209.58,2726.50,1072.00
1630,1041.25,3134.42,0.00,2745.50,1100.50
1632,1041.52,3136.87,58.52,2706.50,1038.00
1634,1041.78,3139.32,47.33,2739.50,1054.00
1636,1042.05,3141.77,0.00,2831.00,1153.00
1638,1042.32,3144.21,0.00,2730.50,1060.00
1640,1042.58,3146.65,97.54,2804.50,1087.00
1642,1042.85,3149.09,108.41,2799.00,1070.50
1644,1043.11,3151.52,50.05,2793.50,1057.00
1646,1043.38,3153.96,157.86,2848.00,1085.00
1648,1043.64,3156.39,110.35,2827.50,1062.50
1650,1043.90,3158.81,473.87,2869.00,1059.50
1652,1044.17,3161.24,198.61,2881.50,1084.50
1654,1044.43,3163.66,133.03,2845.00,1043.00
1656,1044.70,3166.08,141.55,2922.00,1113.00
1658,1044.96,3168.49,918.35,2948.00,1060.00
1660,1045.22,3170.91,687.43,2918.00,1056.00
1662,1045.49,3173.32,606.31,2925.00,1061.50
1664,1045.75,3175.73,469.16,2930.00,1070.50
1666,1046.01,3178.13,890.52,2966.00,1056.00
1668,1046.28,3180.54,771.62,2972.50,1080.50
1670,1046.54,3182.94,1067.62,2988.50,1081.50
1672,1046.80,3185.34,1506.49,3005.00,1079.00
1674,1047.07,3187.73,2034.83,3003.00,1050.00
1676,1047.33,3190.12,2328.58,3031.50,1073.00
1678,1047.59,3192.51,2924.16,3066.50,1073.00
1680,1047.85,3194.90,3128.29,3112.00,1115.00
1682,1048.11,3197.29,3103.30,3070.50,1089.00
1684,1048.38,3199.67,3635.29,3095.00,1078.50
1686,1048.64,3202.05,3980.20,3132.00,1100.50
1688,1048.90,3204.43,4204.98,3113.00,1083.50
1690,1049.16,3206.80,5012.28,3146.00,1070.50
1692,1049.42,3209.17,5495.55,3167.00,1072.00
1694,1049.68,3211.54,5733.15,3159.50,1062.50
1696,1049.94,3213.91,6095.86,3175.50,1067.50
1698,1050.20,3216.27,6707.52,3218.00,1079.50
1700,1050.46,3218.63,6779.88,3232.50,1106.00
1702,1050.72,3220.99,7222.78,3224.00,1075.00
1704,1050.98,3223.35,6831.36,3189.00,1089.50
1706,1051.24,3225.70,7370.53,3194.50,1071.00
1708,1051.50,3228.05,8209.42,3210.50,1042.00
1710,1051.76,3230.40,8266.17,3245.00,1097.00
1712,1052.02,3232.75,8791.81,3242.00,1075.50
1714,1052.28,3235.09,8968.92,3250.50,1088.00
1716,1052.54,3237.43,9339.00,3255.00,1078.00
1718,1052.80,3239.77,9691.19,3233.50,1046.00
1720,1053.06,3242.11,9932.95,3256.50,1073.00
1722,1053.32,3244.44,10329.72,3237.00,1052.00
1724,1053.58,3246.77,11202.01,3329.50,1107.00
1726,1053.84,3249.10,11219.64,3268.00,1061.50
1728,1054.10,3251.42,11096.89,3261.00,1075.00
1730,1054.35,3253.75,11245.88,3250.50,1072.00
1732,1054.61,3256.07,11624.52,3272.50,1093.00
1734,1054.87,3258.39,12192.65,3262.00,1068.50
1736,1055.13,3260.70,12753.61,3271.50,1061.50
1738,1055.38,3263.01,12492.78,3228.00,1058.00
1740,1055.64,3265.32,12779.31,3240.00,1071.00
1742,1055.90,3267.63,13096.89,3223.00,1051.00
1744,1056.16,3269.94,12911.03,3249.00,1106.50
1746,1056.41,3272.24,12895.76,3235.50,1111.00
1748,1056.67,3274.54,12651.86,3163.00,1075.00
1750,1056.93,3276.84,13513.02,3203.00,1081.00
1752,1057.18,3279.13,13315.06,3150.00,1066.50
1754,1057.44,3281.42,13373.03,3121.50,1058.00
1756,1057.69,3283.71,13264.87,3108.50,1072.00
1758,1057.95,3286.00,13290.00,3123.50,1102.50
1760,1058.21,3288.28,13493.63,3076.00,1058.00
1762,1058.46,3290.57,13428.14,3103.50,1105.50
1764,1058.72,3292.85,12929.56,3043.00,1095.00
1766,1058.97,3295.12,13745.98,3033.00,1057.00
1768,1059.23,3297.40,13404.22,2993.00,1060.00
1770,1059.48,3299.67,13602.30,3007.50,1081.50
1772,1059.74,3301.94,13667.16,2959.50,1048.50
1774,1059.99,3304.21,13825.18,2987.00,1087.50
1776,1060.25,3306.47,14309.52,3019.00,1111.00
1778,1060.50,3308.73,13931.13,2936.00,1066.50
1780,1060.76,3310.99,13980.97,2919.00,1063.50
1782,1061.01,3313.25,13970.56,2914.50,1079.00
1784,1061.26,3315.50,13845.21,2878.50,1069.00
1786,1061.52,3317.76,13695.07,2870.00,1085.50
1788,1061.77,3320.01,13812.24,2878.00,1102.50
1790,1062.02,3322.25,14364.46,2846.00,1055.00
1792,1062.28,3324.50,14047.11,2823.50,1066.50
1794,1062.53,3326.74,14057.18,2778.50,1044.50
1796,1062.78,3328.98,14684.85,2812.00,1072.00
1798,1063.04,3331.22,15013.48,2796.00,1057.00
1800,1063.29,3333.45,14334.32,2755.00,1057.00
1802,1063.54,3335.68,13924.88,2735.00,1065.50
1804,1063.79,3337.91,14242.93,2755.00,1087.50
1806,1064.05,3340.14,14339.60,2759.00,1111.00
1808,1064.30,3342.36,14492.73,2679.00,1044.50
1810,1064.55,3344.59,14182.84,2692.00,1089.50
1812,1064.80,3346.81,14867.71,2674.50,1054.00
1814,1065.05,3349.02,15368.28,2690.50,1059.00
1816,1065.30,3351.24,14560.87,2675.50,1094.00
1818,1065.55,3353.45,14384.32,2629.50,1070.50
1820,1065.81,3355.66,14137.48,2647.00,1118.00
1822,1066.06,3357.87,15195.21,2618.50,1059.00
1824,1066.31,3360.07,14986.14,2578.50,1045.50
1826,1066.56,3362.27,15212.95,2607.00,1080.00
1828,1066.81,3364.47,14737.21,2536.50,1046.50
1830,1067.06,3366.67,14777.42,2556.50,1078.00
1832,1067.31,3368.87,14900.39,2536.50,1063.50
1834,1067.56,3371.06,14515.64,2475.00,1030.50
1836,1067.81,3373.25,14603.23,2464.50,1032.00
1838,1068.06,3375.44,15187.32,2486.50,1047.50
1840,1068.31,3377.62,15120.26,2466.50,1046.50
1842,1068.56,3379.81,15173.88,2441.00,1031.50
1844,1068.80,3381.99,14555.65,2480.00,1108.50
1846,1069.05,3384.16,14702.97,2444.00,1080.00
1848,1069.30,3386.34,14145.45,2389.50,1063.50
1850,1069.55,3388.51,15153.60,2395.00,1044.50
1852,1069.80,3390.68,14755.89,2387.00,1065.50
1854,1070.05,3392.85,15046.00,2438.00,1114.00
1856,1070.30,3395.02,14192.72,2348.00,1067.00
1858,1070.54,3397.18,14476.07,2323.00,1045.50
1860,1070.79,3399.34,14675.64,2327.50,1060.00
1862,1071.04,3401.50,14994.62,2313.50,1048.50
1864,1071.29,3403.66,14389.62,2263.50,1031.00
1866,1071.53,3405.81,14190.57,2286.00,1070.00
1868,1071.78,3407.96,14192.81,2259.50,1054.00
1870,1072.03,3410.11,13402.09,2246.50,1082.00
1872,1072.27,3412.26,14253.11,2247.50,1066.50
1874,1072.52,3414.40,13996.11,2209.50,1054.00
1876,1072.77,3416.54,14783.40,2225.50,1057.00
1878,1073.01,3418.68,13984.71,2207.50,1076.00
1880,1073.26,3420.82,13701.31,2129.50,1013.00
1882,1073.51,3422.96,13993.84,2188.50,1068.50
1884,1073.75,3425.09,12599.63,2132.50,1073.00
1886,1074.00,3427.22,13376.68,2104.00,1034.00
1888,1074.24,3429.35,13475.82,2145.00,1084.50
1890,1074.49,3431.47,12358.67,2060.00,1044.50
1892,1074.73,3433.59,12313.07,2046.00,1040.50
1894,1074.98,3435.71,12776.02,2095.50,1085.50
1896,1075.22,3437.83,13320.14,2071.50,1053.50
1898,1075.47,3439.95,11874.06,2044.00,1079.00
1900,1075.71,3442.06,12793.35,2064.00,1078.00
1902,1075.96,3444.17,13004.05,2034.50,1055.00
1904,1076.20,3446.28,13128.97,1956.00,989.50
1906,1076.44,3448.38,13207.77,2051.50,1098.00
1908,1076.69,3450.49,12461.89,1999.50,1077.00
1910,1076.93,3452.59,12669.67,1991.00,1065.50
1912,1077.17,3454.69,11645.24,1947.50,1053.00
1914,1077.42,3456.79,10836.53,1927.00,1060.00
1916,1077.66,3458.88,10112.87,1893.50,1058.00
1918,1077.90,3460.97,11124.60,1891.50,1042.50
1920,1078.15,3463.06,10919.29,1924.50,1095.00
1922,1078.39,3465.15,10767.74,1882.00,1062.50
1924,1078.63,3467.23,10288.15,1821.00,1018.00
1926,1078.87,3469.32,10122.31,1865.50,1075.00
1928,1079.12,3471.40,10306.36,1833.00,1049.50
1930,1079.36,3473.47,10393.45,1882.50,1107.00
1932,1079.60,3475.55,9831.02,1788.50,1033.00
1934,1079.84,3477.62,8897.23,1800.00,1071.50
1936,1080.08,3479.69,8186.68,1752.00,1046.50
1938,1080.33,3481.76,8137.65,1734.00,1038.00
1940,1080.57,3483.83,8812.06,1762.00,1060.00
1942,1080.81,3485.89,8657.06,1744.00,1057.00
1944,1081.05,3487.95,8642.04,1757.50,1078.00
1946,1081.29,3490.01,8099.34,1733.00,1069.50
1948,1081.53,3492.07,7170.99,1694.00,1055.00
1950,1081.77,3494.12,6693.65,1660.00,1037.00
1952,1082.01,3496.18,6373.66,1690.00,1083.00
1954,1082.25,3498.23,6376.31,1639.00,1042.00
1956,1082.49,3500.27,7424.91,1674.00,1061.50
1958,1082.73,3502.32,6274.61,1622.00,1041.50
1960,1082.97,3504.36,6296.60,1646.50,1069.00
1962,1083.21,3506.40,5291.07,1597.00,1045.50
1964,1083.45,3508.44,5641.14,1574.00,1018.00
1966,1083.69,3510.48,4770.39,1635.00,1104.50
1968,1083.93,3512.51,4353.03,1587.50,1073.00
1970,1084.16,3514.54,4928.25,1576.00,1055.00
1972,1084.40,3516.57,4277.19,1552.50,1050.50
1974,1084.64,3518.60,4469.46,1542.00,1040.00
1976,1084.88,3520.62,4128.91,1576.00,1086.50
1978,1085.12,3522.65,3307.03,1553.50,1087.50
1980,1085.36,3524.67,4063.71,1540.00,1064.00
1982,1085.59,3526.68,3526.52,1504.00,1041.00
1984,1085.83,3528.70,3071.98,1531.50,1078.00
1986,1086.07,3530.71,1521.10,1461.50,1045.00
1988,1086.31,3532.72,2624.58,1500.00,1069.50
1990,1086.54,3534.73,3042.37,1468.00,1040.00
1992,1086.78,3536.74,2680.90,1505.00,1091.00
1994,1087.02,3538.74,2290.68,1463.50,1061.50
1996,1087.25,3540.74,1464.88,1413.50,1034.00
1998,1087.49,3542.74,1981.33,1448.00,1065.50
2000,1087.73,3544.74,1733.39,1432.00,1063.50
2002,1087.96,3546.74,2339.66,1429.00,1058.00
2004,1088.20,3548.73,2102.28,1445.00,1084.50
2006,1088.43,3550.72,1736.53,1406.00,1056.00
2008,1088.67,3552.71,1149.39,1383.50,1048.50
2010,1088.90,3554.69,1557.20,1363.00,1024.50
2012,1089.14,3556.68,1389.00,1393.00,1067.00
2014,1089.38,3558.66,2262.50,1365.50,1036.00
2016,1089.61,3560.64,2822.86,1359.50,1031.00
2018,1089.84,3562.62,2744.26,1391.50,1065.50
2020,1090.08,3564.59,805.03,1329.00,1036.00
2022,1090.31,3566.56,727.86,1330.00,1041.00
2024,1090.55,3568.53,37.36,1312.50,1045.50
2026,1090.78,3570.50,1034.40,1305.00,1022.50
2028,1091.02,3572.47,970.16,1292.50,1021.00
2030,1091.25,3574.43,1464.47,1290.00,1020.00
2032,1091.48,3576.39,384.01,1247.00,997.50
2034,1091.72,3578.35,1918.86,1257.50,991.50
2036,1091.95,3580.31,558.22,1274.50,1030.50
2038,1092.18,3582.26,734.32,1249.50,1000.00
2040,1092.42,3584.22,0.00,1219.00,1002.00
2042,1092.65,3586.17,23.35,1231.50,1006.00
2044,1092.88,3588.12,0.00,1206.00,993.00
2046,1093.11,3590.06,0.00,1210.00,999.00
2047,1093.23,3591.03,0.00,1180.00,973.50