File: enlighten/plugins/Raman/MatchingLibrary/785X/hydrocortisone.csv
ENLIGHTEN Version,4.1.22
Measurement ID,20250220-203010-703651-WP-01977
Serial Number,WP-01977
Model,WP-785X-F13-R-ILC
Detector,S16011-1106
Label,hydrocortisone
Declared Match,
Declared Score,0
Scan Averaging,4
Boxcar,0
Technique,Raman
Baseline Correction Algo,AirPLS
ROI Pixel Start,47
ROI Pixel End,2047
ROI Start Line,0
ROI Stop Line,63
CCD C4,1.38617e-12
Slit Width,25
Cropped,True
Interpolated,False
Wavenumber Correction,-0.100481
Raman Intensity Corrected,True
Deconvolved,True
Region,
High Gain Mode,False
Laser Power mW,
Electrical Dark Correction,False
Battery %,
Device ID,<DeviceID USB:0x24aa:0x1000:0:1>
FW Version,10.0.0.10
FPGA Version,035-001
BLE Version,
Prefix,enlighten
Suffix,
Preset,
Auto-Raman,True
Session Count,0
Plugin Name,
Integration Time,325
Timestamp,2025-02-20 20:30:10.7037
Note,
Temperature,0
CCD C0,793.274
CCD C1,0.153259
CCD C2,1.40788e-05
CCD C3,-1.132e-08
CCD Offset,0
CCD Gain,1.9
CCD Offset Odd,0
CCD Gain Odd,1.9
Laser Wavelength,785.032
Laser Enable,False
Laser Power %,0
Laser Temperature,0
Pixel Count,2048

Pixel,Wavelength,Wavenumber,Processed,Raw,Dark
0,793.27,132.25,NA,962.75,912.25
2,793.58,137.12,NA,969.75,929.00
4,793.89,141.99,NA,969.00,921.00
6,794.19,146.86,NA,969.75,928.00
8,794.50,151.72,NA,982.50,929.75
10,794.81,156.58,NA,981.75,927.00
12,795.12,161.44,NA,974.00,917.00
14,795.42,166.30,NA,972.00,918.75
16,795.73,171.16,NA,982.00,921.25
18,796.04,176.01,NA,989.50,933.00
20,796.35,180.86,NA,998.00,937.25
22,796.65,185.71,NA,1014.00,947.75
24,796.96,190.56,NA,998.00,936.75
26,797.27,195.41,NA,1011.75,945.00
28,797.58,200.25,NA,1011.25,941.00
30,797.88,205.09,NA,1006.75,927.25
32,798.19,209.93,NA,1020.50,925.00
34,798.50,214.77,NA,1030.25,929.25
36,798.81,219.60,NA,1055.50,930.00
38,799.12,224.43,NA,1178.75,931.25
40,799.43,229.27,NA,1820.25,948.25
42,799.74,234.09,NA,4336.25,937.75
44,800.04,238.92,NA,7749.25,960.50
46,800.35,243.75,NA,7898.50,938.25
48,800.66,248.57,1223.53,6117.50,949.75
50,800.97,253.39,1.33,4829.00,953.75
52,801.28,258.21,0.00,4367.50,955.25
54,801.59,263.02,0.00,4192.25,953.00
56,801.90,267.83,0.00,4168.25,945.50
58,802.21,272.65,1.56,4330.25,950.25
60,802.52,277.46,255.65,4675.25,951.00
62,802.83,282.26,803.60,5096.25,954.50
64,803.14,287.07,1008.04,5161.75,958.50
66,803.45,291.87,261.61,4675.25,954.50
68,803.76,296.67,0.00,4017.25,953.25
70,804.07,301.47,0.00,3821.50,946.00
72,804.38,306.26,39.44,4255.00,937.25
74,804.69,311.06,719.73,5001.50,945.00
76,805.00,315.85,1739.67,5921.50,936.75
78,805.31,320.64,1851.04,5979.50,945.50
80,805.62,325.42,670.14,4992.75,953.00
82,805.93,330.21,70.66,4131.00,949.25
84,806.24,334.99,88.69,4146.25,931.25
86,806.55,339.77,852.81,5221.25,944.00
88,806.86,344.55,2328.13,6648.50,957.25
90,807.17,349.32,2745.57,7180.25,941.00
92,807.48,354.10,2082.54,6682.75,943.00
94,807.80,358.87,1661.31,6230.50,954.75
96,808.11,363.63,1933.56,6391.25,947.50
98,808.42,368.40,2232.72,6578.00,938.50
100,808.73,373.16,1843.05,6130.00,938.75
102,809.04,377.93,1363.57,5483.50,940.00
104,809.35,382.68,821.92,4772.50,933.75
106,809.66,387.44,374.42,4170.50,944.00
108,809.98,392.19,307.81,3921.25,932.50
110,810.29,396.95,284.89,3814.00,947.50
112,810.60,401.70,8.71,3520.50,935.50
114,810.91,406.44,0.00,3322.75,940.50
116,811.22,411.19,0.00,3392.00,950.75
118,811.54,415.93,144.84,3908.75,944.00
120,811.85,420.67,1050.10,4796.00,936.00
122,812.16,425.41,1569.12,5554.25,936.50
124,812.47,430.14,1943.14,6094.50,950.25
126,812.79,434.87,2176.29,6249.25,934.25
128,813.10,439.60,1497.24,5546.75,929.25
130,813.41,444.33,937.93,4827.25,933.50
132,813.72,449.06,890.39,4616.00,930.75
134,814.04,453.78,813.35,4509.75,939.50
136,814.35,458.50,831.46,4514.00,927.00
138,814.66,463.22,1012.30,4602.75,932.75
140,814.98,467.93,812.98,4329.00,928.25
142,815.29,472.65,311.75,3736.50,936.00
144,815.60,477.36,66.58,3358.75,937.25
146,815.92,482.06,1.07,3175.50,924.00
148,816.23,486.77,0.00,3135.00,943.00
150,816.54,491.47,0.78,3176.00,953.50
152,816.86,496.17,105.67,3308.50,925.00
154,817.17,500.87,293.18,3411.00,937.75
156,817.48,505.57,55.08,3242.25,933.25
158,817.80,510.26,0.44,3085.00,930.75
160,818.11,514.95,12.67,3224.50,940.50
162,818.42,519.64,315.51,3890.75,938.25
164,818.74,524.32,1500.83,5441.50,940.50
166,819.05,529.00,2938.65,7004.75,948.00
168,819.37,533.68,2679.74,7081.25,937.00
170,819.68,538.36,2093.72,6593.50,944.00
172,819.99,543.04,2703.92,7100.75,956.75
174,820.31,547.71,2797.65,7034.75,941.25
176,820.62,552.38,1931.97,6044.00,930.50
178,820.94,557.05,1475.81,5295.00,939.25
180,821.25,561.71,1091.63,4628.25,924.00
182,821.57,566.37,700.55,4072.50,930.75
184,821.88,571.03,553.99,3851.00,934.25
186,822.20,575.69,651.65,3988.75,935.25
188,822.51,580.34,1086.72,4448.50,935.50
190,822.83,584.99,1308.41,4629.25,936.75
192,823.14,589.64,730.04,4108.25,935.75
194,823.46,594.29,574.39,3980.00,934.50
196,823.77,598.93,1221.38,4767.75,935.50
198,824.09,603.57,2032.90,5475.00,929.75
200,824.40,608.21,1468.01,4924.50,932.25
202,824.72,612.85,566.12,3825.25,945.50
204,825.03,617.48,249.67,3205.75,942.00
206,825.35,622.11,223.72,3114.25,948.50
208,825.66,626.74,352.96,3434.00,942.50
210,825.98,631.36,942.99,4621.75,929.25
212,826.29,635.99,2898.45,7236.50,938.25
214,826.61,640.61,4571.39,9068.75,943.00
216,826.92,645.22,3794.53,8464.25,932.25
218,827.24,649.84,2516.56,7046.50,922.00
220,827.56,654.45,2039.42,6497.75,946.50
222,827.87,659.06,3233.19,7843.00,940.50
224,828.19,663.67,4643.05,8937.00,936.25
226,828.50,668.27,2976.52,7221.25,964.00
228,828.82,672.87,987.40,4534.25,942.50
230,829.13,677.47,320.73,3151.25,928.50
232,829.45,682.06,77.86,2612.00,940.50
234,829.77,686.66,5.85,2436.75,965.50
236,830.08,691.25,6.75,2388.50,934.00
238,830.40,695.83,125.56,2565.75,933.75
240,830.72,700.42,383.94,2719.50,930.25
242,831.03,705.00,140.98,2514.75,916.00
244,831.35,709.58,1.57,2269.25,930.25
246,831.66,714.15,0.00,2122.50,915.50
248,831.98,718.73,0.00,2118.75,933.25
250,832.30,723.30,0.00,2102.25,924.50
252,832.61,727.87,0.00,2133.75,943.50
254,832.93,732.43,0.50,2195.75,912.75
256,833.25,736.99,60.47,2410.00,934.75
258,833.56,741.55,322.65,2788.75,933.00
260,833.88,746.11,652.93,3204.00,930.75
262,834.20,750.66,646.62,3327.75,933.25
264,834.51,755.22,605.16,3466.50,937.25
266,834.83,759.76,966.82,4143.00,933.00
268,835.15,764.31,1780.07,5376.00,940.25
270,835.47,768.85,2746.45,6665.00,929.50
272,835.78,773.39,3064.13,7080.00,926.50
274,836.10,777.93,2450.85,6316.00,928.50
276,836.42,782.46,1512.96,5057.75,928.75
278,836.73,787.00,796.61,4081.50,928.00
280,837.05,791.52,772.65,4102.00,918.00
282,837.37,796.05,1721.09,5341.50,935.75
284,837.69,800.57,2749.88,6275.50,925.25
286,838.00,805.09,1756.99,5275.00,926.00
288,838.32,809.61,518.14,3665.00,924.50
290,838.64,814.13,65.13,2814.00,941.50
292,838.95,818.64,1.03,2528.50,929.75
294,839.27,823.15,1.24,2539.50,929.25
296,839.59,827.65,121.07,2775.50,933.25
298,839.91,832.15,299.39,2875.25,929.75
300,840.22,836.65,19.64,2735.25,950.75
302,840.54,841.15,0.00,2491.25,925.75
304,840.86,845.65,0.00,2561.75,935.75
306,841.18,850.14,53.55,3029.50,937.25
308,841.50,854.63,679.71,4070.00,961.75
310,841.81,859.11,1911.49,5361.00,935.50
312,842.13,863.60,1767.93,5305.25,934.50
314,842.45,868.07,490.96,3954.75,927.50
316,842.77,872.55,134.06,3246.25,938.25
318,843.08,877.03,263.42,3416.25,959.75
320,843.40,881.50,537.89,3744.75,914.25
322,843.72,885.97,675.04,4120.25,942.00
324,844.04,890.43,1034.86,4714.75,923.00
326,844.36,894.89,1292.88,5129.00,927.50
328,844.67,899.35,1635.44,5494.50,940.00
330,844.99,903.81,1195.51,5051.00,922.50
332,845.31,908.26,534.86,4337.50,941.25
334,845.63,912.71,727.87,4725.25,933.50
336,845.95,917.16,1697.87,5944.25,936.75
338,846.27,921.61,2407.65,6877.00,1068.50
340,846.58,926.05,1747.48,6240.00,936.75
342,846.90,930.49,1237.56,5669.50,930.25
344,847.22,934.92,1477.23,6056.50,935.75
346,847.54,939.36,1886.65,6954.00,916.75
348,847.86,943.79,3171.21,9032.75,917.50
350,848.18,948.21,5645.81,11535.75,925.00
352,848.49,952.64,4479.25,10434.00,929.75
354,848.81,957.06,1478.61,6895.00,921.25
356,849.13,961.48,915.75,5620.75,941.00
358,849.45,965.89,1665.10,6104.25,940.50
360,849.77,970.31,1501.53,5927.75,936.25
362,850.09,974.71,743.18,5297.00,928.00
364,850.40,979.12,977.46,5873.25,938.50
366,850.72,983.52,2773.88,7806.00,947.50
368,851.04,987.92,3134.32,7974.75,922.00
370,851.36,992.32,720.60,5654.50,917.25
372,851.68,996.72,86.09,4265.75,933.00
374,852.00,1001.11,278.15,4654.50,917.75
376,852.32,1005.50,1516.81,5841.50,919.00
378,852.63,1009.88,1217.29,5709.75,947.25
380,852.95,1014.26,270.05,4677.25,932.00
382,853.27,1018.64,276.42,4758.50,941.50
384,853.59,1023.02,937.49,5678.25,925.75
386,853.91,1027.39,1945.97,6665.50,922.50
388,854.23,1031.76,1471.94,6313.25,927.00
390,854.55,1036.13,474.11,5187.00,932.25
392,854.87,1040.49,245.70,4739.75,925.00
394,855.18,1044.86,554.16,5084.25,931.25
396,855.50,1049.21,796.72,5417.00,932.50
398,855.82,1053.57,587.98,5375.50,934.00
400,856.14,1057.92,1181.66,5978.25,929.50
402,856.46,1062.27,1229.96,5995.75,935.25
404,856.78,1066.62,66.34,4835.00,917.25
406,857.10,1070.96,0.00,4251.75,919.25
408,857.42,1075.30,53.49,4690.00,941.50
410,857.74,1079.64,574.76,5189.25,927.00
412,858.06,1083.97,564.41,5378.25,924.00
414,858.37,1088.30,684.58,5842.25,918.25
416,858.69,1092.63,1511.46,7013.25,917.75
418,859.01,1096.95,2379.35,7997.25,920.00
420,859.33,1101.27,2019.20,7784.50,930.50
422,859.65,1105.59,1559.39,7333.75,928.25
424,859.97,1109.91,1455.25,7165.75,922.00
426,860.29,1114.22,1726.92,7342.50,919.00
428,860.61,1118.53,1797.06,7298.75,922.50
430,860.93,1122.84,1001.21,6462.25,925.00
432,861.25,1127.14,603.33,5881.75,939.25
434,861.56,1131.44,892.74,6092.50,922.50
436,861.88,1135.74,822.22,6147.50,926.00
438,862.20,1140.03,709.53,6429.50,933.00
440,862.52,1144.32,1921.80,8498.75,932.00
442,862.84,1148.61,4526.61,11098.75,934.00
444,863.16,1152.89,4121.93,10755.50,924.00
446,863.48,1157.17,1679.17,8169.00,933.25
448,863.80,1161.45,690.57,6502.50,927.50
450,864.12,1165.73,738.16,6332.50,932.50
452,864.44,1170.00,1282.33,6773.25,926.75
454,864.76,1174.27,1322.54,6782.00,932.75
456,865.07,1178.53,544.83,5986.75,919.75
458,865.39,1182.80,253.18,5501.00,933.00
460,865.71,1187.06,362.46,5614.75,926.00
462,866.03,1191.31,344.53,5742.00,928.00
464,866.35,1195.57,745.52,6585.00,923.50
466,866.67,1199.82,2128.27,8221.25,937.00
468,866.99,1204.06,2626.76,8893.25,935.25
470,867.31,1208.31,1774.64,8413.00,934.00
472,867.63,1212.55,1972.61,9143.75,934.75
474,867.95,1216.79,3554.18,11643.00,912.50
476,868.27,1221.02,6623.19,15364.25,933.00
478,868.58,1225.25,8674.49,17581.25,916.75
480,868.90,1229.48,5683.44,15043.25,938.25
482,869.22,1233.71,4162.95,13104.00,940.50
484,869.54,1237.93,5578.66,13881.00,950.25
486,869.86,1242.15,5259.47,12917.75,930.00
488,870.18,1246.36,2517.68,9683.00,917.00
490,870.50,1250.58,971.90,7325.00,936.00
492,870.82,1254.79,193.67,6050.25,948.00
494,871.14,1258.99,7.78,5424.75,940.75
496,871.46,1263.20,72.20,5812.25,929.50
498,871.78,1267.40,865.78,7199.00,929.75
500,872.10,1271.59,2522.78,9128.75,923.25
502,872.41,1275.79,3396.84,10420.00,928.50
504,872.73,1279.98,3627.53,10927.50,936.00
506,873.05,1284.17,3276.00,10616.50,938.75
508,873.37,1288.35,2720.21,9891.50,907.50
510,873.69,1292.53,2789.47,9789.50,921.50
512,874.01,1296.71,2678.74,9515.00,925.50
514,874.33,1300.88,2244.36,8870.75,914.00
516,874.65,1305.06,2013.78,8374.50,928.00
518,874.97,1309.22,1261.02,7410.50,920.00
520,875.29,1313.39,711.28,6685.75,923.50
522,875.60,1317.55,803.10,6861.75,931.75
524,875.92,1321.71,1291.88,7757.75,924.50
526,876.24,1325.87,2589.61,9675.00,939.50
528,876.56,1330.02,4976.66,12159.50,922.50
530,876.88,1334.17,4615.69,12144.75,940.00
532,877.20,1338.32,2989.93,10674.00,920.75
534,877.52,1342.46,3351.77,11009.50,922.75
536,877.84,1346.60,4508.35,12002.00,933.50
538,878.16,1350.73,4492.48,11960.75,921.75
540,878.47,1354.87,3681.99,11186.00,929.50
542,878.79,1359.00,3133.06,10446.00,922.75
544,879.11,1363.13,3282.48,10399.00,931.00
546,879.43,1367.25,3245.43,10112.25,924.75
548,879.75,1371.37,2825.48,9510.75,923.00
550,880.07,1375.49,1998.23,8435.75,919.75
552,880.39,1379.60,1457.60,7624.50,928.00
554,880.71,1383.71,1260.63,7204.50,922.00
556,881.03,1387.82,1079.99,6872.50,924.00
558,881.34,1391.93,991.26,6684.25,909.75
560,881.66,1396.03,841.78,6555.75,924.25
562,881.98,1400.13,754.28,6574.25,937.75
564,882.30,1404.22,1261.43,7297.00,928.25
566,882.62,1408.31,2217.02,8253.50,916.50
568,882.94,1412.40,2490.22,8554.00,932.25
570,883.26,1416.49,1668.50,7895.25,926.50
572,883.57,1420.57,1234.42,7579.25,939.25
574,883.89,1424.65,1925.67,8626.00,917.75
576,884.21,1428.73,3817.28,10806.25,936.75
578,884.53,1432.80,5189.64,12252.25,940.00
580,884.85,1436.87,4556.76,11901.00,920.75
582,885.17,1440.93,3511.29,10919.75,917.75
584,885.49,1445.00,3519.22,10706.00,921.00
586,885.80,1449.06,4178.49,11078.25,917.75
588,886.12,1453.11,3561.96,10335.50,938.75
590,886.44,1457.17,2641.17,9223.00,929.00
592,886.76,1461.22,2082.91,8403.50,925.50
594,887.08,1465.26,1791.29,7946.25,941.00
596,887.40,1469.31,1778.69,7810.50,913.25
598,887.71,1473.35,1931.21,7810.25,920.75
600,888.03,1477.38,1921.00,7635.75,923.00
602,888.35,1481.42,1102.54,6738.75,932.25
604,888.67,1485.45,443.11,5854.75,927.50
606,888.99,1489.48,219.52,5405.25,917.00
608,889.31,1493.50,120.39,5197.75,934.00
610,889.62,1497.52,66.53,5089.50,929.50
612,889.94,1501.54,15.40,4989.00,913.00
614,890.26,1505.56,0.49,4951.50,921.75
616,890.58,1509.57,0.00,4923.50,925.00
618,890.90,1513.57,0.00,4899.50,920.75
620,891.21,1517.58,0.00,4865.25,923.00
622,891.53,1521.58,0.00,4835.50,925.50
624,891.85,1525.58,0.00,4835.50,926.00
626,892.17,1529.57,0.00,4849.00,925.75
628,892.49,1533.57,0.00,4843.75,925.00
630,892.80,1537.56,0.00,4843.25,918.50
632,893.12,1541.54,0.00,4852.50,914.25
634,893.44,1545.52,0.00,4869.75,933.50
636,893.76,1549.50,0.00,4845.00,909.50
638,894.07,1553.48,0.00,4940.75,936.00
640,894.39,1557.45,5.47,5077.50,916.75
642,894.71,1561.42,133.87,5263.75,930.50
644,895.03,1565.39,183.02,5334.75,910.75
646,895.34,1569.35,108.37,5372.25,936.25
648,895.66,1573.31,258.36,5629.75,914.75
650,895.98,1577.26,627.81,6086.25,922.00
652,896.30,1581.22,1159.87,6666.75,913.75
654,896.61,1585.17,1357.93,7000.00,923.50
656,896.93,1589.11,1436.22,7320.00,930.00
658,897.25,1593.06,1796.46,8130.50,915.50
660,897.57,1597.00,2816.31,10370.75,924.50
662,897.88,1600.93,5565.20,15531.00,928.00
664,898.20,1604.87,13736.04,25836.25,927.00
666,898.52,1608.80,26699.28,36943.25,925.00
668,898.84,1612.72,23883.61,35024.25,917.50
670,899.15,1616.65,11279.20,23802.75,932.50
672,899.47,1620.57,6381.06,17210.25,920.00
674,899.79,1624.49,7884.37,17895.50,924.75
676,900.10,1628.40,12692.14,22566.00,919.25
678,900.42,1632.31,14580.32,26162.25,931.00
680,900.74,1636.22,16778.11,30553.75,914.50
682,901.05,1640.12,26474.90,39760.75,941.50
684,901.37,1644.02,30689.09,41991.50,929.75
686,901.69,1647.92,18718.93,31244.50,933.00
688,902.00,1651.82,8723.27,19562.50,927.00
690,902.32,1655.71,4600.62,12816.75,915.50
692,902.64,1659.60,2635.99,9222.75,914.75
694,902.95,1663.48,1606.08,7426.75,931.75
696,903.27,1667.36,1059.67,6488.50,925.50
698,903.59,1671.24,659.43,5888.75,935.00
700,903.90,1675.11,371.75,5459.50,926.50
702,904.22,1678.99,185.49,5164.75,909.00
704,904.54,1682.85,66.09,5016.00,947.75
706,904.85,1686.72,17.08,4856.25,918.50
708,905.17,1690.58,30.15,4839.50,918.75
710,905.49,1694.44,137.01,5002.50,918.50
712,905.80,1698.29,487.69,5476.50,919.50
714,906.12,1702.15,1363.67,6401.50,927.75
716,906.43,1706.00,2284.76,7224.75,926.50
718,906.75,1709.84,2327.47,7299.25,934.00
720,907.07,1713.68,2122.99,6950.75,917.75
722,907.38,1717.52,1517.12,6232.00,925.00
724,907.70,1721.36,598.91,5153.25,921.00
726,908.01,1725.19,243.16,4538.00,927.00
728,908.33,1729.02,132.36,4233.50,931.50
730,908.65,1732.85,58.01,4016.75,922.00
732,908.96,1736.67,15.25,3897.25,928.25
734,909.28,1740.49,0.18,3785.75,921.00
736,909.59,1744.30,0.00,3703.50,927.00
738,909.91,1748.12,0.00,3617.00,918.00
740,910.22,1751.93,0.00,3549.25,923.50
742,910.54,1755.73,0.00,3494.50,955.25
744,910.85,1759.54,0.00,3423.00,929.25
746,911.17,1763.34,0.00,3355.00,921.50
748,911.49,1767.13,0.00,3319.75,929.75
750,911.80,1770.93,0.00,3307.00,916.75
752,912.12,1774.72,23.65,3336.75,929.50
754,912.43,1778.50,0.00,3250.75,914.00
756,912.75,1782.29,0.00,3227.00,914.75
758,913.06,1786.07,5.42,3214.25,913.00
760,913.38,1789.84,0.35,3191.75,924.00
762,913.69,1793.62,16.81,3200.50,930.50
764,914.01,1797.39,19.40,3149.75,919.50
766,914.32,1801.15,13.34,3128.25,916.00
768,914.64,1804.92,0.00,3078.75,916.50
770,914.95,1808.68,0.00,3069.50,929.50
772,915.26,1812.44,0.00,3048.75,929.75
774,915.58,1816.19,0.00,3012.50,915.25
776,915.89,1819.94,4.09,3013.50,921.25
778,916.21,1823.69,14.78,3008.50,932.25
780,916.52,1827.43,50.09,3017.75,932.75
782,916.84,1831.17,24.08,2954.50,912.50
784,917.15,1834.91,21.15,2933.50,912.25
786,917.47,1838.64,36.16,2943.25,928.50
788,917.78,1842.38,51.78,2924.50,918.25
790,918.09,1846.10,26.22,2873.75,917.75
792,918.41,1849.83,18.62,2863.50,928.00
794,918.72,1853.55,0.57,2800.25,909.50
796,919.04,1857.27,0.52,2787.00,918.00
798,919.35,1860.98,41.41,2811.50,916.50
800,919.66,1864.69,48.53,2794.00,919.75
802,919.98,1868.40,37.77,2781.25,925.50
804,920.29,1872.11,49.49,2771.25,922.50
806,920.60,1875.81,68.43,2760.25,917.75
808,920.92,1879.51,79.75,2750.50,914.00
810,921.23,1883.20,77.44,2742.25,924.25
812,921.55,1886.90,85.03,2715.25,908.50
814,921.86,1890.58,97.94,2728.50,930.00
816,922.17,1894.27,97.12,2703.50,933.25
818,922.49,1897.95,92.12,2673.50,926.00
820,922.80,1901.63,57.86,2620.75,919.00
822,923.11,1905.31,60.88,2599.75,920.25
824,923.42,1908.98,79.73,2595.75,924.50
826,923.74,1912.65,49.47,2555.00,926.00
828,924.05,1916.31,58.75,2537.00,918.00
830,924.36,1919.98,72.76,2519.50,916.50
832,924.68,1923.64,67.27,2504.00,919.25
834,924.99,1927.29,64.01,2474.75,910.00
836,925.30,1930.94,89.25,2470.25,906.75
838,925.61,1934.59,67.85,2448.00,923.25
840,925.93,1938.24,68.25,2430.00,916.50
842,926.24,1941.88,50.78,2391.25,919.50
844,926.55,1945.52,79.38,2386.75,911.75
846,926.86,1949.16,69.13,2371.75,923.00
848,927.18,1952.79,52.75,2335.50,915.00
850,927.49,1956.42,71.47,2335.00,915.00
852,927.80,1960.05,90.29,2368.75,957.25
854,928.11,1963.67,86.21,2307.25,918.25
856,928.42,1967.29,73.45,2292.00,926.00
858,928.74,1970.91,55.20,2242.00,917.75
860,929.05,1974.52,76.94,2238.25,917.50
862,929.36,1978.13,48.72,2191.50,910.25
864,929.67,1981.74,26.42,2161.00,920.75
866,929.98,1985.35,48.15,2154.75,916.75
868,930.29,1988.95,26.67,2121.75,923.50
870,930.61,1992.54,23.57,2092.75,914.50
872,930.92,1996.14,18.89,2071.25,915.50
874,931.23,1999.73,7.69,2052.00,923.50
876,931.54,2003.32,11.27,2036.50,920.50
878,931.85,2006.90,4.03,2003.50,917.25
880,932.16,2010.48,17.82,1992.50,911.25
882,932.47,2014.06,20.23,1979.75,914.00
884,932.78,2017.63,1.63,1957.25,925.00
886,933.09,2021.21,0.00,1932.50,921.00
888,933.41,2024.77,0.15,1925.00,927.75
890,933.72,2028.34,9.03,1923.75,932.25
892,934.03,2031.90,5.48,1889.50,921.00
894,934.34,2035.46,7.01,1884.25,930.00
896,934.65,2039.01,10.01,1859.25,916.50
898,934.96,2042.57,4.13,1843.25,922.50
900,935.27,2046.11,9.62,1846.25,938.25
902,935.58,2049.66,9.50,1794.00,900.00
904,935.89,2053.20,0.00,1788.25,922.00
906,936.20,2056.74,14.88,1786.25,918.00
908,936.51,2060.28,0.00,1758.50,923.00
910,936.82,2063.81,12.47,1766.25,930.00
912,937.13,2067.34,11.37,1738.50,919.00
914,937.44,2070.86,0.00,1713.25,919.25
916,937.75,2074.39,0.00,1685.50,914.25
918,938.06,2077.91,2.11,1688.25,916.00
920,938.37,2081.42,4.91,1683.00,920.50
922,938.68,2084.94,4.81,1670.25,918.00
924,938.99,2088.45,0.00,1643.50,916.25
926,939.30,2091.95,7.69,1658.75,928.75
928,939.60,2095.46,1.88,1632.00,916.00
930,939.91,2098.96,0.00,1629.50,929.00
932,940.22,2102.45,0.00,1614.25,923.00
934,940.53,2105.95,0.00,1578.50,912.25
936,940.84,2109.44,0.00,1587.00,917.75
938,941.15,2112.92,1.84,1589.75,922.00
940,941.46,2116.41,6.18,1583.75,917.75
942,941.77,2119.89,12.24,1586.75,924.50
944,942.07,2123.37,7.44,1570.50,919.25
946,942.38,2126.84,0.00,1560.50,928.00
948,942.69,2130.31,18.37,1572.75,922.50
950,943.00,2133.78,0.00,1544.00,925.00
952,943.31,2137.24,14.53,1549.75,918.50
954,943.62,2140.70,6.06,1548.75,927.75
956,943.92,2144.16,0.88,1531.25,919.75
958,944.23,2147.62,0.00,1523.50,926.50
960,944.54,2151.07,16.06,1541.50,929.75
962,944.85,2154.52,21.89,1544.75,936.50
964,945.16,2157.96,22.27,1538.50,930.50
966,945.46,2161.40,9.52,1522.75,929.75
968,945.77,2164.84,17.05,1500.50,908.00
970,946.08,2168.28,9.04,1500.25,918.00
972,946.39,2171.71,0.30,1483.25,915.00
974,946.69,2175.14,0.81,1482.50,917.00
976,947.00,2178.57,0.00,1466.00,920.50
978,947.31,2181.99,14.32,1476.75,909.50
980,947.61,2185.41,19.00,1485.50,917.00
982,947.92,2188.82,14.14,1487.00,922.75
984,948.23,2192.24,8.07,1467.00,911.75
986,948.53,2195.65,18.40,1486.25,923.75
988,948.84,2199.05,12.92,1457.25,898.75
990,949.15,2202.46,18.97,1482.25,920.75
992,949.45,2205.86,30.28,1488.50,922.00
994,949.76,2209.25,25.11,1475.00,912.50
996,950.07,2212.65,27.19,1484.25,921.00
998,950.37,2216.04,38.03,1478.25,908.50
1000,950.68,2219.43,38.00,1487.00,917.25
1002,950.98,2222.81,37.88,1496.00,928.75
1004,951.29,2226.19,50.18,1493.75,918.50
1006,951.60,2229.57,65.55,1500.50,912.75
1008,951.90,2232.94,71.52,1498.00,910.00
1010,952.21,2236.32,73.01,1497.00,911.75
1012,952.51,2239.68,61.13,1500.00,922.25
1014,952.82,2243.05,41.61,1469.50,907.75
1016,953.12,2246.41,50.87,1494.50,932.75
1018,953.43,2249.77,49.52,1500.25,942.00
1020,953.73,2253.12,24.31,1471.75,928.50
1022,954.04,2256.48,10.82,1435.25,907.25
1024,954.34,2259.83,27.62,1466.75,927.75
1026,954.65,2263.17,31.03,1451.00,913.50
1028,954.95,2266.51,40.90,1457.00,914.50
1030,955.26,2269.85,33.77,1464.75,931.75
1032,955.56,2273.19,31.98,1456.50,924.00
1034,955.87,2276.52,17.49,1446.00,921.00
1036,956.17,2279.85,0.06,1441.00,937.75
1038,956.48,2283.18,23.49,1433.75,910.00
1040,956.78,2286.50,23.72,1428.00,909.25
1042,957.08,2289.82,29.35,1427.00,903.25
1044,957.39,2293.14,42.69,1452.00,920.25
1046,957.69,2296.45,54.08,1446.25,908.00
1048,957.99,2299.76,51.77,1469.50,936.25
1050,958.30,2303.07,71.88,1462.25,919.50
1052,958.60,2306.38,67.94,1457.00,916.50
1054,958.91,2309.68,38.57,1440.50,919.25
1056,959.21,2312.98,19.79,1416.25,912.75
1058,959.51,2316.27,25.50,1423.75,917.75
1060,959.82,2319.56,34.89,1441.00,929.25
1062,960.12,2322.85,40.45,1431.25,918.75
1064,960.42,2326.14,57.19,1434.25,912.50
1066,960.72,2329.42,53.28,1440.00,923.50
1068,961.03,2332.70,64.34,1448.25,924.25
1070,961.33,2335.97,48.04,1432.25,920.00
1072,961.63,2339.25,45.47,1425.25,919.00
1074,961.93,2342.52,62.06,1427.25,912.25
1076,962.24,2345.78,35.58,1418.00,922.00
1078,962.54,2349.05,26.18,1404.00,918.00
1080,962.84,2352.31,31.27,1405.75,919.75
1082,963.14,2355.56,24.17,1394.25,913.25
1084,963.45,2358.82,18.63,1394.50,916.25
1086,963.75,2362.07,20.56,1400.00,923.50
1088,964.05,2365.32,15.02,1401.25,934.00
1090,964.35,2368.56,4.55,1380.00,921.25
1092,964.65,2371.80,5.93,1386.50,928.00
1094,964.95,2375.04,0.36,1371.25,919.00
1096,965.25,2378.27,0.64,1363.75,911.50
1098,965.56,2381.51,0.00,1364.25,920.00
1100,965.86,2384.73,0.02,1370.75,923.00
1102,966.16,2387.96,2.22,1364.00,912.75
1104,966.46,2391.18,20.51,1390.75,934.25
1106,966.76,2394.40,38.45,1380.50,915.25
1108,967.06,2397.62,20.66,1385.25,929.25
1110,967.36,2400.83,21.74,1372.00,915.00
1112,967.66,2404.04,16.55,1382.25,930.00
1114,967.96,2407.25,27.58,1367.75,911.75
1116,968.26,2410.45,26.20,1370.75,919.25
1118,968.56,2413.65,28.79,1371.00,916.25
1120,968.86,2416.85,0.00,1369.50,941.25
1122,969.16,2420.04,17.82,1364.50,917.75
1124,969.46,2423.23,16.09,1355.50,914.00
1126,969.76,2426.42,16.31,1364.00,920.75
1128,970.06,2429.60,12.32,1351.00,908.00
1130,970.36,2432.79,15.21,1360.50,917.75
1132,970.66,2435.96,15.34,1353.00,914.50
1134,970.96,2439.14,45.99,1373.25,918.00
1136,971.26,2442.31,24.82,1371.25,929.00
1138,971.56,2445.48,49.52,1377.50,920.25
1140,971.86,2448.65,34.46,1362.25,913.50
1142,972.16,2451.81,29.32,1369.75,922.50
1144,972.45,2454.97,27.26,1364.50,919.75
1146,972.75,2458.13,39.01,1367.25,917.75
1148,973.05,2461.28,41.14,1363.25,915.50
1150,973.35,2464.43,56.52,1377.25,920.00
1152,973.65,2467.58,48.17,1375.00,919.00
1154,973.95,2470.72,67.02,1388.25,920.75
1156,974.24,2473.86,111.31,1400.00,914.75
1158,974.54,2477.00,106.47,1391.25,911.00
1160,974.84,2480.13,105.88,1406.00,924.50
1162,975.14,2483.27,106.89,1396.25,913.50
1164,975.43,2486.40,76.89,1373.00,907.50
1166,975.73,2489.52,84.24,1387.50,919.25
1168,976.03,2492.64,75.50,1377.00,917.00
1170,976.33,2495.76,91.88,1387.75,918.50
1172,976.62,2498.88,75.32,1368.75,911.75
1174,976.92,2501.99,84.12,1385.50,927.50
1176,977.22,2505.10,50.13,1364.00,923.25
1178,977.51,2508.21,38.03,1354.50,918.50
1180,977.81,2511.31,18.51,1340.50,920.50
1182,978.11,2514.41,17.48,1336.50,918.50
1184,978.40,2517.51,0.00,1329.50,925.75
1186,978.70,2520.61,28.77,1338.00,917.25
1188,979.00,2523.70,11.38,1340.25,928.75
1190,979.29,2526.79,7.00,1330.00,918.25
1192,979.59,2529.87,4.76,1333.00,924.50
1194,979.88,2532.95,31.43,1333.75,912.75
1196,980.18,2536.03,24.75,1336.75,922.00
1198,980.48,2539.11,26.08,1348.25,930.50
1200,980.77,2542.18,30.52,1342.75,923.00
1202,981.07,2545.25,39.49,1359.50,938.25
1204,981.36,2548.32,57.12,1350.50,919.75
1206,981.66,2551.38,46.79,1357.75,931.75
1208,981.95,2554.44,84.92,1362.75,918.50
1210,982.25,2557.50,62.12,1365.75,934.25
1212,982.54,2560.56,64.87,1367.75,936.50
1214,982.84,2563.61,92.10,1377.75,937.50
1216,983.13,2566.66,66.59,1361.75,932.25
1218,983.43,2569.70,29.31,1343.50,932.50
1220,983.72,2572.74,28.96,1341.00,930.00
1222,984.01,2575.78,8.21,1328.25,928.00
1224,984.31,2578.82,2.76,1314.50,919.50
1226,984.60,2581.85,0.00,1317.00,927.75
1228,984.90,2584.88,20.66,1314.75,915.75
1230,985.19,2587.91,6.84,1318.50,924.00
1232,985.48,2590.93,2.41,1326.25,933.00
1234,985.78,2593.96,5.22,1325.75,930.00
1236,986.07,2596.97,25.96,1331.25,927.00
1238,986.36,2599.99,43.50,1351.00,941.00
1240,986.66,2603.00,59.79,1357.25,938.00
1242,986.95,2606.01,80.88,1361.25,934.50
1244,987.24,2609.01,67.56,1350.50,933.00
1246,987.54,2612.02,57.23,1323.75,906.50
1248,987.83,2615.02,19.22,1329.50,924.50
1250,988.12,2618.01,4.13,1323.50,930.25
1252,988.41,2621.01,17.41,1329.00,929.25
1254,988.71,2624.00,47.88,1322.00,915.00
1256,989.00,2626.99,27.08,1332.25,932.75
1258,989.29,2629.97,17.07,1330.75,932.00
1260,989.58,2632.95,26.85,1341.50,933.50
1262,989.87,2635.93,30.34,1341.00,934.00
1264,990.16,2638.91,64.71,1344.00,921.25
1266,990.46,2641.88,98.08,1376.00,938.25
1268,990.75,2644.85,166.55,1407.50,941.00
1270,991.04,2647.81,245.77,1416.75,926.50
1272,991.33,2650.78,296.81,1432.75,930.00
1274,991.62,2653.74,268.15,1427.00,930.50
1276,991.91,2656.70,156.10,1389.50,928.00
1278,992.20,2659.65,72.10,1362.50,937.75
1280,992.49,2662.60,76.34,1349.25,923.50
1282,992.78,2665.55,73.63,1361.25,940.50
1284,993.07,2668.50,76.01,1359.75,941.50
1286,993.36,2671.44,101.88,1364.25,937.75
1288,993.65,2674.38,112.60,1365.75,935.50
1290,993.94,2677.31,106.77,1361.00,931.75
1292,994.23,2680.25,109.95,1360.50,930.25
1294,994.52,2683.18,121.76,1362.50,930.25
1296,994.81,2686.10,136.20,1367.75,930.75
1298,995.10,2689.03,119.88,1363.50,934.50
1300,995.39,2691.95,138.08,1361.50,925.50
1302,995.68,2694.87,91.51,1361.00,943.00
1304,995.97,2697.78,122.85,1369.00,938.00
1306,996.26,2700.70,118.88,1347.25,920.75
1308,996.55,2703.61,119.86,1358.25,932.75
1310,996.84,2706.51,118.30,1365.75,941.50
1312,997.13,2709.42,123.39,1358.00,932.50
1314,997.41,2712.32,129.92,1365.00,937.75
1316,997.70,2715.21,122.42,1352.50,929.00
1318,997.99,2718.11,128.68,1353.50,929.00
1320,998.28,2721.00,129.01,1345.75,924.00
1322,998.57,2723.89,140.07,1362.50,939.75
1324,998.86,2726.77,142.82,1343.75,917.75
1326,999.14,2729.66,66.82,1330.00,929.75
1328,999.43,2732.54,81.47,1337.25,928.75
1330,999.72,2735.41,120.14,1346.50,928.25
1332,1000.01,2738.29,209.88,1378.00,938.00
1334,1000.29,2741.16,191.15,1360.75,930.25
1336,1000.58,2744.03,184.90,1351.50,919.25
1338,1000.87,2746.89,138.59,1355.75,937.25
1340,1001.15,2749.75,123.21,1338.50,928.00
1342,1001.44,2752.61,100.82,1325.00,927.00
1344,1001.73,2755.47,84.37,1327.00,929.75
1346,1002.01,2758.32,9.60,1297.50,930.75
1348,1002.30,2761.17,30.16,1317.50,941.50
1350,1002.59,2764.02,83.39,1328.50,944.00
1352,1002.87,2766.86,54.76,1304.50,931.75
1354,1003.16,2769.70,16.77,1297.75,926.50
1356,1003.44,2772.54,0.00,1275.25,918.75
1358,1003.73,2775.38,0.00,1282.75,927.50
1360,1004.01,2778.21,0.00,1268.75,921.00
1362,1004.30,2781.04,0.91,1281.00,924.50
1364,1004.58,2783.87,0.00,1271.75,924.50
1366,1004.87,2786.69,0.00,1266.50,914.50
1368,1005.15,2789.51,0.00,1291.25,936.50
1370,1005.44,2792.33,0.00,1290.50,940.00
1372,1005.72,2795.14,0.00,1306.50,934.50
1374,1006.01,2797.95,0.00,1328.75,934.00
1376,1006.29,2800.76,0.00,1328.50,923.00
1378,1006.58,2803.57,0.00,1388.25,944.50
1380,1006.86,2806.37,0.00,1389.00,925.00
1382,1007.14,2809.17,0.32,1425.50,930.00
1384,1007.43,2811.97,15.23,1463.50,924.50
1386,1007.71,2814.77,57.35,1498.25,920.25
1388,1008.00,2817.56,254.94,1583.00,919.00
1390,1008.28,2820.35,716.30,1714.75,934.00
1392,1008.56,2823.13,1221.86,1811.50,925.00
1394,1008.85,2825.91,1356.53,1875.00,931.00
1396,1009.13,2828.69,1259.26,1905.00,932.00
1398,1009.41,2831.47,1357.26,1976.50,939.25
1400,1009.69,2834.24,2040.53,2145.75,920.50
1402,1009.98,2837.02,2983.52,2346.00,927.25
1404,1010.26,2839.78,3502.08,2451.50,931.75
1406,1010.54,2842.55,3428.62,2471.75,920.50
1408,1010.82,2845.31,3073.94,2468.00,934.00
1410,1011.11,2848.07,3083.56,2512.00,936.25
1412,1011.39,2850.83,3789.27,2690.00,935.75
1414,1011.67,2853.58,4888.56,2929.00,935.75
1416,1011.95,2856.33,5820.31,3137.25,931.00
1418,1012.23,2859.08,6239.89,3266.25,930.75
1420,1012.51,2861.83,6746.73,3417.50,922.25
1422,1012.80,2864.57,7283.11,3559.75,943.00
1424,1013.08,2867.31,7981.67,3694.00,943.50
1426,1013.36,2870.04,8195.67,3726.00,937.00
1428,1013.64,2872.78,7791.74,3653.75,931.25
1430,1013.92,2875.51,7398.76,3600.50,949.50
1432,1014.20,2878.24,7482.92,3592.00,934.25
1434,1014.48,2880.96,7778.88,3634.00,927.25
1436,1014.76,2883.68,7801.37,3639.00,923.50
1438,1015.04,2886.40,8020.22,3715.25,923.00
1440,1015.32,2889.12,8640.70,3858.25,930.50
1442,1015.60,2891.83,9894.20,4080.25,924.00
1444,1015.88,2894.54,11016.69,4279.00,940.50
1446,1016.16,2897.25,11261.92,4315.50,919.00
1448,1016.44,2899.96,10664.35,4287.50,936.25
1450,1016.72,2902.66,10086.21,4238.00,934.75
1452,1017.00,2905.36,10655.38,4385.00,947.00
1454,1017.28,2908.06,12286.83,4623.75,926.50
1456,1017.55,2910.75,14453.44,4956.00,941.50
1458,1017.83,2913.44,15288.57,5030.75,919.75
1460,1018.11,2916.13,14279.98,4897.00,941.25
1462,1018.39,2918.81,12440.78,4607.25,936.50
1464,1018.67,2921.49,11111.67,4366.00,934.50
1466,1018.95,2924.17,11069.53,4329.25,938.75
1468,1019.22,2926.85,11897.02,4417.25,936.25
1470,1019.50,2929.52,12947.22,4541.75,927.00
1472,1019.78,2932.20,13564.19,4613.00,920.50
1474,1020.06,2934.86,13853.68,4689.75,933.00
1476,1020.33,2937.53,13663.79,4693.25,946.75
1478,1020.61,2940.19,13575.74,4662.50,933.50
1480,1020.89,2942.85,14046.06,4725.75,936.00
1482,1021.17,2945.51,14291.63,4726.00,932.50
1484,1021.44,2948.16,14519.58,4738.00,935.75
1486,1021.72,2950.81,14639.59,4694.50,926.00
1488,1022.00,2953.46,14699.30,4654.25,941.00
1490,1022.27,2956.11,13909.48,4464.25,928.25
1492,1022.55,2958.75,12314.66,4207.50,943.25
1494,1022.82,2961.39,10539.62,3869.00,931.25
1496,1023.10,2964.03,9913.95,3715.50,943.00
1498,1023.38,2966.66,9802.54,3584.50,928.00
1500,1023.65,2969.29,9694.87,3501.25,937.25
1502,1023.93,2971.92,8735.49,3313.00,946.00
1504,1024.20,2974.55,7393.69,3064.50,941.50
1506,1024.48,2977.17,6279.12,2841.25,939.00
1508,1024.75,2979.79,5500.34,2643.75,924.75
1510,1025.03,2982.41,4674.47,2455.25,930.75
1512,1025.30,2985.02,3741.00,2260.50,923.25
1514,1025.58,2987.63,2605.08,2074.75,940.00
1516,1025.85,2990.24,1709.37,1904.75,924.50
1518,1026.13,2992.85,1023.57,1795.25,943.50
1520,1026.40,2995.45,661.55,1709.00,936.50
1522,1026.68,2998.05,636.62,1677.50,929.50
1524,1026.95,3000.65,810.39,1690.00,942.25
1526,1027.22,3003.25,1140.41,1710.50,929.25
1528,1027.50,3005.84,1219.76,1714.25,927.00
1530,1027.77,3008.43,1428.26,1758.50,933.50
1532,1028.04,3011.02,1842.71,1814.00,936.75
1534,1028.32,3013.60,2740.05,1904.75,931.00
1536,1028.59,3016.18,3401.49,1951.00,936.50
1538,1028.86,3018.76,3306.36,1899.75,918.50
1540,1029.14,3021.34,2464.93,1807.25,932.50
1542,1029.41,3023.91,1466.21,1658.75,925.50
1544,1029.68,3026.48,901.45,1557.75,920.00
1546,1029.95,3029.05,534.31,1484.50,932.25
1548,1030.22,3031.61,527.86,1454.75,921.00
1550,1030.50,3034.17,590.90,1451.75,928.50
1552,1030.77,3036.73,858.59,1476.00,923.50
1554,1031.04,3039.29,1231.89,1528.75,933.75
1556,1031.31,3041.84,1785.87,1571.50,920.50
1558,1031.58,3044.39,2522.06,1661.75,945.50
1560,1031.85,3046.94,2860.78,1671.25,940.25
1562,1032.13,3049.49,2412.23,1593.50,927.00
1564,1032.40,3052.03,1694.90,1519.75,941.25
1566,1032.67,3054.57,1050.72,1414.00,923.00
1568,1032.94,3057.11,473.95,1333.50,946.75
1570,1033.21,3059.64,314.84,1266.00,918.50
1572,1033.48,3062.18,160.18,1245.75,938.25
1574,1033.75,3064.70,53.58,1210.00,935.25
1576,1034.02,3067.23,0.00,1186.00,938.25
1578,1034.29,3069.75,19.12,1161.25,918.25
1580,1034.56,3072.28,0.00,1158.00,936.75
1582,1034.83,3074.79,27.20,1136.75,916.50
1584,1035.10,3077.31,0.00,1130.00,936.50
1586,1035.37,3079.82,0.00,1114.00,932.25
1588,1035.64,3082.33,0.00,1128.50,945.25
1590,1035.91,3084.84,0.00,1116.00,934.50
1592,1036.17,3087.34,16.64,1109.50,927.75
1594,1036.44,3089.85,0.00,1117.25,945.50
1596,1036.71,3092.35,0.00,1094.50,928.25
1598,1036.98,3094.84,11.49,1089.00,922.00
1600,1037.25,3097.34,1.24,1081.25,920.25
1602,1037.52,3099.83,0.00,1080.50,931.25
1604,1037.78,3102.32,0.65,1093.25,937.50
1606,1038.05,3104.80,108.13,1099.25,934.50
1608,1038.32,3107.29,7.01,1084.50,932.25
1610,1038.59,3109.77,17.69,1080.75,927.50
1612,1038.85,3112.24,1.88,1077.50,929.25
1614,1039.12,3114.72,0.00,1086.25,943.50
1616,1039.39,3117.19,34.44,1063.25,913.75
1618,1039.66,3119.66,0.00,1081.25,940.50
1620,1039.92,3122.13,0.00,1081.00,941.00
1622,1040.19,3124.59,0.00,1072.25,936.00
1624,1040.45,3127.05,65.09,1074.75,922.75
1626,1040.72,3129.51,6.90,1077.50,933.00
1628,1040.99,3131.97,52.31,1089.75,939.25
1630,1041.25,3134.42,114.49,1099.25,941.25
1632,1041.52,3136.87,37.68,1070.75,921.50
1634,1041.78,3139.32,102.03,1086.75,931.00
1636,1042.05,3141.77,76.16,1120.50,966.75
1638,1042.32,3144.21,0.00,1076.50,934.75
1640,1042.58,3146.65,17.90,1094.25,943.50
1642,1042.85,3149.09,53.37,1097.50,941.50
1644,1043.11,3151.52,89.40,1094.00,936.00
1646,1043.38,3153.96,132.06,1095.25,933.50
1648,1043.64,3156.39,155.63,1094.75,928.00
1650,1043.90,3158.81,79.22,1092.25,931.25
1652,1044.17,3161.24,109.84,1105.00,940.00
1654,1044.43,3163.66,135.69,1092.00,925.50
1656,1044.70,3166.08,187.63,1121.00,949.50
1658,1044.96,3168.49,241.28,1112.75,937.00
1660,1045.22,3170.91,332.07,1107.25,925.50
1662,1045.49,3173.32,267.10,1109.50,934.50
1664,1045.75,3175.73,265.24,1119.00,942.50
1666,1046.01,3178.13,216.54,1104.00,932.75
1668,1046.28,3180.54,345.93,1124.25,942.25
1670,1046.54,3182.94,441.91,1132.25,944.00
1672,1046.80,3185.34,486.59,1130.50,938.25
1674,1047.07,3187.73,351.43,1107.75,929.50
1676,1047.33,3190.12,581.20,1128.00,930.75
1678,1047.59,3192.51,617.11,1137.75,939.50
1680,1047.85,3194.90,570.48,1146.75,952.50
1682,1048.11,3197.29,578.05,1142.75,948.25
1684,1048.38,3199.67,715.12,1144.00,939.00
1686,1048.64,3202.05,780.10,1153.25,944.25
1688,1048.90,3204.43,745.79,1144.00,939.00
1690,1049.16,3206.80,830.88,1145.75,934.50
1692,1049.42,3209.17,869.52,1159.00,946.25
1694,1049.68,3211.54,916.06,1143.75,928.50
1696,1049.94,3213.91,901.87,1145.25,933.25
1698,1050.20,3216.27,1072.20,1163.75,940.00
1700,1050.46,3218.63,1088.76,1176.25,953.25
1702,1050.72,3220.99,1082.28,1159.25,937.50
1704,1050.98,3223.35,1124.65,1159.00,934.00
1706,1051.24,3225.70,1110.75,1155.75,933.00
1708,1051.50,3228.05,1237.23,1157.00,926.00
1710,1051.76,3230.40,1204.44,1176.25,950.75
1712,1052.02,3232.75,1490.84,1177.50,932.00
1714,1052.28,3235.09,1394.77,1180.25,944.50
1716,1052.54,3237.43,1336.99,1168.25,938.00
1718,1052.80,3239.77,1382.08,1162.25,930.00
1720,1053.06,3242.11,1601.66,1180.75,934.00
1722,1053.32,3244.44,1504.90,1166.25,928.50
1724,1053.58,3246.77,1541.86,1190.50,950.75
1726,1053.84,3249.10,1553.80,1179.25,941.00
1728,1054.10,3251.42,1732.78,1189.50,942.50
1730,1054.35,3253.75,1780.84,1184.50,937.75
1732,1054.61,3256.07,1775.82,1193.25,946.75
1734,1054.87,3258.39,1671.21,1179.75,939.00
1736,1055.13,3260.70,1700.24,1178.00,936.25
1738,1055.38,3263.01,1842.77,1181.25,934.25
1740,1055.64,3265.32,1855.30,1180.25,937.75
1742,1055.90,3267.63,2070.47,1179.00,924.50
1744,1056.16,3269.94,1999.76,1197.00,947.25
1746,1056.41,3272.24,1909.18,1195.50,952.25
1748,1056.67,3274.54,2070.67,1193.75,941.75
1750,1056.93,3276.84,2082.70,1188.50,938.50
1752,1057.18,3279.13,1983.59,1174.00,933.25
1754,1057.44,3281.42,2246.39,1175.00,920.00
1756,1057.69,3283.71,2043.50,1172.25,932.50
1758,1057.95,3286.00,2062.55,1186.00,946.25
1760,1058.21,3288.28,2029.58,1169.00,932.00
1762,1058.46,3290.57,1830.99,1173.25,950.50
1764,1058.72,3292.85,2008.20,1171.50,941.00
1766,1058.97,3295.12,2051.03,1161.50,931.25
1768,1059.23,3297.40,1793.67,1150.75,937.25
1770,1059.48,3299.67,1911.91,1165.25,946.00
1772,1059.74,3301.94,1838.30,1142.50,930.25
1774,1059.99,3304.21,2070.79,1163.75,940.25
1776,1060.25,3306.47,1898.09,1165.25,953.25
1778,1060.50,3308.73,1821.82,1139.50,933.00
1780,1060.76,3310.99,1956.52,1144.25,931.00
1782,1061.01,3313.25,1814.98,1145.00,941.00
1784,1061.26,3315.50,1727.47,1131.75,935.00
1786,1061.52,3317.76,1935.82,1146.25,941.50
1788,1061.77,3320.01,2031.82,1152.00,945.25
1790,1062.02,3322.25,1959.28,1133.25,931.75
1792,1062.28,3324.50,2125.76,1139.00,928.75
1794,1062.53,3326.74,1774.30,1120.50,929.50
1796,1062.78,3328.98,1980.59,1135.75,935.25
1798,1063.04,3331.22,1875.07,1126.75,935.25
1800,1063.29,3333.45,2035.28,1126.00,930.00
1802,1063.54,3335.68,2018.19,1123.25,929.25
1804,1063.79,3337.91,1948.06,1128.50,936.25
1806,1064.05,3340.14,1587.76,1133.50,959.50
1808,1064.30,3342.36,1868.80,1114.00,928.75
1810,1064.55,3344.59,1926.35,1124.75,941.00
1812,1064.80,3346.81,1872.17,1115.75,936.75
1814,1065.05,3349.02,1758.98,1107.25,934.75
1816,1065.30,3351.24,1994.61,1127.50,945.50
1818,1065.55,3353.45,2160.38,1117.50,929.00
1820,1065.81,3355.66,1928.80,1136.75,959.25
1822,1066.06,3357.87,1727.95,1104.25,937.25
1824,1066.31,3360.07,1878.85,1099.25,928.25
1826,1066.56,3362.27,2119.77,1119.75,941.00
1828,1066.81,3364.47,2053.23,1103.50,928.25
1830,1067.06,3366.67,1882.62,1103.25,934.50
1832,1067.31,3368.87,1791.88,1104.00,939.75
1834,1067.56,3371.06,1864.77,1088.75,924.25
1836,1067.81,3373.25,2258.21,1097.75,920.00
1838,1068.06,3375.44,2233.88,1098.75,924.50
1840,1068.31,3377.62,2079.33,1097.25,930.75
1842,1068.56,3379.81,2338.49,1094.50,918.00
1844,1068.80,3381.99,2032.94,1122.00,958.00
1846,1069.05,3384.16,2301.13,1112.50,936.75
1848,1069.30,3386.34,2085.49,1100.75,935.50
1850,1069.55,3388.51,2290.42,1102.50,932.75
1852,1069.80,3390.68,2572.79,1109.50,933.00
1854,1070.05,3392.85,2626.76,1129.50,953.00
1856,1070.30,3395.02,2444.62,1101.25,931.75
1858,1070.54,3397.18,2529.80,1101.50,928.50
1860,1070.79,3399.34,2507.81,1106.25,934.50
1862,1071.04,3401.50,2573.89,1103.75,931.00
1864,1071.29,3403.66,2590.01,1091.50,921.00
1866,1071.53,3405.81,2899.25,1115.00,936.25
1868,1071.78,3407.96,2881.62,1103.75,928.00
1870,1072.03,3410.11,2729.39,1104.00,935.00
1872,1072.27,3412.26,2852.25,1106.75,934.00
1874,1072.52,3414.40,2931.12,1107.25,932.00
1876,1072.77,3416.54,2697.45,1100.00,933.75
1878,1073.01,3418.68,2825.76,1113.50,944.00
1880,1073.26,3420.82,2815.00,1082.00,915.00
1882,1073.51,3422.96,2970.39,1108.00,938.75
1884,1073.75,3425.09,3086.47,1103.00,933.00
1886,1074.00,3427.22,3133.19,1088.25,918.00
1888,1074.24,3429.35,2965.55,1111.75,946.50
1890,1074.49,3431.47,2727.54,1090.00,932.50
1892,1074.73,3433.59,3034.84,1086.00,919.75
1894,1074.98,3435.71,2971.66,1104.75,943.50
1896,1075.22,3437.83,3232.32,1095.25,929.00
1898,1075.47,3439.95,3197.40,1101.75,938.75
1900,1075.71,3442.06,3413.87,1108.50,938.75
1902,1075.96,3444.17,2863.94,1087.75,934.75
1904,1076.20,3446.28,3170.85,1066.25,906.00
1906,1076.44,3448.38,3239.04,1107.00,949.25
1908,1076.69,3450.49,3437.72,1102.00,941.25
1910,1076.93,3452.59,2918.43,1082.50,936.25
1912,1077.17,3454.69,2953.52,1076.50,927.75
1914,1077.42,3456.79,2732.13,1076.25,934.00
1916,1077.66,3458.88,2431.49,1060.50,929.25
1918,1077.90,3460.97,2883.51,1061.75,920.75
1920,1078.15,3463.06,2940.98,1082.50,942.00
1922,1078.39,3465.15,2522.31,1060.00,931.25
1924,1078.63,3467.23,2204.48,1035.25,915.75
1926,1078.87,3469.32,2426.50,1058.50,934.50
1928,1079.12,3471.40,2268.48,1041.00,923.00
1930,1079.36,3473.47,2351.20,1073.00,953.50
1932,1079.60,3475.55,2260.05,1038.25,921.00
1934,1079.84,3477.62,1927.72,1045.25,936.75
1936,1080.08,3479.69,1922.30,1034.50,926.75
1938,1080.33,3481.76,1933.41,1030.00,924.00
1940,1080.57,3483.83,1908.81,1034.50,932.25
1942,1080.81,3485.89,2195.11,1038.50,932.25
1944,1081.05,3487.95,2185.95,1045.00,940.00
1946,1081.29,3490.01,1802.46,1032.25,935.00
1948,1081.53,3492.07,1428.27,1017.25,927.50
1950,1081.77,3494.12,1495.30,1019.50,927.50
1952,1082.01,3496.18,1336.04,1022.75,936.50
1954,1082.25,3498.23,1103.56,1005.00,927.00
1956,1082.49,3500.27,1510.61,1015.50,930.25
1958,1082.73,3502.32,1229.33,1000.50,922.00
1960,1082.97,3504.36,1135.69,1017.00,939.75
1962,1083.21,3506.40,750.83,995.00,926.50
1964,1083.45,3508.44,958.46,992.00,919.50
1966,1083.69,3510.48,731.86,1019.50,954.00
1968,1083.93,3512.51,1294.93,1006.50,930.00
1970,1084.16,3514.54,841.44,998.50,931.25
1972,1084.40,3516.57,611.90,994.00,931.75
1974,1084.64,3518.60,930.39,989.00,920.50
1976,1084.88,3520.62,857.35,1002.50,936.25
1978,1085.12,3522.65,153.98,999.75,949.00
1980,1085.36,3524.67,743.56,994.25,930.75
1982,1085.59,3526.68,669.01,982.50,922.50
1984,1085.83,3528.70,862.56,1000.00,938.00
1986,1086.07,3530.71,565.45,982.00,926.50
1988,1086.31,3532.72,802.56,996.25,935.75
1990,1086.54,3534.73,684.29,981.00,923.00
1992,1086.78,3536.74,434.26,995.25,943.75
1994,1087.02,3538.74,571.00,986.75,934.25
1996,1087.25,3540.74,886.97,973.50,917.00
1998,1087.49,3542.74,626.30,984.25,932.75
2000,1087.73,3544.74,291.19,981.50,936.00
2002,1087.96,3546.74,526.84,981.25,930.75
2004,1088.20,3548.73,198.27,989.50,946.50
2006,1088.43,3550.72,334.22,979.50,934.50
2008,1088.67,3552.71,842.69,978.75,925.25
2010,1088.90,3554.69,207.31,961.50,921.00
2012,1089.14,3556.68,681.39,983.75,936.25
2014,1089.38,3558.66,578.65,968.75,923.50
2016,1089.61,3560.64,393.03,968.00,926.00
2018,1089.84,3562.62,206.15,972.50,934.25
2020,1090.08,3564.59,1006.53,970.25,919.50
2022,1090.31,3566.56,657.99,965.75,921.25
2024,1090.55,3568.53,283.09,965.50,927.00
2026,1090.78,3570.50,396.91,954.75,913.25
2028,1091.02,3572.47,361.39,957.25,917.25
2030,1091.25,3574.43,419.53,960.00,920.75
2032,1091.48,3576.39,769.23,946.75,903.75
2034,1091.72,3578.35,548.68,950.75,912.25
2036,1091.95,3580.31,588.11,960.50,922.00
2038,1092.18,3582.26,762.79,944.50,904.00
2040,1092.42,3584.22,0.00,935.25,907.50
2042,1092.65,3586.17,386.47,945.50,911.50
2044,1092.88,3588.12,24.26,939.50,910.50
2046,1093.11,3590.06,0.00,932.50,906.50
2047,1093.23,3591.03,25.36,931.75,901.25