File: enlighten/plugins/Raman/MatchingLibrary/785X/melamine.csv
ENLIGHTEN Version,4.1.22
Measurement ID,20250220-203145-477888-WP-01977
Serial Number,WP-01977
Model,WP-785X-F13-R-ILC
Detector,S16011-1106
Label,melamine
Declared Match,
Declared Score,0
Scan Averaging,5
Boxcar,0
Technique,Raman
Baseline Correction Algo,AirPLS
ROI Pixel Start,47
ROI Pixel End,2047
ROI Start Line,0
ROI Stop Line,63
CCD C4,1.38617e-12
Slit Width,25
Cropped,True
Interpolated,False
Wavenumber Correction,-0.100481
Raman Intensity Corrected,True
Deconvolved,True
Region,
High Gain Mode,False
Laser Power mW,
Electrical Dark Correction,False
Battery %,
Device ID,<DeviceID USB:0x24aa:0x1000:0:1>
FW Version,10.0.0.10
FPGA Version,035-001
BLE Version,
Prefix,enlighten
Suffix,
Preset,
Auto-Raman,True
Session Count,0
Plugin Name,
Integration Time,201
Timestamp,2025-02-20 20:31:45.4779
Note,
Temperature,0
CCD C0,793.274
CCD C1,0.153259
CCD C2,1.40788e-05
CCD C3,-1.132e-08
CCD Offset,0
CCD Gain,1.9
CCD Offset Odd,0
CCD Gain Odd,1.9
Laser Wavelength,785.032
Laser Enable,False
Laser Power %,0
Laser Temperature,0
Pixel Count,2048

Pixel,Wavelength,Wavenumber,Processed,Raw,Dark
0,793.27,132.25,NA,911.80,886.00
2,793.58,137.12,NA,919.40,897.80
4,793.89,141.99,NA,917.80,894.20
6,794.19,146.86,NA,919.60,894.40
8,794.50,151.72,NA,925.60,895.60
10,794.81,156.58,NA,922.00,891.80
12,795.12,161.44,NA,918.80,890.40
14,795.42,166.30,NA,914.20,891.40
16,795.73,171.16,NA,921.80,891.80
18,796.04,176.01,NA,932.40,901.80
20,796.35,180.86,NA,934.40,896.20
22,796.65,185.71,NA,942.60,910.60
24,796.96,190.56,NA,933.60,896.20
26,797.27,195.41,NA,942.20,901.20
28,797.58,200.25,NA,946.00,903.00
30,797.88,205.09,NA,932.80,895.60
32,798.19,209.93,NA,948.40,897.60
34,798.50,214.77,NA,945.80,896.80
36,798.81,219.60,NA,955.20,897.20
38,799.12,224.43,NA,996.80,896.20
40,799.43,229.27,NA,1210.40,907.00
42,799.74,234.09,NA,1991.40,905.00
44,800.04,238.92,NA,2980.20,921.00
46,800.35,243.75,NA,3257.20,908.60
48,800.66,248.57,947.38,3376.40,912.40
50,800.97,253.39,657.03,3088.20,916.60
52,801.28,258.21,88.90,2548.20,920.60
54,801.59,263.02,0.18,2218.00,913.20
56,801.90,267.83,0.00,2067.60,910.20
58,802.21,272.65,0.00,1973.40,909.40
60,802.52,277.46,0.00,1926.80,916.20
62,802.83,282.26,0.00,1900.00,920.40
64,803.14,287.07,0.00,1873.40,918.20
66,803.45,291.87,0.00,1870.80,918.40
68,803.76,296.67,0.00,1863.40,917.00
70,804.07,301.47,0.00,1836.40,911.80
72,804.38,306.26,0.00,1836.00,910.60
74,804.69,311.06,0.00,1844.80,910.40
76,805.00,315.85,0.00,1863.40,907.80
78,805.31,320.64,0.00,1899.20,917.60
80,805.62,325.42,1.36,1941.80,914.20
82,805.93,330.21,44.14,2016.80,914.60
84,806.24,334.99,104.34,2085.80,901.80
86,806.55,339.77,165.33,2191.00,910.80
88,806.86,344.55,248.64,2323.20,917.60
90,807.17,349.32,338.18,2445.00,906.20
92,807.48,354.10,447.86,2622.60,909.40
94,807.80,358.87,601.93,2894.80,915.80
96,808.11,363.63,904.19,3510.00,916.20
98,808.42,368.40,1745.03,5045.20,904.60
100,808.73,373.16,4457.02,8536.20,914.40
102,809.04,377.93,7812.93,12185.00,904.60
104,809.35,382.68,7924.70,13033.60,905.40
106,809.66,387.44,7806.63,12931.80,915.80
108,809.98,392.19,6945.10,11583.00,908.00
110,810.29,396.95,4522.83,8791.40,916.40
112,810.60,401.70,2896.32,6568.60,910.00
114,810.91,406.44,2180.33,5350.20,911.80
116,811.22,411.19,1762.50,4643.80,911.40
118,811.54,415.93,1343.25,4048.00,913.80
120,811.85,420.67,952.49,3516.20,905.00
122,812.16,425.41,660.67,3114.00,905.80
124,812.47,430.14,547.18,2943.20,916.40
126,812.79,434.87,538.02,2911.40,905.80
128,813.10,439.60,552.97,2954.80,904.60
130,813.41,444.33,680.42,3138.80,908.60
132,813.72,449.06,841.63,3326.80,906.20
134,814.04,453.78,899.05,3376.40,907.80
136,814.35,458.50,692.30,3134.60,898.40
138,814.66,463.22,419.82,2802.20,901.40
140,814.98,467.93,260.36,2563.40,906.60
142,815.29,472.65,171.41,2425.80,910.20
144,815.60,477.36,94.80,2314.80,907.20
146,815.92,482.06,71.58,2269.20,900.40
148,816.23,486.77,53.27,2254.40,908.60
150,816.54,491.47,36.98,2241.80,919.80
152,816.86,496.17,11.25,2189.20,901.40
154,817.17,500.87,0.21,2171.60,906.80
156,817.48,505.57,0.00,2129.00,904.20
158,817.80,510.26,0.00,2128.80,902.40
160,818.11,514.95,0.00,2126.40,915.00
162,818.42,519.64,0.00,2113.80,913.00
164,818.74,524.32,0.00,2127.60,911.60
166,819.05,529.00,0.00,2171.80,911.80
168,819.37,533.68,0.00,2223.40,910.40
170,819.68,538.36,0.00,2267.00,910.00
172,819.99,543.04,0.00,2358.60,910.40
174,820.31,547.71,0.03,2496.00,906.40
176,820.62,552.38,16.04,2654.60,901.00
178,820.94,557.05,176.85,2994.20,902.80
180,821.25,561.71,477.62,3490.80,894.80
182,821.57,566.37,862.23,4123.20,902.60
184,821.88,571.03,945.43,4676.40,903.40
186,822.20,575.69,1583.60,6134.00,910.80
188,822.51,580.34,4297.28,9372.80,907.00
190,822.83,584.99,5192.44,10404.60,910.80
192,823.14,589.64,3256.25,8577.00,907.00
194,823.46,594.29,2143.93,6914.60,903.80
196,823.77,598.93,1229.23,5507.00,910.20
198,824.09,603.57,547.86,4519.00,901.00
200,824.40,608.21,217.78,4035.20,906.80
202,824.72,612.85,151.72,3976.20,911.20
204,825.03,617.48,232.71,4116.60,909.20
206,825.35,622.11,382.99,4357.60,909.00
208,825.66,626.74,559.02,4669.60,908.20
210,825.98,631.36,766.04,5069.00,902.40
212,826.29,635.99,1138.22,5735.20,906.20
214,826.61,640.61,1713.40,6719.00,908.00
216,826.92,645.22,2533.99,8078.20,903.40
218,827.24,649.84,3607.68,9813.00,901.80
220,827.56,654.45,4833.54,11907.20,909.80
222,827.87,659.06,6253.73,14680.00,910.40
224,828.19,663.67,8548.58,19363.00,912.20
226,828.50,668.27,13799.75,28072.00,924.80
228,828.82,672.87,23095.11,39702.60,912.80
230,829.13,677.47,27011.38,43532.40,909.00
232,829.45,682.06,18386.74,33769.20,907.00
234,829.77,686.66,8709.07,20481.00,929.60
236,830.08,691.25,4123.22,12207.60,908.60
238,830.40,695.83,2299.82,8394.40,903.80
240,830.72,700.42,1480.32,6715.40,903.40
242,831.03,705.00,1024.50,5855.20,894.20
244,831.35,709.58,735.49,5348.80,900.60
246,831.66,714.15,479.87,4922.40,893.80
248,831.98,718.73,278.85,4626.40,907.80
250,832.30,723.30,100.58,4378.00,902.00
252,832.61,727.87,22.41,4239.40,909.00
254,832.93,732.43,39.60,4235.40,891.20
256,833.25,736.99,214.27,4410.60,906.60
258,833.56,741.55,322.36,4436.80,903.80
260,833.88,746.11,89.85,4207.60,900.20
262,834.20,750.66,6.71,3994.00,907.20
264,834.51,755.22,76.42,4169.00,904.60
266,834.83,759.76,478.01,4681.40,907.40
268,835.15,764.31,882.90,5238.60,908.80
270,835.47,768.85,1215.81,5753.00,896.00
272,835.78,773.39,1494.91,6169.40,901.20
274,836.10,777.93,1680.10,6413.40,899.60
276,836.42,782.46,1762.97,6475.40,900.20
278,836.73,787.00,1635.58,6228.40,899.40
280,837.05,791.52,1375.69,5784.20,898.20
282,837.37,796.05,1087.42,5281.00,910.60
284,837.69,800.57,781.81,4700.20,899.80
286,838.00,805.09,490.64,4192.60,899.80
288,838.32,809.61,260.89,3789.80,900.80
290,838.64,814.13,191.48,3604.00,908.60
292,838.95,818.64,282.35,3616.20,907.00
294,839.27,823.15,272.05,3513.80,900.60
296,839.59,827.65,139.60,3299.40,897.20
298,839.91,832.15,25.66,3087.40,900.40
300,840.22,836.65,0.48,2980.40,914.00
302,840.54,841.15,0.00,2864.80,896.00
304,840.86,845.65,0.00,2801.20,910.60
306,841.18,850.14,0.00,2771.60,900.00
308,841.50,854.63,0.00,2774.60,926.80
310,841.81,859.11,0.00,2769.80,901.80
312,842.13,863.60,0.00,2761.00,902.80
314,842.45,868.07,16.45,2786.80,901.20
316,842.77,872.55,45.23,2795.60,903.20
318,843.08,877.03,50.82,2804.00,912.20
320,843.40,881.50,39.73,2757.20,895.00
322,843.72,885.97,36.63,2745.80,905.60
324,844.04,890.43,23.61,2695.40,895.20
326,844.36,894.89,17.27,2677.40,898.20
328,844.67,899.35,0.12,2645.60,910.80
330,844.99,903.81,0.00,2606.40,894.00
332,845.31,908.26,0.00,2588.20,906.20
334,845.63,912.71,0.00,2584.40,906.20
336,845.95,917.16,0.78,2592.40,903.00
338,846.27,921.61,38.10,2732.60,984.20
340,846.58,926.05,117.51,2757.20,900.40
342,846.90,930.49,224.93,2933.40,900.60
344,847.22,934.92,394.44,3201.80,898.80
346,847.54,939.36,599.40,3516.20,889.60
348,847.86,943.79,841.72,3885.00,891.60
350,848.18,948.21,1058.69,4223.40,897.80
352,848.49,952.64,1193.02,4461.40,900.20
354,848.81,957.06,1316.76,4664.40,889.20
356,849.13,961.48,1461.04,4951.40,906.20
358,849.45,965.89,1703.56,5483.20,910.80
360,849.77,970.31,2253.67,6730.40,898.80
362,850.09,974.71,3644.93,9548.20,899.20
364,850.40,979.12,7198.99,14737.00,908.60
366,850.72,983.52,11642.08,19323.20,915.20
368,851.04,987.92,9361.04,16814.80,895.20
370,851.36,992.32,3807.82,9913.40,899.80
372,851.68,996.72,1264.16,5288.20,900.60
374,852.00,1001.11,440.58,3295.40,896.20
376,852.32,1005.50,112.69,2504.00,885.20
378,852.63,1009.88,17.61,2271.20,910.20
380,852.95,1014.26,8.91,2205.60,902.80
382,853.27,1018.64,56.15,2285.00,906.80
384,853.59,1023.02,207.64,2442.60,892.20
386,853.91,1027.39,348.46,2615.60,889.60
388,854.23,1031.76,389.89,2679.20,893.60
390,854.55,1036.13,422.62,2670.40,896.20
392,854.87,1040.49,310.72,2469.40,895.20
394,855.18,1044.86,93.86,2188.00,901.60
396,855.50,1049.21,2.40,1990.00,897.20
398,855.82,1053.57,0.00,1885.40,903.80
400,856.14,1057.92,0.00,1836.00,898.00
402,856.46,1062.27,0.00,1832.00,900.80
404,856.78,1066.62,0.00,1834.40,892.40
406,857.10,1070.96,0.00,1826.60,891.60
408,857.42,1075.30,0.00,1863.80,907.40
410,857.74,1079.64,0.00,1869.60,894.00
412,858.06,1083.97,0.00,1877.00,896.00
414,858.37,1088.30,0.02,1893.80,890.00
416,858.69,1092.63,9.05,1923.00,893.00
418,859.01,1096.95,0.61,1922.00,890.40
420,859.33,1101.27,10.13,1959.40,893.40
422,859.65,1105.59,10.77,1968.20,897.80
424,859.97,1109.91,11.17,1981.00,892.40
426,860.29,1114.22,14.29,2000.80,894.60
428,860.61,1118.53,13.61,2007.00,889.60
430,860.93,1122.84,11.45,2024.80,896.00
432,861.25,1127.14,0.71,2031.40,905.80
434,861.56,1131.44,0.00,2012.40,889.20
436,861.88,1135.74,0.00,2029.20,893.20
438,862.20,1140.03,0.00,2057.20,900.20
440,862.52,1144.32,0.00,2081.40,894.60
442,862.84,1148.61,0.00,2104.40,903.80
444,863.16,1152.89,0.00,2124.00,895.80
446,863.48,1157.17,3.40,2178.00,896.80
448,863.80,1161.45,25.66,2219.60,892.80
450,864.12,1165.73,36.32,2267.20,898.20
452,864.44,1170.00,56.97,2329.00,894.80
454,864.76,1174.27,70.24,2389.00,898.20
456,865.07,1178.53,126.69,2492.20,888.80
458,865.39,1182.80,198.42,2621.00,896.00
460,865.71,1187.06,223.30,2695.00,899.20
462,866.03,1191.31,254.88,2766.60,900.00
464,866.35,1195.57,245.70,2762.40,897.20
466,866.67,1199.82,200.24,2725.00,902.40
468,866.99,1204.06,124.05,2636.00,901.20
470,867.31,1208.31,56.71,2566.20,900.80
472,867.63,1212.55,8.01,2507.20,901.00
474,867.95,1216.79,0.87,2496.80,888.40
476,868.27,1221.02,0.00,2509.00,897.00
478,868.58,1225.25,0.09,2535.00,892.40
480,868.90,1229.48,15.64,2593.80,899.40
482,869.22,1233.71,34.48,2634.60,898.00
484,869.54,1237.93,62.87,2691.40,910.00
486,869.86,1242.15,89.85,2728.80,898.80
488,870.18,1246.36,98.13,2747.40,887.20
490,870.50,1250.58,133.41,2815.00,897.20
492,870.82,1254.79,164.97,2876.00,907.00
494,871.14,1258.99,187.73,2915.60,899.20
496,871.46,1263.20,222.29,2975.00,899.60
498,871.78,1267.40,253.58,3030.20,897.80
500,872.10,1271.59,280.15,3075.60,894.20
502,872.41,1275.79,324.44,3150.20,895.20
504,872.73,1279.98,353.17,3208.40,898.60
506,873.05,1284.17,403.53,3291.00,901.20
508,873.37,1288.35,430.80,3342.20,886.60
510,873.69,1292.53,492.65,3461.40,893.60
512,874.01,1296.71,588.45,3606.20,891.00
514,874.33,1300.88,706.39,3764.20,886.00
516,874.65,1305.06,788.90,3887.80,893.00
518,874.97,1309.22,774.32,3886.00,887.20
520,875.29,1313.39,743.60,3872.60,898.60
522,875.60,1317.55,713.99,3834.20,896.80
524,875.92,1321.71,718.85,3836.40,895.40
526,876.24,1325.87,726.45,3852.20,902.20
528,876.56,1330.02,742.30,3866.20,891.60
530,876.88,1334.17,731.09,3870.40,902.00
532,877.20,1338.32,757.04,3895.20,890.80
534,877.52,1342.46,733.61,3867.40,889.60
536,877.84,1346.60,733.09,3879.00,898.60
538,878.16,1350.73,756.22,3901.60,892.60
540,878.47,1354.87,758.88,3919.00,895.60
542,878.79,1359.00,760.96,3927.60,896.60
544,879.11,1363.13,780.36,3954.40,902.40
546,879.43,1367.25,779.18,3946.40,889.60
548,879.75,1371.37,766.79,3938.40,891.40
550,880.07,1375.49,754.49,3922.40,894.80
552,880.39,1379.60,755.44,3923.20,895.40
554,880.71,1383.71,730.31,3892.20,895.00
556,881.03,1387.82,741.70,3906.20,891.40
558,881.34,1391.93,730.16,3891.60,889.20
560,881.66,1396.03,739.77,3907.20,891.20
562,881.98,1400.13,767.99,3956.00,902.80
564,882.30,1404.22,736.60,3922.80,895.80
566,882.62,1408.31,782.09,3980.00,894.00
568,882.94,1412.40,801.78,4013.40,901.80
570,883.26,1416.49,776.49,3986.20,893.80
572,883.57,1420.57,823.75,4055.60,895.60
574,883.89,1424.65,851.93,4114.20,888.40
576,884.21,1428.73,911.20,4270.60,905.80
578,884.53,1432.80,1093.20,4592.60,903.00
580,884.85,1436.87,1452.40,5087.40,895.60
582,885.17,1440.93,2054.62,5752.00,895.40
584,885.49,1445.00,2157.81,5847.60,890.40
586,885.80,1449.06,1688.65,5410.20,890.60
588,886.12,1453.11,1280.60,4919.20,904.60
590,886.44,1457.17,1254.24,4766.20,897.80
592,886.76,1461.22,1228.61,4639.40,893.00
594,887.08,1465.26,1095.03,4474.80,898.00
596,887.40,1469.31,923.55,4257.40,888.80
598,887.71,1473.35,882.28,4200.40,891.40
600,888.03,1477.38,904.72,4219.00,896.80
602,888.35,1481.42,961.55,4296.80,898.80
604,888.67,1485.45,1020.07,4388.00,896.60
606,888.99,1489.48,1134.83,4532.40,891.20
608,889.31,1493.50,1229.96,4665.00,896.40
610,889.62,1497.52,1262.44,4744.80,899.20
612,889.94,1501.54,1326.08,4857.80,888.00
614,890.26,1505.56,1393.72,5001.00,896.00
616,890.58,1509.57,1570.90,5259.00,898.80
618,890.90,1513.57,1924.93,5672.60,890.00
620,891.21,1517.58,2169.87,5970.00,897.40
622,891.53,1521.58,2103.06,5985.20,897.00
624,891.85,1525.58,1998.90,5976.00,896.80
626,892.17,1529.57,2210.73,6286.00,896.60
628,892.49,1533.57,2706.78,6883.40,894.60
630,892.80,1537.56,3177.32,7454.80,893.80
632,893.12,1541.54,3393.31,7831.00,893.40
634,893.44,1545.52,3443.85,8069.60,898.20
636,893.76,1549.50,3756.31,8489.00,892.60
638,894.07,1553.48,4276.56,9028.80,899.80
640,894.39,1557.45,4496.15,9221.40,890.40
642,894.71,1561.42,4114.26,8840.80,901.00
644,895.03,1565.39,3598.78,8251.40,890.40
646,895.34,1569.35,3357.81,7890.80,901.00
648,895.66,1573.31,3297.08,7656.00,892.20
650,895.98,1577.26,3154.55,7332.20,891.80
652,896.30,1581.22,2719.00,6716.60,891.80
654,896.61,1585.17,2033.13,5868.40,895.60
656,896.93,1589.11,1370.69,5004.40,901.60
658,897.25,1593.06,1030.91,4469.60,888.40
660,897.57,1597.00,826.59,4141.00,895.80
662,897.88,1600.93,710.36,3952.40,894.20
664,898.20,1604.87,665.38,3874.80,894.60
666,898.52,1608.80,631.59,3822.20,888.80
668,898.84,1612.72,648.44,3850.40,889.80
670,899.15,1616.65,714.02,3929.60,899.20
672,899.47,1620.57,801.90,4012.20,887.60
674,899.79,1624.49,796.44,4028.60,898.80
676,900.10,1628.40,787.37,4021.00,887.80
678,900.42,1632.31,786.02,4024.60,900.20
680,900.74,1636.22,769.30,3972.40,882.60
682,901.05,1640.12,703.18,3920.40,905.80
684,901.37,1644.02,646.06,3852.20,895.00
686,901.69,1647.92,651.71,3870.80,896.80
688,902.00,1651.82,691.95,3914.40,890.40
690,902.32,1655.71,836.66,4053.00,889.60
692,902.64,1659.60,910.71,4107.00,889.60
694,902.95,1663.48,780.48,4002.20,895.20
696,903.27,1667.36,637.95,3851.20,893.00
698,903.59,1671.24,606.54,3784.80,903.00
700,903.90,1675.11,607.57,3725.00,896.40
702,904.22,1678.99,483.50,3564.40,886.40
704,904.54,1682.85,290.74,3370.20,905.80
706,904.85,1686.72,190.10,3216.60,887.80
708,905.17,1690.58,144.77,3141.80,888.80
710,905.49,1694.44,110.84,3078.80,888.80
712,905.80,1698.29,94.94,3062.80,886.40
714,906.12,1702.15,53.21,3020.40,898.40
716,906.43,1706.00,68.80,3004.20,891.80
718,906.75,1709.84,50.35,2971.40,901.80
720,907.07,1713.68,43.51,2939.60,892.20
722,907.38,1717.52,13.76,2893.00,892.80
724,907.70,1721.36,0.00,2844.60,894.00
726,908.01,1725.19,4.76,2837.80,891.20
728,908.33,1729.02,0.75,2816.80,899.60
730,908.65,1732.85,0.00,2778.80,894.20
732,908.96,1736.67,10.53,2789.80,895.20
734,909.28,1740.49,15.60,2769.00,893.20
736,909.59,1744.30,28.84,2772.00,901.60
738,909.91,1748.12,18.75,2738.60,894.00
740,910.22,1751.93,46.30,2751.20,894.80
742,910.54,1755.73,47.59,2741.60,912.60
744,910.85,1759.54,57.72,2724.40,897.60
746,911.17,1763.34,23.54,2664.20,893.40
748,911.49,1767.13,17.94,2634.40,893.20
750,911.80,1770.93,12.54,2604.00,887.20
752,912.12,1774.72,9.75,2588.20,895.80
754,912.43,1778.50,12.39,2564.00,890.80
756,912.75,1782.29,15.35,2550.00,889.60
758,913.06,1786.07,15.52,2525.00,885.20
760,913.38,1789.84,15.65,2509.00,892.60
762,913.69,1793.62,8.50,2489.60,897.40
764,914.01,1797.39,4.16,2458.00,890.40
766,914.32,1801.15,6.69,2443.40,891.20
768,914.64,1804.92,0.00,2411.40,888.00
770,914.95,1808.68,0.00,2397.20,894.40
772,915.26,1812.44,0.45,2388.60,895.80
774,915.58,1816.19,1.21,2358.80,884.00
776,915.89,1819.94,14.98,2372.80,899.20
778,916.21,1823.69,15.77,2357.40,897.00
780,916.52,1827.43,24.01,2359.60,903.40
782,916.84,1831.17,34.89,2338.40,889.00
784,917.15,1834.91,44.81,2330.00,886.80
786,917.47,1838.64,39.75,2322.20,895.20
788,917.78,1842.38,42.92,2311.80,895.60
790,918.09,1846.10,59.60,2306.60,893.20
792,918.41,1849.83,68.71,2306.20,899.20
794,918.72,1853.55,45.76,2259.40,886.80
796,919.04,1857.27,46.78,2253.00,896.40
798,919.35,1860.98,70.02,2259.80,893.20
800,919.66,1864.69,56.50,2235.40,895.80
802,919.98,1868.40,79.79,2244.40,897.80
804,920.29,1872.11,100.44,2244.60,895.80
806,920.60,1875.81,94.39,2228.40,895.20
808,920.92,1879.51,90.08,2209.80,891.60
810,921.23,1883.20,101.02,2208.40,896.00
812,921.55,1886.90,107.23,2186.40,887.60
814,921.86,1890.58,120.56,2198.00,902.60
816,922.17,1894.27,115.75,2183.00,901.80
818,922.49,1897.95,94.99,2145.80,900.20
820,922.80,1901.63,106.22,2132.00,892.20
822,923.11,1905.31,96.42,2104.40,889.40
824,923.42,1908.98,103.09,2103.20,897.40
826,923.74,1912.65,108.88,2091.60,897.80
828,924.05,1916.31,89.76,2054.80,893.40
830,924.36,1919.98,105.33,2053.80,890.20
832,924.68,1923.64,116.55,2041.40,884.40
834,924.99,1927.29,88.23,2002.00,887.60
836,925.30,1930.94,103.23,2000.00,885.60
838,925.61,1934.59,87.36,1972.80,892.40
840,925.93,1938.24,90.41,1966.60,894.20
842,926.24,1941.88,72.19,1936.00,899.80
844,926.55,1945.52,78.81,1916.00,890.40
846,926.86,1949.16,64.88,1893.60,893.80
848,927.18,1952.79,60.52,1871.60,888.40
850,927.49,1956.42,57.13,1852.40,889.80
852,927.80,1960.05,63.42,1870.00,915.60
854,928.11,1963.67,67.19,1833.20,892.60
856,928.42,1967.29,64.90,1822.20,896.80
858,928.74,1970.91,53.88,1795.20,893.60
860,929.05,1974.52,46.90,1769.20,891.40
862,929.36,1978.13,52.65,1760.00,889.60
864,929.67,1981.74,35.90,1734.00,892.20
866,929.98,1985.35,32.87,1713.00,891.00
868,930.29,1988.95,36.37,1706.00,895.00
870,930.61,1992.54,16.01,1667.80,890.40
872,930.92,1996.14,15.74,1653.60,890.80
874,931.23,1999.73,12.92,1642.60,895.20
876,931.54,2003.32,19.17,1633.60,892.60
878,931.85,2006.90,13.34,1611.80,891.20
880,932.16,2010.48,26.07,1610.00,889.20
882,932.47,2014.06,31.10,1596.80,885.60
884,932.78,2017.63,24.84,1586.20,892.80
886,933.09,2021.21,28.38,1575.80,892.60
888,933.41,2024.77,21.80,1561.00,897.00
890,933.72,2028.34,21.38,1553.40,902.40
892,934.03,2031.90,18.65,1528.20,892.80
894,934.34,2035.46,17.57,1516.40,895.00
896,934.65,2039.01,11.91,1492.60,888.40
898,934.96,2042.57,6.63,1481.00,895.60
900,935.27,2046.11,12.66,1479.80,901.40
902,935.58,2049.66,1.70,1439.40,884.80
904,935.89,2053.20,10.42,1441.80,891.60
906,936.20,2056.74,8.48,1429.00,890.00
908,936.51,2060.28,1.92,1411.60,893.40
910,936.82,2063.81,1.02,1398.60,894.20
912,937.13,2067.34,0.65,1387.60,895.80
914,937.44,2070.86,0.00,1373.20,895.00
916,937.75,2074.39,0.00,1350.00,886.00
918,938.06,2077.91,1.09,1348.00,891.40
920,938.37,2081.42,0.00,1334.60,891.40
922,938.68,2084.94,0.00,1322.80,890.80
924,938.99,2088.45,0.00,1308.00,887.60
926,939.30,2091.95,0.00,1302.00,896.80
928,939.60,2095.46,7.18,1299.20,889.20
930,939.91,2098.96,2.38,1294.20,897.80
932,940.22,2102.45,0.00,1276.60,893.20
934,940.53,2105.95,0.00,1264.00,888.80
936,940.84,2109.44,0.00,1254.60,890.80
938,941.15,2112.92,0.01,1255.40,895.20
940,941.46,2116.41,0.00,1242.00,890.60
942,941.77,2119.89,20.58,1254.60,892.60
944,942.07,2123.37,0.00,1227.40,890.00
946,942.38,2126.84,0.00,1220.80,897.00
948,942.69,2130.31,7.01,1226.00,895.00
950,943.00,2133.78,0.00,1203.60,894.60
952,943.31,2137.24,10.44,1217.80,893.20
954,943.62,2140.70,0.00,1197.60,895.60
956,943.92,2144.16,0.00,1195.60,893.40
958,944.23,2147.62,0.00,1193.60,895.40
960,944.54,2151.07,0.00,1193.80,898.80
962,944.85,2154.52,0.00,1191.60,903.80
964,945.16,2157.96,0.01,1190.00,900.40
966,945.46,2161.40,0.00,1179.00,894.80
968,945.77,2164.84,10.11,1173.20,882.40
970,946.08,2168.28,2.99,1176.60,893.40
972,946.39,2171.71,3.73,1173.00,891.20
974,946.69,2175.14,3.33,1166.80,885.60
976,947.00,2178.57,1.42,1174.00,897.20
978,947.31,2181.99,8.73,1162.80,881.40
980,947.61,2185.41,16.68,1170.40,889.20
982,947.92,2188.82,12.70,1172.20,894.40
984,948.23,2192.24,19.33,1165.80,883.20
986,948.53,2195.65,17.14,1171.20,892.00
988,948.84,2199.05,25.68,1163.00,880.40
990,949.15,2202.46,40.38,1178.80,889.80
992,949.45,2205.86,35.36,1177.40,890.40
994,949.76,2209.25,25.58,1162.40,885.20
996,950.07,2212.65,45.84,1176.40,886.00
998,950.37,2216.04,37.78,1166.00,884.00
1000,950.68,2219.43,45.39,1175.60,888.80
1002,950.98,2222.81,49.36,1179.60,894.20
1004,951.29,2226.19,50.11,1172.00,888.40
1006,951.60,2229.57,40.98,1161.20,886.40
1008,951.90,2232.94,43.70,1161.60,885.80
1010,952.21,2236.32,36.86,1151.60,884.40
1012,952.51,2239.68,47.24,1166.60,892.60
1014,952.82,2243.05,46.38,1148.80,880.20
1016,953.12,2246.41,57.83,1166.60,893.00
1018,953.43,2249.77,34.13,1161.60,905.00
1020,953.73,2253.12,29.57,1147.20,895.60
1022,954.04,2256.48,31.93,1130.20,882.40
1024,954.34,2259.83,42.31,1145.60,893.60
1026,954.65,2263.17,20.80,1119.40,885.00
1028,954.95,2266.51,23.65,1127.20,892.80
1030,955.26,2269.85,12.48,1123.00,897.60
1032,955.56,2273.19,0.00,1102.60,893.20
1034,955.87,2276.52,18.24,1112.40,890.60
1036,956.17,2279.85,12.17,1110.80,895.80
1038,956.48,2283.18,0.00,1088.60,886.40
1040,956.78,2286.50,0.00,1088.40,886.20
1042,957.08,2289.82,5.76,1090.60,881.80
1044,957.39,2293.14,0.00,1090.00,895.20
1046,957.69,2296.45,7.72,1088.40,883.40
1048,957.99,2299.76,3.28,1099.80,899.20
1050,958.30,2303.07,0.00,1091.20,894.40
1052,958.60,2306.38,5.07,1090.60,890.00
1054,958.91,2309.68,16.74,1097.00,888.80
1056,959.21,2312.98,19.50,1089.40,880.80
1058,959.51,2316.27,15.65,1097.00,890.00
1060,959.82,2319.56,4.46,1100.60,903.20
1062,960.12,2322.85,21.34,1102.80,888.60
1064,960.42,2326.14,43.80,1110.00,886.80
1066,960.72,2329.42,86.29,1131.20,886.40
1068,961.03,2332.70,62.18,1127.80,894.20
1070,961.33,2335.97,45.93,1115.00,889.60
1072,961.63,2339.25,30.64,1103.00,887.60
1074,961.93,2342.52,24.57,1104.00,895.20
1076,962.24,2345.78,44.58,1107.60,889.20
1078,962.54,2349.05,51.44,1107.00,887.20
1080,962.84,2352.31,41.93,1106.00,892.40
1082,963.14,2355.56,36.20,1092.60,882.60
1084,963.45,2358.82,29.63,1091.00,886.80
1086,963.75,2362.07,36.25,1103.00,895.60
1088,964.05,2365.32,30.20,1102.40,899.00
1090,964.35,2368.56,28.45,1094.20,894.20
1092,964.65,2371.80,29.51,1091.20,893.80
1094,964.95,2375.04,21.27,1085.00,892.40
1096,965.25,2378.27,23.36,1083.00,887.00
1098,965.56,2381.51,23.53,1083.80,890.00
1100,965.86,2384.73,14.51,1076.80,892.60
1102,966.16,2387.96,29.05,1080.40,888.40
1104,966.46,2391.18,21.01,1083.00,895.80
1106,966.76,2394.40,14.98,1072.00,888.80
1108,967.06,2397.62,17.45,1079.40,896.80
1110,967.36,2400.83,14.25,1067.80,887.60
1112,967.66,2404.04,0.00,1067.80,902.00
1114,967.96,2407.25,7.72,1059.80,886.80
1116,968.26,2410.45,13.26,1066.80,890.40
1118,968.56,2413.65,0.06,1058.80,891.80
1120,968.86,2416.85,3.01,1068.20,899.40
1122,969.16,2420.04,15.93,1067.20,891.20
1124,969.46,2423.23,0.00,1052.80,890.00
1126,969.76,2426.42,3.01,1063.60,892.00
1128,970.06,2429.60,12.36,1057.60,881.60
1130,970.36,2432.79,30.39,1068.60,887.60
1132,970.66,2435.96,23.41,1064.60,886.80
1134,970.96,2439.14,20.19,1068.40,889.60
1136,971.26,2442.31,22.92,1076.00,895.20
1138,971.56,2445.48,19.90,1070.00,893.00
1140,971.86,2448.65,40.47,1079.80,890.00
1142,972.16,2451.81,54.60,1087.40,890.00
1144,972.45,2454.97,65.34,1091.80,888.40
1146,972.75,2458.13,67.16,1096.20,891.40
1148,973.05,2461.28,69.40,1094.40,886.80
1150,973.35,2464.43,79.03,1107.40,894.40
1152,973.65,2467.58,94.12,1108.80,889.40
1154,973.95,2470.72,94.20,1108.20,888.60
1156,974.24,2473.86,94.23,1109.20,888.80
1158,974.54,2477.00,95.83,1106.60,886.80
1160,974.84,2480.13,117.74,1117.60,887.20
1162,975.14,2483.27,110.43,1118.40,892.60
1164,975.43,2486.40,98.52,1106.00,885.60
1166,975.73,2489.52,78.36,1099.60,891.80
1168,976.03,2492.64,84.81,1097.20,887.60
1170,976.33,2495.76,84.79,1099.00,892.20
1172,976.62,2498.88,65.92,1085.80,890.00
1174,976.92,2501.99,60.33,1086.60,892.20
1176,977.22,2505.10,38.32,1073.60,892.60
1178,977.51,2508.21,37.38,1069.60,890.00
1180,977.81,2511.31,35.78,1068.00,892.00
1182,978.11,2514.41,42.94,1065.60,889.20
1184,978.40,2517.51,27.99,1062.80,891.20
1186,978.70,2520.61,5.73,1053.60,892.60
1188,979.00,2523.70,0.40,1051.00,897.00
1190,979.29,2526.79,18.79,1049.80,884.80
1192,979.59,2529.87,11.67,1047.40,890.00
1194,979.88,2532.95,10.03,1045.00,887.20
1196,980.18,2536.03,0.25,1048.80,897.00
1198,980.48,2539.11,3.97,1053.60,899.40
1200,980.77,2542.18,18.38,1048.40,888.80
1202,981.07,2545.25,0.00,1051.40,901.60
1204,981.36,2548.32,8.93,1042.60,888.00
1206,981.66,2551.38,4.73,1048.60,896.60
1208,981.95,2554.44,10.40,1048.00,891.20
1210,982.25,2557.50,9.48,1055.20,900.20
1212,982.54,2560.56,31.37,1060.00,896.00
1214,982.84,2563.61,37.31,1066.80,903.00
1216,983.13,2566.66,21.06,1062.20,904.00
1218,983.43,2569.70,27.62,1058.80,894.60
1220,983.72,2572.74,32.81,1064.00,899.80
1222,984.01,2575.78,61.85,1068.60,893.20
1224,984.31,2578.82,64.32,1067.40,891.20
1226,984.60,2581.85,60.16,1071.20,895.40
1228,984.90,2584.88,71.02,1069.80,886.40
1230,985.19,2587.91,81.50,1083.60,895.00
1232,985.48,2590.93,112.78,1099.40,898.20
1234,985.78,2593.96,157.41,1115.20,895.20
1236,986.07,2596.97,179.50,1125.20,894.00
1238,986.36,2599.99,200.31,1142.20,900.60
1240,986.66,2603.00,239.33,1159.00,900.80
1242,986.95,2606.01,243.24,1156.00,898.60
1244,987.24,2609.01,247.76,1153.00,896.80
1246,987.54,2612.02,255.39,1139.60,882.40
1248,987.83,2615.02,202.91,1128.80,892.40
1250,988.12,2618.01,129.96,1103.80,900.00
1252,988.41,2621.01,105.17,1084.60,895.80
1254,988.71,2624.00,98.30,1074.20,892.80
1256,989.00,2626.99,71.64,1067.60,899.20
1258,989.29,2629.97,55.05,1055.60,893.60
1260,989.58,2632.95,39.60,1050.40,897.00
1262,989.87,2635.93,34.75,1049.00,899.60
1264,990.16,2638.91,18.13,1034.80,894.00
1266,990.46,2641.88,26.83,1044.60,899.80
1268,990.75,2644.85,31.44,1050.40,905.40
1270,991.04,2647.81,20.71,1033.60,894.80
1272,991.33,2650.78,34.09,1037.20,892.20
1274,991.62,2653.74,33.18,1033.20,890.00
1276,991.91,2656.70,32.95,1034.80,893.20
1278,992.20,2659.65,27.48,1037.60,897.80
1280,992.49,2662.60,36.68,1032.20,888.40
1282,992.78,2665.55,49.26,1050.80,903.40
1284,993.07,2668.50,50.66,1048.60,901.60
1286,993.36,2671.44,42.89,1044.60,901.80
1288,993.65,2674.38,74.10,1055.60,900.20
1290,993.94,2677.31,74.12,1050.20,896.00
1292,994.23,2680.25,78.71,1050.60,895.00
1294,994.52,2683.18,79.93,1053.40,898.20
1296,994.81,2686.10,69.46,1045.80,897.20
1298,995.10,2689.03,102.01,1055.40,894.00
1300,995.39,2691.95,75.82,1046.40,894.00
1302,995.68,2694.87,77.67,1058.00,905.00
1304,995.97,2697.78,75.51,1052.00,903.20
1306,996.26,2700.70,81.23,1042.00,893.20
1308,996.55,2703.61,80.80,1047.40,899.60
1310,996.84,2706.51,77.30,1047.00,900.60
1312,997.13,2709.42,67.26,1043.20,900.00
1314,997.41,2712.32,59.21,1040.20,901.60
1316,997.70,2715.21,57.60,1029.40,894.60
1318,997.99,2718.11,53.73,1028.80,896.40
1320,998.28,2721.00,41.44,1020.40,891.00
1322,998.57,2723.89,23.29,1024.60,903.00
1324,998.86,2726.77,26.53,1016.00,895.00
1326,999.14,2729.66,23.15,1013.40,895.40
1328,999.43,2732.54,18.95,1009.60,894.00
1330,999.72,2735.41,19.96,1006.40,890.80
1332,1000.01,2738.29,13.44,1014.40,900.60
1334,1000.29,2741.16,3.55,1005.80,897.20
1336,1000.58,2744.03,8.13,998.80,890.00
1338,1000.87,2746.89,26.67,1018.60,903.40
1340,1001.15,2749.75,0.00,999.00,899.00
1342,1001.44,2752.61,0.00,1001.80,899.60
1344,1001.73,2755.47,0.00,1003.60,899.00
1346,1002.01,2758.32,20.54,1007.20,893.00
1348,1002.30,2761.17,18.18,1014.00,903.00
1350,1002.59,2764.02,0.71,1012.40,907.00
1352,1002.87,2766.86,0.00,1002.00,898.20
1354,1003.16,2769.70,21.72,1007.20,894.80
1356,1003.44,2772.54,34.37,1007.60,891.00
1358,1003.73,2775.38,19.00,1008.80,895.00
1360,1004.01,2778.21,5.41,1004.80,894.60
1362,1004.30,2781.04,2.37,1009.00,899.60
1364,1004.58,2783.87,14.98,1008.80,892.60
1366,1004.87,2786.69,47.57,1013.60,888.80
1368,1005.15,2789.51,66.94,1024.00,894.80
1370,1005.44,2792.33,60.57,1028.40,898.20
1372,1005.72,2795.14,54.43,1030.80,901.60
1374,1006.01,2797.95,87.64,1040.40,901.00
1376,1006.29,2800.76,96.25,1034.40,892.00
1378,1006.58,2803.57,103.09,1053.00,907.00
1380,1006.86,2806.37,114.90,1042.80,893.00
1382,1007.14,2809.17,139.79,1052.00,896.20
1384,1007.43,2811.97,171.55,1054.80,889.80
1386,1007.71,2814.77,167.17,1054.60,888.80
1388,1008.00,2817.56,174.93,1054.60,886.00
1390,1008.28,2820.35,189.76,1067.80,897.00
1392,1008.56,2823.13,200.23,1059.40,886.40
1394,1008.85,2825.91,175.52,1061.40,894.00
1396,1009.13,2828.69,154.69,1060.00,897.20
1398,1009.41,2831.47,147.73,1060.80,900.20
1400,1009.69,2834.24,150.76,1051.60,892.00
1402,1009.98,2837.02,177.10,1056.80,891.40
1404,1010.26,2839.78,159.74,1056.20,895.40
1406,1010.54,2842.55,137.56,1042.60,887.20
1408,1010.82,2845.31,105.77,1046.20,900.60
1410,1011.11,2848.07,103.67,1044.00,899.40
1412,1011.39,2850.83,97.02,1046.00,901.40
1414,1011.67,2853.58,49.47,1030.60,899.20
1416,1011.95,2856.33,53.69,1033.40,902.20
1418,1012.23,2859.08,79.41,1029.60,894.40
1420,1012.51,2861.83,54.34,1023.40,893.20
1422,1012.80,2864.57,31.09,1031.00,904.20
1424,1013.08,2867.31,13.93,1026.00,905.40
1426,1013.36,2870.04,44.76,1028.20,900.80
1428,1013.64,2872.78,38.12,1025.80,900.80
1430,1013.92,2875.51,9.57,1025.20,906.60
1432,1014.20,2878.24,21.39,1017.00,894.60
1434,1014.48,2880.96,14.15,1011.60,892.40
1436,1014.76,2883.68,28.37,1010.20,888.00
1438,1015.04,2886.40,1.61,1007.80,891.20
1440,1015.32,2889.12,0.46,1021.00,904.00
1442,1015.60,2891.83,0.00,1009.00,894.00
1444,1015.88,2894.54,0.00,1013.20,903.60
1446,1016.16,2897.25,0.00,1003.80,888.80
1448,1016.44,2899.96,0.00,1013.80,896.40
1450,1016.72,2902.66,0.00,1014.20,896.20
1452,1017.00,2905.36,1.59,1025.20,903.80
1454,1017.28,2908.06,13.75,1018.20,892.40
1456,1017.55,2910.75,0.00,1021.40,901.80
1458,1017.83,2913.44,4.15,1021.60,891.00
1460,1018.11,2916.13,0.29,1026.60,896.60
1462,1018.39,2918.81,60.69,1039.80,894.00
1464,1018.67,2921.49,25.75,1035.00,895.60
1466,1018.95,2924.17,32.91,1036.80,892.60
1468,1019.22,2926.85,11.99,1043.60,897.80
1470,1019.50,2929.52,0.00,1028.00,891.80
1472,1019.78,2932.20,0.00,1037.20,892.60
1474,1020.06,2934.86,53.20,1056.20,893.40
1476,1020.33,2937.53,4.75,1061.20,908.00
1478,1020.61,2940.19,35.22,1059.20,896.60
1480,1020.89,2942.85,36.75,1068.20,901.20
1482,1021.17,2945.51,28.95,1064.80,895.60
1484,1021.44,2948.16,34.57,1072.00,897.80
1486,1021.72,2950.81,13.64,1070.60,900.20
1488,1022.00,2953.46,88.30,1091.80,905.80
1490,1022.27,2956.11,95.97,1089.00,898.40
1492,1022.55,2958.75,52.29,1091.20,903.80
1494,1022.82,2961.39,73.97,1092.60,896.40
1496,1023.10,2964.03,28.80,1093.00,905.80
1498,1023.38,2966.66,26.28,1084.60,896.00
1500,1023.65,2969.29,57.70,1095.20,898.00
1502,1023.93,2971.92,42.22,1096.40,900.00
1504,1024.20,2974.55,46.12,1097.20,897.80
1506,1024.48,2977.17,23.79,1096.60,899.20
1508,1024.75,2979.79,16.68,1093.80,895.80
1510,1025.03,2982.41,47.06,1097.80,891.40
1512,1025.30,2985.02,1.69,1092.80,893.20
1514,1025.58,2987.63,0.97,1098.60,897.00
1516,1025.85,2990.24,30.27,1100.40,890.40
1518,1026.13,2992.85,5.99,1109.40,902.60
1520,1026.40,2995.45,0.00,1103.20,901.20
1522,1026.68,2998.05,0.00,1105.00,897.40
1524,1026.95,3000.65,0.00,1109.60,908.80
1526,1027.22,3003.25,6.67,1124.20,899.80
1528,1027.50,3005.84,0.00,1115.80,895.80
1530,1027.77,3008.43,89.76,1137.00,893.20
1532,1028.04,3011.02,0.00,1137.60,905.00
1534,1028.32,3013.60,2.92,1139.40,894.60
1536,1028.59,3016.18,0.00,1153.60,905.40
1538,1028.86,3018.76,0.00,1136.20,882.20
1540,1029.14,3021.34,0.00,1152.20,897.00
1542,1029.41,3023.91,32.56,1167.20,893.80
1544,1029.68,3026.48,0.00,1161.60,893.80
1546,1029.95,3029.05,4.43,1178.80,895.40
1548,1030.22,3031.61,15.79,1186.40,892.20
1550,1030.50,3034.17,0.00,1186.20,897.60
1552,1030.77,3036.73,0.00,1190.00,893.00
1554,1031.04,3039.29,0.00,1211.20,900.40
1556,1031.31,3041.84,0.00,1218.40,891.00
1558,1031.58,3044.39,0.00,1240.40,908.80
1560,1031.85,3046.94,0.79,1251.40,901.60
1562,1032.13,3049.49,40.91,1261.20,893.60
1564,1032.40,3052.03,20.71,1278.00,903.80
1566,1032.67,3054.57,33.08,1283.20,896.40
1568,1032.94,3057.11,66.57,1301.20,899.80
1570,1033.21,3059.64,198.07,1314.00,888.00
1572,1033.48,3062.18,210.07,1335.40,903.80
1574,1033.75,3064.70,228.79,1338.60,897.40
1576,1034.02,3067.23,278.03,1358.80,904.60
1578,1034.29,3069.75,368.81,1362.20,889.40
1580,1034.56,3072.28,462.95,1391.40,902.80
1582,1034.83,3074.79,655.66,1410.00,894.20
1584,1035.10,3077.31,777.32,1437.80,904.20
1586,1035.37,3079.82,960.46,1457.00,893.80
1588,1035.64,3082.33,1114.95,1497.40,907.60
1590,1035.91,3084.84,1163.67,1504.60,903.40
1592,1036.17,3087.34,1438.97,1538.80,895.00
1594,1036.44,3089.85,1659.06,1584.20,910.00
1596,1036.71,3092.35,2094.83,1624.00,892.20
1598,1036.98,3094.84,2377.40,1657.60,889.80
1600,1037.25,3097.34,2697.69,1704.60,893.60
1602,1037.52,3099.83,3164.71,1771.20,897.20
1604,1037.78,3102.32,3496.55,1813.20,896.60
1606,1038.05,3104.80,3957.43,1874.40,901.60
1608,1038.32,3107.29,4433.92,1922.80,895.60
1610,1038.59,3109.77,4823.41,1962.40,892.60
1612,1038.85,3112.24,5178.44,2006.20,896.60
1614,1039.12,3114.72,5363.83,2032.80,903.80
1616,1039.39,3117.19,5647.74,2051.40,889.60
1618,1039.66,3119.66,5546.21,2054.00,906.20
1620,1039.92,3122.13,5632.68,2056.40,900.60
1622,1040.19,3124.59,5664.03,2055.20,900.40
1624,1040.45,3127.05,5727.23,2052.80,894.80
1626,1040.72,3129.51,5565.45,2039.60,904.20
1628,1040.99,3131.97,5469.48,2024.40,903.80
1630,1041.25,3134.42,5429.92,2017.00,906.40
1632,1041.52,3136.87,5370.24,1991.60,896.20
1634,1041.78,3139.32,5426.96,1992.80,898.60
1636,1042.05,3141.77,5118.99,1976.20,919.20
1638,1042.32,3144.21,4889.64,1932.60,900.00
1640,1042.58,3146.65,4604.40,1910.80,912.20
1642,1042.85,3149.09,4511.54,1880.20,899.00
1644,1043.11,3151.52,4489.19,1866.60,895.80
1646,1043.38,3153.96,4202.13,1839.00,903.80
1648,1043.64,3156.39,4056.13,1814.00,896.20
1650,1043.90,3158.81,3946.20,1800.40,896.80
1652,1044.17,3161.24,3675.34,1775.00,903.80
1654,1044.43,3163.66,3641.86,1756.40,891.40
1656,1044.70,3166.08,3355.52,1742.80,910.00
1658,1044.96,3168.49,3111.55,1705.80,902.20
1660,1045.22,3170.91,3103.93,1692.00,895.20
1662,1045.49,3173.32,2970.64,1678.60,900.40
1664,1045.75,3175.73,2827.73,1661.80,899.00
1666,1046.01,3178.13,2436.79,1619.80,894.60
1668,1046.28,3180.54,2212.90,1612.40,909.40
1670,1046.54,3182.94,2118.73,1599.40,908.20
1672,1046.80,3185.34,1990.97,1580.00,905.00
1674,1047.07,3187.73,1840.14,1549.00,891.60
1676,1047.33,3190.12,1643.92,1539.40,902.60
1678,1047.59,3192.51,1534.91,1529.60,904.20
1680,1047.85,3194.90,1384.40,1525.40,915.00
1682,1048.11,3197.29,1266.41,1507.80,909.40
1684,1048.38,3199.67,1138.69,1490.60,905.00
1686,1048.64,3202.05,1111.85,1489.20,906.60
1688,1048.90,3204.43,1013.31,1470.20,898.00
1690,1049.16,3206.80,944.09,1460.80,898.60
1692,1049.42,3209.17,995.71,1464.40,902.20
1694,1049.68,3211.54,909.24,1453.00,899.00
1696,1049.94,3213.91,749.79,1442.20,899.40
1698,1050.20,3216.27,526.74,1428.20,904.60
1700,1050.46,3218.63,444.17,1425.80,912.00
1702,1050.72,3220.99,520.07,1419.00,901.80
1704,1050.98,3223.35,420.95,1411.60,903.40
1706,1051.24,3225.70,352.06,1400.40,898.00
1708,1051.50,3228.05,265.74,1390.80,895.60
1710,1051.76,3230.40,143.24,1391.40,908.60
1712,1052.02,3232.75,95.80,1377.80,903.40
1714,1052.28,3235.09,52.32,1374.60,909.60
1716,1052.54,3237.43,202.18,1373.00,901.60
1718,1052.80,3239.77,51.97,1356.00,900.80
1720,1053.06,3242.11,20.46,1349.20,901.40
1722,1053.32,3244.44,126.20,1345.00,894.20
1724,1053.58,3246.77,126.57,1353.20,908.60
1726,1053.84,3249.10,154.87,1345.20,903.00
1728,1054.10,3251.42,161.69,1342.40,902.80
1730,1054.35,3253.75,161.51,1334.20,899.60
1732,1054.61,3256.07,220.75,1336.60,905.00
1734,1054.87,3258.39,385.03,1335.00,900.60
1736,1055.13,3260.70,356.05,1327.20,900.40
1738,1055.38,3263.01,243.38,1311.60,896.00
1740,1055.64,3265.32,346.18,1318.80,900.00
1742,1055.90,3267.63,421.36,1313.20,896.00
1744,1056.16,3269.94,649.54,1336.80,912.60
1746,1056.41,3272.24,497.47,1317.00,908.60
1748,1056.67,3274.54,655.83,1319.60,904.20
1750,1056.93,3276.84,553.67,1309.80,903.80
1752,1057.18,3279.13,492.38,1296.80,900.20
1754,1057.44,3281.42,717.72,1299.20,894.80
1756,1057.69,3283.71,617.60,1288.40,897.40
1758,1057.95,3286.00,734.62,1298.80,905.80
1760,1058.21,3288.28,982.61,1302.20,897.60
1762,1058.46,3290.57,833.75,1297.40,905.00
1764,1058.72,3292.85,711.93,1281.20,901.00
1766,1058.97,3295.12,954.87,1286.20,897.20
1768,1059.23,3297.40,919.47,1278.20,898.20
1770,1059.48,3299.67,1185.02,1294.40,903.00
1772,1059.74,3301.94,1067.60,1278.80,898.00
1774,1059.99,3304.21,1211.62,1288.40,903.80
1776,1060.25,3306.47,1521.64,1305.60,909.00
1778,1060.50,3308.73,1319.15,1274.00,895.00
1780,1060.76,3310.99,1585.01,1291.80,902.80
1782,1061.01,3313.25,1853.83,1298.60,899.80
1784,1061.26,3315.50,1901.38,1299.60,902.40
1786,1061.52,3317.76,1855.43,1298.20,907.00
1788,1061.77,3320.01,2232.77,1312.60,905.60
1790,1062.02,3322.25,2279.95,1299.60,897.80
1792,1062.28,3324.50,2478.11,1307.40,902.00
1794,1062.53,3326.74,2680.58,1308.40,897.00
1796,1062.78,3328.98,2551.12,1301.00,900.40
1798,1063.04,3331.22,2727.20,1303.60,899.00
1800,1063.29,3333.45,2688.70,1293.80,896.80
1802,1063.54,3335.68,2640.48,1291.40,901.60
1804,1063.79,3337.91,2682.26,1289.00,901.40
1806,1064.05,3340.14,2532.42,1285.20,910.20
1808,1064.30,3342.36,2456.23,1259.80,894.00
1810,1064.55,3344.59,2312.54,1258.00,903.80
1812,1064.80,3346.81,2074.55,1238.40,899.60
1814,1065.05,3349.02,2156.96,1236.00,896.60
1816,1065.30,3351.24,1852.56,1231.20,909.40
1818,1065.55,3353.45,1618.32,1208.20,901.40
1820,1065.81,3355.66,1617.49,1217.40,915.60
1822,1066.06,3357.87,1717.30,1197.80,896.40
1824,1066.31,3360.07,1503.84,1183.60,896.20
1826,1066.56,3362.27,1335.12,1180.20,904.60
1828,1066.81,3364.47,1120.60,1161.60,899.60
1830,1067.06,3366.67,1220.25,1165.00,901.60
1832,1067.31,3368.87,820.74,1142.00,898.00
1834,1067.56,3371.06,699.71,1129.80,893.20
1836,1067.81,3373.25,593.21,1123.00,894.20
1838,1068.06,3375.44,549.17,1119.00,896.20
1840,1068.31,3377.62,417.57,1106.00,893.40
1842,1068.56,3379.81,509.66,1102.40,890.20
1844,1068.80,3381.99,318.28,1110.20,907.80
1846,1069.05,3384.16,260.29,1099.80,900.60
1848,1069.30,3386.34,170.96,1091.20,897.00
1850,1069.55,3388.51,0.00,1081.20,900.80
1852,1069.80,3390.68,40.57,1081.20,899.80
1854,1070.05,3392.85,118.38,1093.40,911.60
1856,1070.30,3395.02,219.12,1079.00,896.60
1858,1070.54,3397.18,209.50,1069.60,890.40
1860,1070.79,3399.34,227.07,1074.60,896.40
1862,1071.04,3401.50,211.52,1075.60,899.00
1864,1071.29,3403.66,341.57,1068.00,886.00
1866,1071.53,3405.81,378.64,1081.00,899.80
1868,1071.78,3407.96,557.18,1083.40,896.40
1870,1072.03,3410.11,877.68,1101.40,902.00
1872,1072.27,3412.26,1443.23,1117.80,898.00
1874,1072.52,3414.40,2288.48,1139.40,898.00
1876,1072.77,3416.54,4062.95,1180.40,899.20
1878,1073.01,3418.68,5739.15,1213.20,904.20
1880,1073.26,3420.82,6009.37,1198.60,887.60
1882,1073.51,3422.96,4526.21,1181.20,900.40
1884,1073.75,3425.09,2806.56,1138.40,898.60
1886,1074.00,3427.22,1745.07,1098.20,890.80
1888,1074.24,3429.35,1289.62,1093.40,904.00
1890,1074.49,3431.47,736.81,1060.00,896.40
1892,1074.73,3433.59,448.56,1041.80,893.20
1894,1074.98,3435.71,508.30,1053.20,905.40
1896,1075.22,3437.83,299.36,1036.20,899.00
1898,1075.47,3439.95,138.14,1036.80,907.40
1900,1075.71,3442.06,32.51,1032.20,908.80
1902,1075.96,3444.17,5.25,1016.60,896.60
1904,1076.20,3446.28,140.44,1005.00,881.20
1906,1076.44,3448.38,147.17,1027.00,906.60
1908,1076.69,3450.49,292.17,1026.80,905.40
1910,1076.93,3452.59,293.79,1023.80,905.00
1912,1077.17,3454.69,423.70,1015.20,894.20
1914,1077.42,3456.79,434.45,1017.80,897.20
1916,1077.66,3458.88,732.03,1022.80,891.20
1918,1077.90,3460.97,656.39,1025.80,897.40
1920,1078.15,3463.06,1071.18,1050.60,908.40
1922,1078.39,3465.15,1963.69,1066.20,900.60
1924,1078.63,3467.23,3601.81,1087.80,890.80
1926,1078.87,3469.32,5534.31,1127.00,904.60
1928,1079.12,3471.40,7132.45,1138.20,895.20
1930,1079.36,3473.47,6441.75,1149.40,917.60
1932,1079.60,3475.55,4089.77,1082.60,891.00
1934,1079.84,3477.62,2465.91,1058.80,899.00
1936,1080.08,3479.69,1557.27,1029.20,893.60
1938,1080.33,3481.76,1223.36,1012.20,890.00
1940,1080.57,3483.83,843.35,1008.20,902.80
1942,1080.81,3485.89,886.03,1001.40,898.20
1944,1081.05,3487.95,565.18,996.60,905.20
1946,1081.29,3490.01,369.78,986.60,903.20
1948,1081.53,3492.07,561.69,977.20,892.00
1950,1081.77,3494.12,832.14,980.60,892.20
1952,1082.01,3496.18,206.47,975.80,902.80
1954,1082.25,3498.23,359.79,969.40,893.40
1956,1082.49,3500.27,7.12,964.80,899.60
1958,1082.73,3502.32,0.00,956.80,894.60
1960,1082.97,3504.36,130.72,966.80,901.00
1962,1083.21,3506.40,172.17,959.40,894.40
1964,1083.45,3508.44,114.42,954.20,892.60
1966,1083.69,3510.48,258.88,974.40,911.60
1968,1083.93,3512.51,150.58,957.60,898.60
1970,1084.16,3514.54,265.97,956.40,896.40
1972,1084.40,3516.57,75.94,954.40,899.40
1974,1084.64,3518.60,373.75,953.60,892.60
1976,1084.88,3520.62,0.00,957.20,908.40
1978,1085.12,3522.65,62.72,957.20,906.00
1980,1085.36,3524.67,407.98,956.80,900.00
1982,1085.59,3526.68,307.54,945.80,892.80
1984,1085.83,3528.70,0.00,952.00,906.00
1986,1086.07,3530.71,64.18,942.20,895.20
1988,1086.31,3532.72,0.78,949.40,904.80
1990,1086.54,3534.73,217.54,941.60,893.20
1992,1086.78,3536.74,0.00,950.80,909.80
1994,1087.02,3538.74,171.09,944.20,898.80
1996,1087.25,3540.74,116.14,937.00,893.60
1998,1087.49,3542.74,285.80,942.00,896.80
2000,1087.73,3544.74,255.44,942.60,898.40
2002,1087.96,3546.74,35.01,942.40,902.40
2004,1088.20,3548.73,0.00,944.20,905.80
2006,1088.43,3550.72,175.12,940.40,897.20
2008,1088.67,3552.71,282.71,938.00,893.40
2010,1088.90,3554.69,178.17,931.60,891.00
2012,1089.14,3556.68,142.59,942.60,903.80
2014,1089.38,3558.66,304.99,932.00,891.60
2016,1089.61,3560.64,771.49,935.60,889.80
2018,1089.84,3562.62,121.35,939.60,903.40
2020,1090.08,3564.59,443.03,931.60,890.40
2022,1090.31,3566.56,0.00,927.60,894.60
2024,1090.55,3568.53,78.50,930.00,894.40
2026,1090.78,3570.50,50.12,923.20,888.80
2028,1091.02,3572.47,47.32,924.20,890.80
2030,1091.25,3574.43,629.39,932.00,889.60
2032,1091.48,3576.39,700.83,921.80,881.80
2034,1091.72,3578.35,615.34,920.80,882.40
2036,1091.95,3580.31,447.34,926.60,889.40
2038,1092.18,3582.26,66.19,913.40,882.20
2040,1092.42,3584.22,87.00,912.60,881.40
2042,1092.65,3586.17,0.00,914.00,885.20
2044,1092.88,3588.12,177.50,912.80,880.60
2046,1093.11,3590.06,12.07,907.40,878.00
2047,1093.23,3591.03,2.45,905.00,876.00