File: enlighten/plugins/Raman/MatchingLibrary/785X/methyl isobutyl ketone.csv
ENLIGHTEN Version,4.1.22
Measurement ID,20250220-195424-806915-WP-01977
Serial Number,WP-01977
Model,WP-785X-F13-R-ILC
Detector,S16011-1106
Label,methyl isobutyl ketone
Declared Match,
Declared Score,0
Scan Averaging,2
Boxcar,0
Technique,Raman
Baseline Correction Algo,AirPLS
ROI Pixel Start,47
ROI Pixel End,2047
ROI Start Line,0
ROI Stop Line,63
CCD C4,1.38617e-12
Slit Width,25
Cropped,True
Interpolated,False
Wavenumber Correction,-0.100481
Raman Intensity Corrected,True
Deconvolved,True
Region,
High Gain Mode,False
Laser Power mW,
Electrical Dark Correction,False
Battery %,
Device ID,<DeviceID USB:0x24aa:0x1000:0:1>
FW Version,10.0.0.10
FPGA Version,035-001
BLE Version,
Prefix,enlighten
Suffix,
Preset,
Auto-Raman,True
Session Count,0
Plugin Name,
Integration Time,760
Timestamp,2025-02-20 19:54:24.8069
Note,
Temperature,0
CCD C0,793.274
CCD C1,0.153259
CCD C2,1.40788e-05
CCD C3,-1.132e-08
CCD Offset,0
CCD Gain,1.9
CCD Offset Odd,0
CCD Gain Odd,1.9
Laser Wavelength,785.032
Laser Enable,False
Laser Power %,0
Laser Temperature,0
Pixel Count,2048

Pixel,Wavelength,Wavenumber,Processed,Raw,Dark
0,793.27,132.25,NA,1081.50,1018.00
2,793.58,137.12,NA,1103.00,1039.00
4,793.89,141.99,NA,1101.50,1036.00
6,794.19,146.86,NA,1090.00,1024.50
8,794.50,151.72,NA,1125.50,1049.00
10,794.81,156.58,NA,1117.00,1055.50
12,795.12,161.44,NA,1092.00,1025.50
14,795.42,166.30,NA,1103.50,1023.50
16,795.73,171.16,NA,1102.50,1027.50
18,796.04,176.01,NA,1133.00,1064.00
20,796.35,180.86,NA,1131.50,1054.00
22,796.65,185.71,NA,1183.00,1091.00
24,796.96,190.56,NA,1125.00,1049.50
26,797.27,195.41,NA,1173.00,1087.00
28,797.58,200.25,NA,1158.50,1081.50
30,797.88,205.09,NA,1134.00,1042.50
32,798.19,209.93,NA,1143.50,1045.50
34,798.50,214.77,NA,1136.50,1046.50
36,798.81,219.60,NA,1155.00,1043.50
38,799.12,224.43,NA,1197.50,1049.50
40,799.43,229.27,NA,1483.00,1087.00
42,799.74,234.09,NA,2455.00,1074.00
44,800.04,238.92,NA,3959.50,1120.50
46,800.35,243.75,NA,4606.00,1057.50
48,800.66,248.57,237.10,4699.00,1076.00
50,800.97,253.39,183.65,4659.00,1080.00
52,801.28,258.21,153.18,4646.50,1096.00
54,801.59,263.02,132.02,4612.00,1094.00
56,801.90,267.83,12.23,4448.00,1072.00
58,802.21,272.65,2.39,4427.50,1076.00
60,802.52,277.46,0.03,4401.00,1073.00
62,802.83,282.26,2.70,4450.50,1110.00
64,803.14,287.07,86.88,4576.50,1108.00
66,803.45,291.87,328.19,4884.50,1099.00
68,803.76,296.67,762.59,5513.50,1107.00
70,804.07,301.47,1521.93,6742.00,1089.50
72,804.38,306.26,3235.61,9427.50,1072.00
74,804.69,311.06,7240.94,14648.00,1079.00
76,805.00,315.85,13398.41,20839.50,1082.50
78,805.31,320.64,14583.54,22056.50,1087.50
80,805.62,325.42,9293.48,17110.50,1098.50
82,805.93,330.21,4938.04,11860.00,1100.00
84,806.24,334.99,3024.52,8941.00,1062.00
86,806.55,339.77,2624.51,8064.00,1077.00
88,806.86,344.55,2967.79,8215.00,1100.50
90,807.17,349.32,2909.48,7993.00,1062.00
92,807.48,354.10,2323.40,7332.50,1074.50
94,807.80,358.87,1546.20,6388.50,1094.00
96,808.11,363.63,1008.54,5618.00,1088.00
98,808.42,368.40,783.94,5198.50,1059.00
100,808.73,373.16,562.04,4856.50,1050.00
102,809.04,377.93,432.21,4654.50,1048.50
104,809.35,382.68,379.36,4571.00,1056.00
106,809.66,387.44,385.40,4608.00,1077.00
108,809.98,392.19,603.95,4866.00,1048.50
110,810.29,396.95,898.40,5306.50,1084.50
112,810.60,401.70,1340.11,5985.50,1055.00
114,810.91,406.44,2040.53,7259.50,1061.00
116,811.22,411.19,3846.86,9902.50,1081.50
118,811.54,415.93,7043.36,13432.00,1089.00
120,811.85,420.67,8103.01,14619.50,1057.00
122,812.16,425.41,5866.09,12637.50,1061.50
124,812.47,430.14,4583.13,11032.50,1080.00
126,812.79,434.87,4661.73,10572.00,1064.00
128,813.10,439.60,4417.26,9884.50,1037.00
130,813.41,444.33,3079.55,8298.50,1065.50
132,813.72,449.06,1768.61,6537.00,1051.50
134,814.04,453.78,1132.79,5512.50,1072.00
136,814.35,458.50,869.22,4993.00,1037.00
138,814.66,463.22,783.71,4826.50,1038.00
140,814.98,467.93,829.34,4915.50,1060.00
142,815.29,472.65,1156.27,5341.50,1061.00
144,815.60,477.36,1572.91,5822.00,1070.00
146,815.92,482.06,1748.04,5955.00,1037.00
148,816.23,486.77,1410.44,5584.00,1070.00
150,816.54,491.47,1007.28,5079.00,1114.00
152,816.86,496.17,738.78,4572.00,1037.00
154,817.17,500.87,554.82,4297.50,1069.00
156,817.48,505.57,520.09,4177.00,1042.50
158,817.80,510.26,543.77,4207.50,1045.50
160,818.11,514.95,692.86,4490.50,1077.00
162,818.42,519.64,1053.50,5085.50,1073.00
164,818.74,524.32,1873.85,6110.50,1057.00
166,819.05,529.00,2705.14,6927.50,1080.00
168,819.37,533.68,2009.74,6177.00,1058.00
170,819.68,538.36,1006.54,4929.50,1070.50
172,819.99,543.04,579.38,4213.00,1094.00
174,820.31,547.71,443.27,3868.50,1056.00
176,820.62,552.38,518.27,3913.00,1034.00
178,820.94,557.05,680.78,4214.50,1064.50
180,821.25,561.71,1101.72,4875.00,1024.00
182,821.57,566.37,1881.27,6102.00,1038.00
184,821.88,571.03,3048.53,7768.00,1054.50
186,822.20,575.69,4268.51,9628.00,1073.00
188,822.51,580.34,5003.88,11867.50,1058.50
190,822.83,584.99,7334.78,17480.00,1060.00
192,823.14,589.64,17744.84,31827.50,1061.00
194,823.46,594.29,31261.27,44288.50,1062.00
196,823.77,598.93,20631.81,34462.00,1064.50
198,824.09,603.57,6896.62,17102.50,1047.00
200,824.40,608.21,2628.34,8454.50,1054.00
202,824.72,612.85,1405.19,5376.00,1079.50
204,825.03,617.48,924.74,4274.00,1064.00
206,825.35,622.11,741.35,3924.50,1068.00
208,825.66,626.74,880.49,3996.00,1055.00
210,825.98,631.36,1124.84,4105.00,1034.00
212,826.29,635.99,745.63,3666.50,1057.50
214,826.61,640.61,290.79,3027.50,1058.00
216,826.92,645.22,139.38,2673.00,1038.00
218,827.24,649.84,68.23,2466.50,1024.00
220,827.56,654.45,6.49,2409.50,1076.00
222,827.87,659.06,0.00,2299.50,1064.50
224,828.19,663.67,0.00,2241.00,1063.00
226,828.50,668.27,0.00,2264.00,1110.00
228,828.82,672.87,0.00,2202.00,1071.50
230,829.13,677.47,0.00,2148.50,1044.50
232,829.45,682.06,0.00,2173.50,1070.50
234,829.77,686.66,0.00,2196.00,1072.00
236,830.08,691.25,0.00,2187.50,1050.50
238,830.40,695.83,0.00,2166.50,1050.00
240,830.72,700.42,0.00,2181.00,1045.00
242,831.03,705.00,0.00,2149.50,1008.50
244,831.35,709.58,0.00,2235.50,1048.00
246,831.66,714.15,0.00,2220.50,1014.50
248,831.98,718.73,0.03,2355.50,1049.50
250,832.30,723.30,11.62,2407.00,1022.50
252,832.61,727.87,72.86,2606.00,1078.50
254,832.93,732.43,154.11,2694.00,993.50
256,833.25,736.99,308.18,3081.00,1066.00
258,833.56,741.55,547.10,3507.50,1038.00
260,833.88,746.11,928.67,4193.50,1042.50
262,834.20,750.66,1520.95,5122.00,1042.00
264,834.51,755.22,2022.92,5993.50,1062.50
266,834.83,759.76,2354.35,6728.50,1068.00
268,835.15,764.31,2959.91,7876.50,1062.00
270,835.47,768.85,3868.01,9745.50,1030.50
272,835.78,773.39,5548.88,13363.50,1048.50
274,836.10,777.93,10032.72,20773.00,1044.50
276,836.42,782.46,17269.93,30490.00,1047.50
278,836.73,787.00,20403.49,35291.00,1037.00
280,837.05,791.52,18837.02,34175.00,1028.00
282,837.37,796.05,16907.88,31200.50,1074.00
284,837.69,800.57,13563.93,26516.50,1045.50
286,838.00,805.09,11048.08,23349.00,1049.50
288,838.32,809.61,12289.18,24987.00,1051.50
290,838.64,814.13,16016.84,29366.50,1077.00
292,838.95,818.64,17349.40,30836.50,1055.50
294,839.27,823.15,14785.91,27832.50,1055.00
296,839.59,827.65,11407.67,23315.50,1071.50
298,839.91,832.15,9666.21,20428.50,1042.50
300,840.22,836.65,9582.36,19485.00,1097.00
302,840.54,841.15,9319.54,18253.50,1035.00
304,840.86,845.65,6855.76,14874.50,1079.00
306,841.18,850.14,4261.94,11104.00,1074.00
308,841.50,854.63,2790.05,8603.00,1132.00
310,841.81,859.11,2175.26,7265.00,1046.50
312,842.13,863.60,1870.72,6644.00,1049.50
314,842.45,868.07,1623.78,6192.50,1036.00
316,842.77,872.55,1389.07,5795.50,1054.00
318,843.08,877.03,1039.22,5322.50,1092.00
320,843.40,881.50,694.73,4736.00,1021.50
322,843.72,885.97,484.64,4440.00,1066.00
324,844.04,890.43,303.01,4138.00,1033.00
326,844.36,894.89,216.19,4036.50,1051.00
328,844.67,899.35,224.26,4068.00,1059.50
330,844.99,903.81,269.12,4115.00,1022.00
332,845.31,908.26,451.45,4484.50,1058.00
334,845.63,912.71,757.30,5064.50,1049.50
336,845.95,917.16,1368.96,6094.50,1066.50
338,846.27,921.61,2303.46,7837.50,1470.00
340,846.58,926.05,2834.41,8463.00,1057.00
342,846.90,930.49,3314.84,9739.50,1061.50
344,847.22,934.92,4855.36,12372.50,1046.50
346,847.54,939.36,7338.54,16038.50,1017.00
348,847.86,943.79,9517.31,19452.00,1030.00
350,848.18,948.21,10953.33,21894.50,1044.50
352,848.49,952.64,11322.70,22748.50,1052.00
354,848.81,957.06,11610.01,22743.00,1017.00
356,849.13,961.48,10625.13,21088.50,1093.00
358,849.45,965.89,7614.37,17072.00,1078.00
360,849.77,970.31,6049.99,14464.50,1047.50
362,850.09,974.71,5627.83,13295.00,1057.00
364,850.40,979.12,5349.34,12745.00,1076.00
366,850.72,983.52,4992.69,12318.50,1091.00
368,851.04,987.92,5233.82,12421.00,1024.00
370,851.36,992.32,5597.79,12521.50,1029.00
372,851.68,996.72,4707.81,11211.50,1051.00
374,852.00,1001.11,3135.52,8940.50,1028.50
376,852.32,1005.50,1949.38,6983.50,1015.00
378,852.63,1009.88,1189.16,5681.50,1079.00
380,852.95,1014.26,728.27,4788.50,1053.00
382,853.27,1018.64,438.38,4260.50,1061.00
384,853.59,1023.02,289.48,3927.50,1029.50
386,853.91,1027.39,178.09,3693.00,1021.00
388,854.23,1031.76,67.97,3529.50,1023.00
390,854.55,1036.13,2.20,3430.00,1037.00
392,854.87,1040.49,0.00,3344.50,1023.00
394,855.18,1044.86,0.00,3300.50,1055.00
396,855.50,1049.21,0.00,3304.50,1043.50
398,855.82,1053.57,0.00,3342.50,1058.50
400,856.14,1057.92,0.00,3371.00,1038.00
402,856.46,1062.27,0.00,3441.50,1037.00
404,856.78,1066.62,0.00,3512.50,1009.50
406,857.10,1070.96,5.93,3648.50,1014.50
408,857.42,1075.30,48.76,3807.00,1056.00
410,857.74,1079.64,64.19,3915.00,1045.00
412,858.06,1083.97,191.45,4190.00,1017.00
414,858.37,1088.30,395.16,4605.50,1020.00
416,858.69,1092.63,673.08,5176.50,1007.00
418,859.01,1096.95,1180.53,6143.00,1013.00
420,859.33,1101.27,1902.87,7528.00,1039.00
422,859.65,1105.59,3064.10,9668.00,1040.00
424,859.97,1109.91,4695.36,12625.00,1030.00
426,860.29,1114.22,7298.87,16941.50,1030.00
428,860.61,1118.53,10426.61,21540.00,1015.00
430,860.93,1122.84,13186.86,24688.50,1040.00
432,861.25,1127.14,12050.26,23055.00,1081.00
434,861.56,1131.44,6707.93,16547.00,1027.50
436,861.88,1135.74,3141.11,10997.00,1034.50
438,862.20,1140.03,1932.22,8478.00,1048.50
440,862.52,1144.32,1538.70,7573.00,1058.50
442,862.84,1148.61,1497.31,7492.00,1057.00
444,863.16,1152.89,1771.87,8019.50,1038.00
446,863.48,1157.17,2308.06,9086.00,1045.50
448,863.80,1161.45,3369.73,10964.00,1034.00
450,864.12,1165.73,5030.87,13449.00,1053.50
452,864.44,1170.00,6846.25,15661.50,1048.50
454,864.76,1174.27,6675.34,15501.00,1049.00
456,865.07,1178.53,4660.30,13098.00,1012.50
458,865.39,1182.80,3064.48,10859.50,1055.00
460,865.71,1187.06,2266.15,9447.50,1037.00
462,866.03,1191.31,1996.92,8978.50,1036.00
464,866.35,1195.57,2032.70,9059.00,1028.50
466,866.67,1199.82,2538.52,9662.50,1050.00
468,866.99,1204.06,2861.10,9923.50,1050.50
470,867.31,1208.31,2119.72,9142.50,1063.50
472,867.63,1212.55,1238.14,8076.50,1040.50
474,867.95,1216.79,936.54,7665.50,1013.00
476,868.27,1221.02,1297.99,8333.50,1040.00
478,868.58,1225.25,2225.41,9640.00,1008.50
480,868.90,1229.48,3334.56,11124.50,1055.00
482,869.22,1233.71,3608.26,11608.50,1065.00
484,869.54,1237.93,3152.62,11076.00,1079.00
486,869.86,1242.15,2191.04,9723.00,1033.50
488,870.18,1246.36,1135.69,8234.50,1011.00
490,870.50,1250.58,422.65,7184.50,1041.00
492,870.82,1254.79,99.06,6699.00,1088.50
494,871.14,1258.99,24.90,6513.00,1056.00
496,871.46,1263.20,84.08,6674.50,1052.50
498,871.78,1267.40,274.68,7012.00,1039.00
500,872.10,1271.59,700.77,7703.50,1028.50
502,872.41,1275.79,1356.88,8659.00,1028.50
504,872.73,1279.98,1916.00,9602.50,1043.00
506,873.05,1284.17,2362.04,10455.50,1052.00
508,873.37,1288.35,3050.15,11302.00,988.50
510,873.69,1292.53,3519.23,11790.00,1022.00
512,874.01,1296.71,2905.19,11120.50,1013.50
514,874.33,1300.88,2012.46,10046.00,1005.00
516,874.65,1305.06,1575.56,9419.50,1031.50
518,874.97,1309.22,1637.43,9420.50,1014.00
520,875.29,1313.39,1911.22,9878.00,1060.00
522,875.60,1317.55,2414.52,10782.00,1050.50
524,875.92,1321.71,3146.99,12212.50,1034.00
526,876.24,1325.87,4666.31,14737.00,1063.50
528,876.56,1330.02,7440.13,18221.00,1036.00
530,876.88,1334.17,9242.16,20339.00,1045.00
532,877.20,1338.32,8252.63,19498.50,1019.00
534,877.52,1342.46,6448.70,17417.00,1007.50
536,877.84,1346.60,5411.33,15909.50,1047.50
538,878.16,1350.73,5259.99,15352.50,1037.00
540,878.47,1354.87,5259.17,15206.00,1034.50
542,878.79,1359.00,5010.35,14950.50,1040.00
544,879.11,1363.13,5086.49,15002.50,1039.00
546,879.43,1367.25,5272.11,15035.00,1024.50
548,879.75,1371.37,4904.94,14566.50,1024.00
550,880.07,1375.49,4194.67,13830.50,1022.50
552,880.39,1379.60,3971.48,13527.50,1043.50
554,880.71,1383.71,4518.30,14040.50,1035.00
556,881.03,1387.82,4778.35,14402.00,1025.50
558,881.34,1391.93,4618.11,14534.50,999.00
560,881.66,1396.03,5105.83,15649.50,1017.00
562,881.98,1400.13,6632.72,17960.50,1054.00
564,882.30,1404.22,9338.98,21335.00,1047.50
566,882.62,1408.31,11257.83,23744.00,1037.00
568,882.94,1412.40,10898.89,23984.00,1046.50
570,883.26,1416.49,10399.75,23829.00,1026.50
572,883.57,1420.57,11130.41,24753.00,1064.00
574,883.89,1424.65,12241.83,25877.00,1027.50
576,884.21,1428.73,12650.01,26383.00,1056.00
578,884.53,1432.80,12094.03,26110.50,1070.00
580,884.85,1436.87,11667.80,26194.00,1032.50
582,885.17,1440.93,12947.85,28430.50,1012.00
584,885.49,1445.00,16826.02,33282.00,1023.50
586,885.80,1449.06,21406.43,38416.50,1023.00
588,886.12,1453.11,21249.78,39304.00,1069.50
590,886.44,1457.17,19422.88,38135.00,1044.00
592,886.76,1461.22,21169.26,39232.50,1047.50
594,887.08,1465.26,22028.43,38588.00,1066.50
596,887.40,1469.31,16711.22,32243.50,1014.00
598,887.71,1473.35,10480.72,24427.50,1024.50
600,888.03,1477.38,6930.60,18857.50,1034.00
602,888.35,1481.42,5092.11,15582.50,1067.50
604,888.67,1485.45,3874.12,13522.00,1051.50
606,888.99,1489.48,3093.46,12199.00,1020.00
608,889.31,1493.50,2547.09,11325.00,1059.00
610,889.62,1497.52,2051.18,10577.00,1039.00
612,889.94,1501.54,1677.47,9983.00,999.50
614,890.26,1505.56,1379.65,9544.00,1025.50
616,890.58,1509.57,1160.77,9227.00,1027.50
618,890.90,1513.57,948.16,8910.00,1013.00
620,891.21,1517.58,847.35,8759.00,1033.00
622,891.53,1521.58,701.67,8541.50,1038.00
624,891.85,1525.58,587.55,8385.00,1026.50
626,892.17,1529.57,462.35,8218.00,1041.50
628,892.49,1533.57,353.92,8060.50,1036.00
630,892.80,1537.56,194.66,7860.00,1028.50
632,893.12,1541.54,115.48,7697.50,1018.00
634,893.44,1545.52,93.14,7588.50,1046.50
636,893.76,1549.50,62.56,7424.00,1007.50
638,894.07,1553.48,0.94,7267.50,1046.50
640,894.39,1557.45,0.00,7079.50,1018.00
642,894.71,1561.42,15.21,7053.50,1032.50
644,895.03,1565.39,0.00,6877.50,1001.00
646,895.34,1569.35,0.00,6813.00,1051.00
648,895.66,1573.31,8.19,6726.50,1019.00
650,895.98,1577.26,0.68,6622.50,1015.00
652,896.30,1581.22,0.00,6515.50,1018.00
654,896.61,1585.17,0.00,6441.50,1029.50
656,896.93,1589.11,0.00,6395.50,1051.00
658,897.25,1593.06,0.00,6273.00,1006.50
660,897.57,1597.00,0.00,6185.50,1036.50
662,897.88,1600.93,0.00,6144.00,1037.50
664,898.20,1604.87,0.00,6041.50,1036.00
666,898.52,1608.80,0.00,6024.50,1020.00
668,898.84,1612.72,0.00,5995.50,995.00
670,899.15,1616.65,0.00,5994.50,1043.50
672,899.47,1620.57,11.55,5987.00,1006.50
674,899.79,1624.49,1.12,5957.00,1031.00
676,900.10,1628.40,66.67,5982.50,1005.50
678,900.42,1632.31,2.13,5930.00,1044.50
680,900.74,1636.22,29.71,5919.00,1000.00
682,901.05,1640.12,27.26,5942.50,1070.50
684,901.37,1644.02,70.35,5961.50,1034.00
686,901.69,1647.92,120.46,5997.50,1045.50
688,902.00,1651.82,224.32,6050.50,1022.00
690,902.32,1655.71,292.34,6092.50,1007.00
692,902.64,1659.60,361.98,6164.50,1010.50
694,902.95,1663.48,497.19,6330.00,1040.00
696,903.27,1667.36,672.54,6490.50,1011.00
698,903.59,1671.24,813.19,6691.50,1059.00
700,903.90,1675.11,976.41,6847.00,1046.50
702,904.22,1678.99,1151.04,6995.00,999.00
704,904.54,1682.85,1306.75,7294.00,1086.50
706,904.85,1686.72,1509.84,7549.00,1015.00
708,905.17,1690.58,2032.08,8370.50,1036.00
710,905.49,1694.44,2924.18,9778.50,1012.50
712,905.80,1698.29,4675.49,12465.50,1022.00
714,906.12,1702.15,8299.54,17097.50,1038.00
716,906.43,1706.00,13378.28,22566.50,1044.50
718,906.75,1709.84,16655.15,26129.00,1063.50
720,907.07,1713.68,16427.40,26229.00,1022.00
722,907.38,1717.52,14473.13,23909.50,1047.50
724,907.70,1721.36,11660.56,20260.00,1037.00
726,908.01,1725.19,7494.12,15415.00,1042.50
728,908.33,1729.02,4062.45,11095.00,1044.00
730,908.65,1732.85,2439.05,8604.00,1028.50
732,908.96,1736.67,1615.21,7185.00,1051.50
734,909.28,1740.49,1221.38,6445.00,1026.00
736,909.59,1744.30,920.72,5975.50,1040.00
738,909.91,1748.12,665.78,5581.00,1020.00
740,910.22,1751.93,493.66,5312.00,1038.00
742,910.54,1755.73,422.82,5199.50,1098.50
744,910.85,1759.54,338.89,5002.00,1044.00
746,911.17,1763.34,217.69,4779.00,1019.00
748,911.49,1767.13,188.01,4700.00,1035.00
750,911.80,1770.93,109.74,4529.00,998.00
752,912.12,1774.72,72.49,4477.00,1043.00
754,912.43,1778.50,13.77,4310.00,1003.00
756,912.75,1782.29,13.70,4261.50,1004.00
758,913.06,1786.07,32.47,4213.00,999.50
760,913.38,1789.84,0.00,4136.50,1030.00
762,913.69,1793.62,31.23,4148.50,1044.50
764,914.01,1797.39,0.00,4021.00,1024.50
766,914.32,1801.15,11.42,3977.00,1016.00
768,914.64,1804.92,15.84,3915.00,1013.00
770,914.95,1808.68,3.21,3878.00,1033.00
772,915.26,1812.44,0.00,3767.00,1041.00
774,915.58,1816.19,0.00,3717.50,996.00
776,915.89,1819.94,0.00,3712.50,1033.50
778,916.21,1823.69,0.00,3701.50,1035.00
780,916.52,1827.43,0.71,3715.50,1070.50
782,916.84,1831.17,7.30,3630.00,1007.50
784,917.15,1834.91,34.11,3626.00,1004.00
786,917.47,1838.64,58.12,3652.50,1035.00
788,917.78,1842.38,68.80,3624.50,1025.50
790,918.09,1846.10,91.18,3609.50,1016.00
792,918.41,1849.83,70.02,3569.50,1030.50
794,918.72,1853.55,86.20,3528.00,1001.00
796,919.04,1857.27,104.07,3541.00,1022.00
798,919.35,1860.98,69.79,3473.50,1016.50
800,919.66,1864.69,96.59,3481.00,1016.00
802,919.98,1868.40,122.52,3477.50,1026.50
804,920.29,1872.11,153.31,3475.50,1029.50
806,920.60,1875.81,185.45,3464.00,1006.50
808,920.92,1879.51,187.62,3450.00,1008.50
810,921.23,1883.20,189.17,3458.50,1046.50
812,921.55,1886.90,245.85,3430.00,995.00
814,921.86,1890.58,250.94,3459.50,1049.50
816,922.17,1894.27,214.97,3403.50,1055.00
818,922.49,1897.95,209.10,3344.50,1028.50
820,922.80,1901.63,244.26,3337.00,1020.00
822,923.11,1905.31,231.19,3300.00,1030.50
824,923.42,1908.98,209.40,3262.00,1036.00
826,923.74,1912.65,212.34,3235.50,1038.00
828,924.05,1916.31,241.04,3205.00,1014.50
830,924.36,1919.98,219.02,3143.50,1006.50
832,924.68,1923.64,230.59,3124.50,1001.00
834,924.99,1927.29,208.44,3079.50,1007.50
836,925.30,1930.94,192.70,3019.00,997.00
838,925.61,1934.59,200.11,3019.00,1017.00
840,925.93,1938.24,181.65,2974.50,1019.00
842,926.24,1941.88,167.68,2932.50,1026.50
844,926.55,1945.52,178.60,2891.00,1006.50
846,926.86,1949.16,140.59,2858.50,1038.00
848,927.18,1952.79,132.57,2805.50,1014.00
850,927.49,1956.42,183.99,2820.50,1011.00
852,927.80,1960.05,167.17,2872.00,1117.50
854,928.11,1963.67,166.55,2748.50,1013.50
856,928.42,1967.29,141.79,2722.50,1038.00
858,928.74,1970.91,144.66,2683.00,1027.50
860,929.05,1974.52,169.63,2657.50,1007.50
862,929.36,1978.13,132.90,2594.00,1006.50
864,929.67,1981.74,143.22,2591.00,1025.00
866,929.98,1985.35,109.54,2529.00,1026.00
868,930.29,1988.95,81.57,2482.50,1032.50
870,930.61,1992.54,57.32,2409.50,1013.00
872,930.92,1996.14,44.85,2379.50,1024.00
874,931.23,1999.73,43.63,2368.50,1033.00
876,931.54,2003.32,30.64,2323.50,1034.00
878,931.85,2006.90,58.38,2299.50,1016.00
880,932.16,2010.48,22.63,2248.50,1019.00
882,932.47,2014.06,31.54,2224.50,1010.00
884,932.78,2017.63,33.63,2203.50,1023.50
886,933.09,2021.21,41.02,2189.00,1017.00
888,933.41,2024.77,1.68,2135.50,1033.00
890,933.72,2028.34,11.20,2143.50,1056.00
892,934.03,2031.90,43.18,2106.00,1024.00
894,934.34,2035.46,3.50,2069.00,1039.00
896,934.65,2039.01,0.00,2004.00,1010.00
898,934.96,2042.57,0.00,1999.50,1031.50
900,935.27,2046.11,15.16,2027.00,1057.50
902,935.58,2049.66,0.00,1905.00,985.00
904,935.89,2053.20,0.00,1928.00,1029.00
906,936.20,2056.74,0.00,1920.00,1026.00
908,936.51,2060.28,0.00,1896.50,1025.50
910,936.82,2063.81,19.68,1928.00,1037.00
912,937.13,2067.34,24.06,1899.50,1026.50
914,937.44,2070.86,13.00,1880.00,1028.50
916,937.75,2074.39,31.40,1853.00,999.00
918,938.06,2077.91,28.00,1853.50,1020.00
920,938.37,2081.42,9.85,1844.50,1030.00
922,938.68,2084.94,0.00,1796.50,1015.00
924,938.99,2088.45,2.49,1791.50,1018.00
926,939.30,2091.95,0.00,1792.00,1041.50
928,939.60,2095.46,0.00,1748.00,1022.00
930,939.91,2098.96,19.87,1795.50,1038.00
932,940.22,2102.45,5.15,1758.00,1026.50
934,940.53,2105.95,11.14,1738.50,1003.50
936,940.84,2109.44,26.88,1747.00,1011.50
938,941.15,2112.92,37.80,1757.50,1026.00
940,941.46,2116.41,54.50,1753.50,1012.50
942,941.77,2119.89,38.51,1752.50,1036.00
944,942.07,2123.37,46.98,1734.50,1022.00
946,942.38,2126.84,37.69,1745.00,1045.50
948,942.69,2130.31,25.75,1720.50,1035.00
950,943.00,2133.78,3.50,1676.50,1027.50
952,943.31,2137.24,5.44,1675.00,1034.00
954,943.62,2140.70,0.00,1657.00,1035.00
956,943.92,2144.16,12.45,1661.50,1032.00
958,944.23,2147.62,2.72,1649.50,1036.00
960,944.54,2151.07,0.00,1648.50,1051.00
962,944.85,2154.52,0.00,1652.00,1063.00
964,945.16,2157.96,6.44,1638.50,1039.00
966,945.46,2161.40,0.00,1620.50,1042.00
968,945.77,2164.84,1.03,1579.00,993.00
970,946.08,2168.28,3.52,1618.00,1029.50
972,946.39,2171.71,0.00,1583.00,1014.50
974,946.69,2175.14,18.18,1613.50,1019.00
976,947.00,2178.57,2.09,1605.00,1021.00
978,947.31,2181.99,0.00,1595.00,1016.00
980,947.61,2185.41,11.22,1620.00,1018.00
982,947.92,2188.82,37.81,1655.50,1036.50
984,948.23,2192.24,51.39,1627.50,1001.00
986,948.53,2195.65,74.73,1669.50,1026.00
988,948.84,2199.05,79.99,1624.50,975.00
990,949.15,2202.46,48.44,1651.50,1023.00
992,949.45,2205.86,43.84,1647.50,1024.00
994,949.76,2209.25,98.89,1664.50,999.00
996,950.07,2212.65,63.69,1662.50,1019.00
998,950.37,2216.04,55.24,1641.50,1000.00
1000,950.68,2219.43,112.63,1695.00,1013.00
1002,950.98,2222.81,158.17,1731.00,1021.00
1004,951.29,2226.19,118.89,1700.00,1012.00
1006,951.60,2229.57,116.49,1694.00,1006.50
1008,951.90,2232.94,163.84,1707.00,988.50
1010,952.21,2236.32,136.38,1707.00,1011.00
1012,952.51,2239.68,128.22,1713.00,1023.00
1014,952.82,2243.05,114.09,1670.50,989.50
1016,953.12,2246.41,71.41,1704.50,1053.50
1018,953.43,2249.77,53.23,1714.00,1083.50
1020,953.73,2253.12,100.42,1691.00,1032.00
1022,954.04,2256.48,73.54,1631.00,992.00
1024,954.34,2259.83,48.80,1670.50,1045.50
1026,954.65,2263.17,26.96,1618.00,1014.00
1028,954.95,2266.51,22.88,1623.50,1020.00
1030,955.26,2269.85,8.00,1645.50,1053.00
1032,955.56,2273.19,15.54,1634.00,1037.00
1034,955.87,2276.52,42.74,1643.00,1031.00
1036,956.17,2279.85,23.16,1654.00,1054.00
1038,956.48,2283.18,75.50,1636.50,990.50
1040,956.78,2286.50,102.83,1661.00,1005.00
1042,957.08,2289.82,138.50,1668.00,986.00
1044,957.39,2293.14,132.13,1710.00,1032.00
1046,957.69,2296.45,134.05,1680.50,999.00
1048,957.99,2299.76,125.23,1732.00,1054.50
1050,958.30,2303.07,114.81,1703.50,1035.00
1052,958.60,2306.38,111.10,1683.50,1020.00
1054,958.91,2309.68,116.18,1694.00,1026.50
1056,959.21,2312.98,137.17,1686.00,998.00
1058,959.51,2316.27,150.97,1719.50,1018.00
1060,959.82,2319.56,192.34,1768.00,1041.00
1062,960.12,2322.85,295.83,1798.50,1010.50
1064,960.42,2326.14,318.10,1805.00,1006.00
1066,960.72,2329.42,306.82,1823.00,1026.50
1068,961.03,2332.70,265.57,1802.00,1029.50
1070,961.33,2335.97,234.45,1786.00,1031.50
1072,961.63,2339.25,212.44,1752.50,1018.00
1074,961.93,2342.52,228.67,1759.00,1023.00
1076,962.24,2345.78,221.92,1744.00,1020.50
1078,962.54,2349.05,208.01,1734.00,1015.00
1080,962.84,2352.31,162.64,1706.50,1021.00
1082,963.14,2355.56,147.24,1676.50,1005.50
1084,963.45,2358.82,121.38,1671.50,1019.00
1086,963.75,2362.07,114.15,1683.50,1035.00
1088,964.05,2365.32,92.67,1693.00,1060.50
1090,964.35,2368.56,119.44,1667.50,1022.00
1092,964.65,2371.80,151.28,1697.00,1036.00
1094,964.95,2375.04,162.79,1696.50,1022.50
1096,965.25,2378.27,175.05,1685.50,1003.50
1098,965.56,2381.51,182.82,1703.50,1027.50
1100,965.86,2384.73,205.65,1715.50,1027.50
1102,966.16,2387.96,124.08,1665.50,1020.00
1104,966.46,2391.18,91.08,1681.50,1057.00
1106,966.76,2394.40,153.38,1677.00,1016.50
1108,967.06,2397.62,171.81,1711.00,1043.50
1110,967.36,2400.83,175.13,1683.50,1008.50
1112,967.66,2404.04,213.16,1747.00,1056.00
1114,967.96,2407.25,254.56,1693.00,988.50
1116,968.26,2410.45,224.56,1710.00,1019.00
1118,968.56,2413.65,160.10,1658.00,1004.50
1120,968.86,2416.85,171.73,1713.50,1053.00
1122,969.16,2420.04,83.28,1621.00,1027.50
1124,969.46,2423.23,123.59,1614.50,999.00
1126,969.76,2426.42,39.92,1597.00,1027.50
1128,970.06,2429.60,9.49,1531.50,981.00
1130,970.36,2432.79,0.00,1543.50,1016.00
1132,970.66,2435.96,0.00,1537.00,1012.00
1134,970.96,2439.14,3.24,1559.00,1020.50
1136,971.26,2442.31,7.22,1592.50,1054.00
1138,971.56,2445.48,61.88,1588.50,1020.00
1140,971.86,2448.65,32.14,1558.00,1007.50
1142,972.16,2451.81,35.93,1589.50,1032.00
1144,972.45,2454.97,12.43,1563.00,1020.00
1146,972.75,2458.13,67.83,1594.50,1021.00
1148,973.05,2461.28,48.45,1578.00,1016.50
1150,973.35,2464.43,26.81,1587.50,1031.50
1152,973.65,2467.58,4.10,1554.50,1016.00
1154,973.95,2470.72,2.77,1565.00,1027.50
1156,974.24,2473.86,22.41,1568.50,1015.00
1158,974.54,2477.00,41.95,1565.50,1006.00
1160,974.84,2480.13,82.20,1608.50,1030.50
1162,975.14,2483.27,89.82,1601.00,1018.00
1164,975.43,2486.40,59.33,1574.50,1002.00
1166,975.73,2489.52,24.05,1584.00,1027.00
1168,976.03,2492.64,1.20,1554.50,1018.00
1170,976.33,2495.76,27.89,1581.50,1030.50
1172,976.62,2498.88,13.31,1556.00,1010.50
1174,976.92,2501.99,0.00,1565.50,1040.00
1176,977.22,2505.10,0.00,1562.00,1040.00
1178,977.51,2508.21,11.63,1576.00,1020.00
1180,977.81,2511.31,0.10,1577.00,1026.00
1182,978.11,2514.41,3.05,1579.00,1020.00
1184,978.40,2517.51,33.34,1615.00,1030.00
1186,978.70,2520.61,74.81,1638.00,1023.50
1188,979.00,2523.70,108.11,1680.00,1040.50
1190,979.29,2526.79,142.90,1686.50,1019.00
1192,979.59,2529.87,182.27,1718.50,1026.00
1194,979.88,2532.95,185.46,1702.50,1010.50
1196,980.18,2536.03,276.68,1787.00,1043.50
1198,980.48,2539.11,303.20,1828.00,1058.00
1200,980.77,2542.18,263.89,1784.00,1022.50
1202,981.07,2545.25,264.60,1812.50,1045.50
1204,981.36,2548.32,298.06,1812.00,1028.50
1206,981.66,2551.38,351.94,1856.00,1042.50
1208,981.95,2554.44,345.10,1845.50,1026.50
1210,982.25,2557.50,390.40,1913.50,1063.50
1212,982.54,2560.56,443.61,1935.00,1058.00
1214,982.84,2563.61,442.27,1940.50,1059.00
1216,983.13,2566.66,432.66,1935.00,1055.00
1218,983.43,2569.70,538.72,1974.00,1046.50
1220,983.72,2572.74,595.76,1998.50,1048.50
1222,984.01,2575.78,441.15,1917.00,1036.00
1224,984.31,2578.82,371.50,1874.00,1016.00
1226,984.60,2581.85,280.74,1856.50,1039.00
1228,984.90,2584.88,179.48,1782.00,1014.00
1230,985.19,2587.91,105.51,1760.00,1028.50
1232,985.48,2590.93,79.84,1771.00,1051.00
1234,985.78,2593.96,53.05,1749.50,1036.00
1236,986.07,2596.97,0.00,1718.50,1041.00
1238,986.36,2599.99,7.33,1763.50,1063.00
1240,986.66,2603.00,0.00,1744.00,1055.00
1242,986.95,2606.01,0.00,1741.50,1061.00
1244,987.24,2609.01,0.00,1753.50,1063.50
1246,987.54,2612.02,0.00,1687.50,996.00
1248,987.83,2615.02,0.00,1788.50,1051.00
1250,988.12,2618.01,0.00,1824.00,1053.00
1252,988.41,2621.01,0.02,1843.00,1046.50
1254,988.71,2624.00,3.79,1863.50,1027.00
1256,989.00,2626.99,56.10,1935.00,1042.00
1258,989.29,2629.97,184.22,2005.50,1042.00
1260,989.58,2632.95,282.61,2082.00,1051.50
1262,989.87,2635.93,361.18,2153.00,1061.00
1264,990.16,2638.91,501.18,2202.50,1024.50
1266,990.46,2641.88,604.14,2295.50,1052.00
1268,990.75,2644.85,657.52,2368.50,1080.00
1270,991.04,2647.81,662.79,2350.50,1039.50
1272,991.33,2650.78,688.56,2386.00,1050.00
1274,991.62,2653.74,641.86,2367.50,1037.00
1276,991.91,2656.70,474.78,2325.00,1040.00
1278,992.20,2659.65,337.09,2312.00,1046.00
1280,992.49,2662.60,119.76,2229.50,1036.00
1282,992.78,2665.55,73.18,2263.50,1069.50
1284,993.07,2668.50,32.02,2262.00,1072.50
1286,993.36,2671.44,46.71,2290.00,1065.50
1288,993.65,2674.38,71.48,2327.50,1070.50
1290,993.94,2677.31,184.93,2384.00,1055.00
1292,994.23,2680.25,445.75,2506.50,1061.00
1294,994.52,2683.18,690.06,2610.00,1058.50
1296,994.81,2686.10,940.96,2725.50,1050.00
1298,995.10,2689.03,1223.84,2856.50,1054.00
1300,995.39,2691.95,1364.09,2907.50,1039.50
1302,995.68,2694.87,1499.16,3021.00,1077.00
1304,995.97,2697.78,1622.30,3095.50,1070.00
1306,996.26,2700.70,1583.53,3070.50,1025.00
1308,996.55,2703.61,1692.18,3182.00,1049.50
1310,996.84,2706.51,1972.09,3381.50,1083.50
1312,997.13,2709.42,2612.50,3670.00,1058.50
1314,997.41,2712.32,3681.79,4133.50,1067.50
1316,997.70,2715.21,5250.14,4676.50,1053.00
1318,997.99,2718.11,7521.86,5358.00,1044.00
1320,998.28,2721.00,8955.30,5709.00,1033.00
1322,998.57,2723.89,8825.60,5713.00,1067.00
1324,998.86,2726.77,7162.32,5229.00,1033.00
1326,999.14,2729.66,5126.91,4622.00,1050.00
1328,999.43,2732.54,3583.62,4061.50,1042.00
1330,999.72,2735.41,2440.90,3594.50,1039.00
1332,1000.01,2738.29,1575.48,3288.50,1074.00
1334,1000.29,2741.16,895.07,3014.50,1053.00
1336,1000.58,2744.03,452.62,2824.50,1027.50
1338,1000.87,2746.89,255.06,2802.50,1067.00
1340,1001.15,2749.75,161.56,2758.00,1050.50
1342,1001.44,2752.61,376.31,2903.00,1050.50
1344,1001.73,2755.47,975.79,3141.50,1043.00
1346,1002.01,2758.32,2162.13,3477.50,1039.00
1348,1002.30,2761.17,3594.65,3841.00,1069.00
1350,1002.59,2764.02,4361.36,4024.00,1076.00
1352,1002.87,2766.86,3491.53,3795.50,1042.50
1354,1003.16,2769.70,2144.95,3467.00,1034.00
1356,1003.44,2772.54,907.54,3131.00,1030.50
1358,1003.73,2775.38,220.21,2960.00,1053.00
1360,1004.01,2778.21,6.63,2761.50,1025.00
1362,1004.30,2781.04,0.00,2671.50,1042.00
1364,1004.58,2783.87,0.00,2668.00,1041.00
1366,1004.87,2786.69,0.00,2661.00,1016.00
1368,1005.15,2789.51,0.00,2780.00,1061.00
1370,1005.44,2792.33,0.00,2927.00,1065.50
1372,1005.72,2795.14,0.00,3051.00,1062.00
1374,1006.01,2797.95,77.57,3198.00,1067.50
1376,1006.29,2800.76,433.14,3310.50,1046.50
1378,1006.58,2803.57,141.97,3407.00,1087.50
1380,1006.86,2806.37,0.00,3382.00,1039.00
1382,1007.14,2809.17,0.00,3441.00,1046.50
1384,1007.43,2811.97,0.00,3475.50,1036.00
1386,1007.71,2814.77,0.00,3574.50,1024.00
1388,1008.00,2817.56,0.00,3752.00,1034.00
1390,1008.28,2820.35,0.00,3981.50,1054.00
1392,1008.56,2823.13,19.71,4223.50,1039.00
1394,1008.85,2825.91,312.03,4531.00,1045.00
1396,1009.13,2828.69,1473.52,4937.50,1053.00
1398,1009.41,2831.47,3243.70,5337.00,1065.50
1400,1009.69,2834.24,4979.11,5715.50,1024.50
1402,1009.98,2837.02,6192.28,6092.00,1039.00
1404,1010.26,2839.78,6983.21,6396.00,1061.50
1406,1010.54,2842.55,8071.41,6712.50,1032.00
1408,1010.82,2845.31,9485.99,7151.00,1060.00
1410,1011.11,2848.07,11110.95,7617.00,1056.00
1412,1011.39,2850.83,13376.98,8297.50,1079.50
1414,1011.67,2853.58,16361.21,9167.00,1057.00
1416,1011.95,2856.33,20249.52,10457.00,1054.00
1418,1012.23,2859.08,24894.88,12179.50,1054.00
1420,1012.51,2861.83,33150.03,15072.50,1038.00
1422,1012.80,2864.57,48199.16,19632.00,1104.50
1424,1013.08,2867.31,75150.51,26090.50,1081.00
1426,1013.36,2870.04,111354.53,33256.50,1079.00
1428,1013.64,2872.78,138422.95,38229.00,1066.50
1430,1013.92,2875.51,137354.95,38625.00,1099.50
1432,1014.20,2878.24,119115.21,35886.50,1065.50
1434,1014.48,2880.96,103260.78,32890.50,1055.00
1436,1014.76,2883.68,95930.55,30867.00,1033.50
1438,1015.04,2886.40,95444.23,30114.50,1041.00
1440,1015.32,2889.12,96815.56,29904.50,1079.50
1442,1015.60,2891.83,99415.07,30152.50,1058.50
1444,1015.88,2894.54,102853.40,30732.00,1069.50
1446,1016.16,2897.25,107577.05,31614.00,1034.00
1448,1016.44,2899.96,111320.72,32398.50,1075.00
1450,1016.72,2902.66,115565.90,33339.50,1059.00
1452,1017.00,2905.36,120075.33,34403.00,1101.50
1454,1017.28,2908.06,126215.45,35672.00,1044.50
1456,1017.55,2910.75,133877.26,37222.00,1083.50
1458,1017.83,2913.44,142650.24,38732.50,1041.00
1460,1018.11,2916.13,151249.82,40068.00,1067.50
1462,1018.39,2918.81,156670.29,40584.00,1081.00
1464,1018.67,2921.49,156289.21,39985.50,1057.00
1466,1018.95,2924.17,147158.81,37936.00,1069.50
1468,1019.22,2926.85,131356.72,34670.50,1079.50
1470,1019.50,2929.52,116681.76,31490.50,1046.50
1472,1019.78,2932.20,104580.44,28569.50,1029.50
1474,1020.06,2934.86,96042.77,26235.00,1048.00
1476,1020.33,2937.53,89201.92,24269.00,1095.00
1478,1020.61,2940.19,82878.98,22558.00,1062.50
1480,1020.89,2942.85,75329.50,20906.00,1072.00
1482,1021.17,2945.51,68312.93,19446.00,1050.50
1484,1021.44,2948.16,64967.02,18730.50,1061.00
1486,1021.72,2950.81,65511.45,18639.50,1052.50
1488,1022.00,2953.46,70046.35,19218.00,1079.00
1490,1022.27,2956.11,76206.86,19947.50,1057.00
1492,1022.55,2958.75,81242.85,20539.00,1086.00
1494,1022.82,2961.39,82609.61,20513.00,1052.00
1496,1023.10,2964.03,80118.93,19997.50,1096.00
1498,1023.38,2966.66,73915.18,18757.00,1058.00
1500,1023.65,2969.29,66528.70,17321.00,1070.50
1502,1023.93,2971.92,58688.48,15718.50,1084.50
1504,1024.20,2974.55,51993.89,14246.50,1075.00
1506,1024.48,2977.17,45841.44,12873.00,1064.50
1508,1024.75,2979.79,40052.32,11604.50,1040.00
1510,1025.03,2982.41,34239.99,10405.50,1058.00
1512,1025.30,2985.02,29753.89,9449.00,1034.00
1514,1025.58,2987.63,25519.53,8600.00,1061.00
1516,1025.85,2990.24,22193.05,7875.00,1043.00
1518,1026.13,2992.85,20232.44,7461.00,1081.50
1520,1026.40,2995.45,18671.68,7059.00,1074.00
1522,1026.68,2998.05,18240.35,6836.00,1044.50
1524,1026.95,3000.65,17450.52,6607.00,1073.00
1526,1027.22,3003.25,16663.08,6363.00,1051.00
1528,1027.50,3005.84,14954.35,6016.50,1043.50
1530,1027.77,3008.43,12474.85,5584.00,1059.00
1532,1028.04,3011.02,10250.88,5198.00,1084.00
1534,1028.32,3013.60,8515.10,4835.50,1058.50
1536,1028.59,3016.18,6414.56,4448.00,1072.00
1538,1028.86,3018.76,4733.87,4069.00,1001.00
1540,1029.14,3021.34,2771.05,3782.00,1061.50
1542,1029.41,3023.91,1459.35,3522.00,1035.00
1544,1029.68,3026.48,613.69,3314.50,1027.50
1546,1029.95,3029.05,139.07,3157.50,1055.00
1548,1030.22,3031.61,11.00,2981.00,1032.00
1550,1030.50,3034.17,0.00,2826.50,1037.00
1552,1030.77,3036.73,0.00,2706.50,1038.50
1554,1031.04,3039.29,0.00,2625.00,1062.50
1556,1031.31,3041.84,0.00,2484.00,1019.00
1558,1031.58,3044.39,0.00,2482.00,1081.50
1560,1031.85,3046.94,0.00,2398.50,1071.00
1562,1032.13,3049.49,0.00,2290.50,1038.50
1564,1032.40,3052.03,0.00,2282.00,1083.50
1566,1032.67,3054.57,0.00,2206.50,1041.00
1568,1032.94,3057.11,88.51,2224.50,1083.50
1570,1033.21,3059.64,0.00,2108.00,1028.50
1572,1033.48,3062.18,0.00,2108.00,1069.50
1574,1033.75,3064.70,0.00,2063.00,1065.00
1576,1034.02,3067.23,0.00,2018.50,1070.00
1578,1034.29,3069.75,0.00,1945.00,1030.50
1580,1034.56,3072.28,0.00,1950.50,1069.50
1582,1034.83,3074.79,0.00,1893.00,1033.50
1584,1035.10,3077.31,162.57,1910.50,1061.00
1586,1035.37,3079.82,0.00,1830.50,1037.00
1588,1035.64,3082.33,139.04,1879.00,1083.50
1590,1035.91,3084.84,0.00,1816.00,1066.50
1592,1036.17,3087.34,69.73,1775.50,1038.50
1594,1036.44,3089.85,111.56,1811.50,1085.50
1596,1036.71,3092.35,3.71,1726.50,1036.00
1598,1036.98,3094.84,0.00,1698.50,1030.50
1600,1037.25,3097.34,0.00,1674.00,1024.50
1602,1037.52,3099.83,46.99,1689.00,1047.50
1604,1037.78,3102.32,34.41,1669.50,1046.50
1606,1038.05,3104.80,0.00,1671.00,1070.00
1608,1038.32,3107.29,74.38,1646.50,1046.00
1610,1038.59,3109.77,0.00,1615.00,1047.50
1612,1038.85,3112.24,21.83,1605.50,1038.00
1614,1039.12,3114.72,36.93,1626.50,1071.50
1616,1039.39,3117.19,170.39,1568.00,1009.50
1618,1039.66,3119.66,0.00,1582.50,1072.00
1620,1039.92,3122.13,11.52,1588.50,1066.00
1622,1040.19,3124.59,132.42,1575.00,1044.50
1624,1040.45,3127.05,76.25,1549.50,1037.00
1626,1040.72,3129.51,73.18,1553.50,1048.50
1628,1040.99,3131.97,18.81,1559.00,1068.00
1630,1041.25,3134.42,124.89,1585.50,1091.00
1632,1041.52,3136.87,0.00,1497.50,1034.00
1634,1041.78,3139.32,0.00,1522.00,1059.00
1636,1042.05,3141.77,0.00,1603.50,1141.00
1638,1042.32,3144.21,216.53,1519.50,1038.00
1640,1042.58,3146.65,231.06,1554.00,1078.00
1642,1042.85,3149.09,159.18,1532.50,1061.50
1644,1043.11,3151.52,68.40,1518.00,1062.00
1646,1043.38,3153.96,131.06,1530.50,1073.00
1648,1043.64,3156.39,253.33,1508.00,1046.50
1650,1043.90,3158.81,380.08,1515.50,1049.00
1652,1044.17,3161.24,387.02,1524.00,1059.50
1654,1044.43,3163.66,374.68,1507.00,1042.50
1656,1044.70,3166.08,138.14,1531.00,1096.50
1658,1044.96,3168.49,432.84,1519.50,1057.00
1660,1045.22,3170.91,419.88,1501.00,1050.50
1662,1045.49,3173.32,612.23,1518.00,1055.00
1664,1045.75,3175.73,606.72,1533.50,1072.50
1666,1046.01,3178.13,554.63,1493.00,1040.00
1668,1046.28,3180.54,711.37,1533.00,1072.00
1670,1046.54,3182.94,947.73,1547.00,1071.50
1672,1046.80,3185.34,763.63,1521.00,1065.50
1674,1047.07,3187.73,682.22,1489.50,1044.50
1676,1047.33,3190.12,901.02,1525.00,1064.50
1678,1047.59,3192.51,915.28,1520.00,1065.00
1680,1047.85,3194.90,939.38,1552.00,1099.50
1682,1048.11,3197.29,926.08,1533.50,1083.50
1684,1048.38,3199.67,852.99,1513.50,1073.00
1686,1048.64,3202.05,970.55,1537.00,1094.00
1688,1048.90,3204.43,1277.07,1519.00,1058.00
1690,1049.16,3206.80,1089.16,1498.50,1055.50
1692,1049.42,3209.17,1061.35,1524.00,1084.50
1694,1049.68,3211.54,1282.65,1506.50,1055.00
1696,1049.94,3213.91,1402.68,1506.50,1054.00
1698,1050.20,3216.27,1281.79,1499.50,1059.50
1700,1050.46,3218.63,1067.92,1521.00,1099.50
1702,1050.72,3220.99,1321.04,1512.00,1074.00
1704,1050.98,3223.35,1325.88,1507.00,1078.00
1706,1051.24,3225.70,1589.71,1499.50,1054.00
1708,1051.50,3228.05,1386.65,1474.50,1046.50
1710,1051.76,3230.40,1633.69,1522.00,1078.00
1712,1052.02,3232.75,1440.15,1488.00,1066.50
1714,1052.28,3235.09,1471.18,1509.50,1090.50
1716,1052.54,3237.43,1507.62,1474.50,1057.00
1718,1052.80,3239.77,1505.22,1471.50,1059.00
1720,1053.06,3242.11,1571.78,1469.00,1055.00
1722,1053.32,3244.44,1539.64,1440.50,1031.50
1724,1053.58,3246.77,1490.13,1505.00,1103.50
1726,1053.84,3249.10,1591.56,1468.50,1064.50
1728,1054.10,3251.42,1493.02,1453.00,1062.00
1730,1054.35,3253.75,1719.50,1453.50,1051.00
1732,1054.61,3256.07,1615.45,1477.50,1086.50
1734,1054.87,3258.39,1805.35,1463.00,1061.50
1736,1055.13,3260.70,1838.62,1454.50,1055.00
1738,1055.38,3263.01,1811.68,1451.50,1060.00
1740,1055.64,3265.32,2004.67,1458.50,1059.00
1742,1055.90,3267.63,1736.11,1415.00,1037.00
1744,1056.16,3269.94,1702.41,1471.00,1098.50
1746,1056.41,3272.24,1755.14,1466.00,1094.00
1748,1056.67,3274.54,1933.57,1444.00,1063.50
1750,1056.93,3276.84,1668.52,1438.00,1079.00
1752,1057.18,3279.13,1820.11,1416.50,1052.50
1754,1057.44,3281.42,1699.63,1398.50,1046.50
1756,1057.69,3283.71,1593.40,1398.50,1056.00
1758,1057.95,3286.00,1637.05,1441.50,1100.50
1760,1058.21,3288.28,2018.95,1416.50,1057.00
1762,1058.46,3290.57,1791.64,1418.50,1075.00
1764,1058.72,3292.85,1594.84,1407.00,1077.00
1766,1058.97,3295.12,1446.08,1364.50,1050.00
1768,1059.23,3297.40,2243.17,1397.00,1042.50
1770,1059.48,3299.67,1648.55,1398.00,1079.00
1772,1059.74,3301.94,1397.59,1350.50,1045.50
1774,1059.99,3304.21,1607.85,1401.50,1087.00
1776,1060.25,3306.47,1434.58,1400.50,1103.50
1778,1060.50,3308.73,1811.32,1360.00,1048.00
1780,1060.76,3310.99,1874.46,1371.00,1058.00
1782,1061.01,3313.25,1740.84,1368.50,1061.50
1784,1061.26,3315.50,1350.35,1342.50,1059.00
1786,1061.52,3317.76,1867.25,1379.00,1071.50
1788,1061.77,3320.01,1889.72,1379.50,1079.00
1790,1062.02,3322.25,2056.57,1349.50,1045.50
1792,1062.28,3324.50,1855.00,1346.50,1056.00
1794,1062.53,3326.74,1931.88,1330.00,1038.00
1796,1062.78,3328.98,1574.25,1338.50,1066.50
1798,1063.04,3331.22,1739.65,1334.00,1053.00
1800,1063.29,3333.45,1152.24,1309.50,1060.50
1802,1063.54,3335.68,1463.50,1320.00,1057.00
1804,1063.79,3337.91,1340.22,1336.00,1085.50
1806,1064.05,3340.14,1774.90,1365.50,1099.50
1808,1064.30,3342.36,1709.96,1295.50,1037.00
1810,1064.55,3344.59,1724.03,1334.00,1076.00
1812,1064.80,3346.81,1872.70,1313.00,1046.50
1814,1065.05,3349.02,1374.25,1292.50,1052.00
1816,1065.30,3351.24,1658.76,1333.50,1084.50
1818,1065.55,3353.45,1825.42,1300.00,1050.50
1820,1065.81,3355.66,1574.33,1346.50,1111.00
1822,1066.06,3357.87,1634.10,1293.50,1053.00
1824,1066.31,3360.07,1193.48,1266.00,1045.50
1826,1066.56,3362.27,1380.74,1307.00,1081.50
1828,1066.81,3364.47,1525.82,1268.50,1043.50
1830,1067.06,3366.67,2154.79,1296.00,1048.50
1832,1067.31,3368.87,1245.25,1271.50,1064.00
1834,1067.56,3371.06,1713.02,1243.00,1017.00
1836,1067.81,3373.25,1539.47,1245.00,1029.00
1838,1068.06,3375.44,1542.70,1245.00,1030.50
1840,1068.31,3377.62,1567.29,1252.50,1038.00
1842,1068.56,3379.81,1650.13,1239.00,1022.50
1844,1068.80,3381.99,1625.10,1311.50,1098.00
1846,1069.05,3384.16,1565.47,1271.00,1063.00
1848,1069.30,3386.34,1569.12,1259.00,1056.00
1850,1069.55,3388.51,1794.70,1249.50,1043.00
1852,1069.80,3390.68,1902.68,1268.50,1059.50
1854,1070.05,3392.85,1328.38,1299.00,1111.00
1856,1070.30,3395.02,1105.38,1241.00,1062.00
1858,1070.54,3397.18,1680.39,1236.50,1036.00
1860,1070.79,3399.34,1493.23,1250.50,1061.50
1862,1071.04,3401.50,1766.31,1240.00,1045.50
1864,1071.29,3403.66,1856.47,1213.50,1019.00
1866,1071.53,3405.81,1508.52,1240.00,1058.50
1868,1071.78,3407.96,1686.92,1232.50,1044.50
1870,1072.03,3410.11,1865.04,1249.50,1057.00
1872,1072.27,3412.26,1410.44,1229.50,1057.00
1874,1072.52,3414.40,1515.82,1219.50,1046.50
1876,1072.77,3416.54,1974.85,1229.50,1044.00
1878,1073.01,3418.68,2118.11,1260.00,1072.00
1880,1073.26,3420.82,1337.87,1180.50,1019.00
1882,1073.51,3422.96,1529.65,1227.50,1058.50
1884,1073.75,3425.09,889.54,1204.00,1058.00
1886,1074.00,3427.22,1300.76,1184.00,1025.50
1888,1074.24,3429.35,1030.39,1242.00,1097.00
1890,1074.49,3431.47,1429.28,1190.00,1035.50
1892,1074.73,3433.59,1218.19,1176.50,1029.50
1894,1074.98,3435.71,1043.10,1232.00,1090.50
1896,1075.22,3437.83,1137.42,1199.50,1056.00
1898,1075.47,3439.95,1161.74,1206.00,1064.50
1900,1075.71,3442.06,1501.97,1219.00,1070.00
1902,1075.96,3444.17,1477.60,1195.50,1049.00
1904,1076.20,3446.28,741.33,1122.50,999.00
1906,1076.44,3448.38,1450.11,1234.00,1090.00
1908,1076.69,3450.49,1420.04,1206.00,1065.00
1910,1076.93,3452.59,1084.38,1197.50,1068.00
1912,1077.17,3454.69,731.07,1171.00,1052.50
1914,1077.42,3456.79,903.45,1184.00,1060.50
1916,1077.66,3458.88,950.96,1167.00,1044.00
1918,1077.90,3460.97,1396.30,1160.50,1029.00
1920,1078.15,3463.06,1845.20,1211.50,1073.00
1922,1078.39,3465.15,1568.47,1184.00,1054.00
1924,1078.63,3467.23,1233.59,1141.00,1018.00
1926,1078.87,3469.32,1494.89,1195.50,1061.50
1928,1079.12,3471.40,601.17,1157.50,1050.50
1930,1079.36,3473.47,1203.78,1233.50,1110.50
1932,1079.60,3475.55,1168.08,1148.00,1031.00
1934,1079.84,3477.62,1673.38,1188.00,1061.50
1936,1080.08,3479.69,940.20,1156.50,1049.50
1938,1080.33,3481.76,1535.93,1143.50,1022.00
1940,1080.57,3483.83,1356.43,1172.50,1056.00
1942,1080.81,3485.89,561.49,1153.00,1058.00
1944,1081.05,3487.95,1325.21,1184.50,1072.50
1946,1081.29,3490.01,1045.01,1166.00,1062.50
1948,1081.53,3492.07,1842.56,1156.00,1034.00
1950,1081.77,3494.12,555.64,1135.00,1044.00
1952,1082.01,3496.18,1211.62,1177.50,1070.00
1954,1082.25,3498.23,605.35,1129.00,1038.00
1956,1082.49,3500.27,718.53,1146.00,1053.50
1958,1082.73,3502.32,622.48,1114.00,1025.50
1960,1082.97,3504.36,1171.91,1164.50,1064.50
1962,1083.21,3506.40,792.44,1132.00,1041.50
1964,1083.45,3508.44,948.61,1113.50,1020.00
1966,1083.69,3510.48,751.53,1185.00,1097.50
1968,1083.93,3512.51,876.94,1152.50,1064.00
1970,1084.16,3514.54,1220.23,1131.00,1037.00
1972,1084.40,3516.57,1093.34,1127.00,1037.00
1974,1084.64,3518.60,1515.99,1128.00,1030.50
1976,1084.88,3520.62,1020.95,1162.00,1074.50
1978,1085.12,3522.65,564.10,1167.00,1088.50
1980,1085.36,3524.67,802.97,1148.00,1062.50
1982,1085.59,3526.68,324.77,1107.50,1035.00
1984,1085.83,3528.70,1266.11,1156.50,1065.50
1986,1086.07,3530.71,942.08,1118.50,1039.00
1988,1086.31,3532.72,1420.65,1152.50,1066.50
1990,1086.54,3534.73,642.14,1107.00,1033.50
1992,1086.78,3536.74,753.57,1159.50,1081.50
1994,1087.02,3538.74,675.10,1137.50,1060.00
1996,1087.25,3540.74,402.34,1100.50,1031.50
1998,1087.49,3542.74,1680.95,1141.50,1049.00
2000,1087.73,3544.74,827.17,1119.50,1047.50
2002,1087.96,3546.74,974.47,1129.00,1056.00
2004,1088.20,3548.73,1278.74,1149.00,1072.00
2006,1088.43,3550.72,863.46,1125.00,1056.00
2008,1088.67,3552.71,1183.34,1118.50,1044.50
2010,1088.90,3554.69,389.21,1084.50,1023.00
2012,1089.14,3556.68,492.12,1127.50,1061.00
2014,1089.38,3558.66,0.00,1089.00,1038.00
2016,1089.61,3560.64,476.44,1096.00,1029.00
2018,1089.84,3562.62,265.78,1130.00,1072.50
2020,1090.08,3564.59,806.18,1100.50,1036.00
2022,1090.31,3566.56,1762.81,1099.50,1025.00
2024,1090.55,3568.53,1578.83,1109.00,1038.00
2026,1090.78,3570.50,1388.48,1081.50,1011.00
2028,1091.02,3572.47,452.26,1082.50,1026.00
2030,1091.25,3574.43,800.81,1085.50,1023.00
2032,1091.48,3576.39,762.45,1055.00,994.00
2034,1091.72,3578.35,335.05,1052.00,999.00
2036,1091.95,3580.31,127.57,1077.50,1028.50
2038,1092.18,3582.26,0.00,1040.00,994.00
2040,1092.42,3584.22,180.39,1041.00,992.00
2042,1092.65,3586.17,0.00,1042.50,1000.00
2044,1092.88,3588.12,538.00,1044.50,992.50
2046,1093.11,3590.06,337.52,1038.00,986.00
2047,1093.23,3591.03,128.93,1032.50,982.50