File: enlighten/plugins/Raman/MatchingLibrary/785X/mineral oil.csv
ENLIGHTEN Version,4.1.22
Measurement ID,20250220-201824-319544-WP-01977
Serial Number,WP-01977
Model,WP-785X-F13-R-ILC
Detector,S16011-1106
Label,mineral oil
Declared Match,
Declared Score,0
Scan Averaging,3
Boxcar,0
Technique,Raman
Baseline Correction Algo,AirPLS
ROI Pixel Start,47
ROI Pixel End,2047
ROI Start Line,0
ROI Stop Line,63
CCD C4,1.38617e-12
Slit Width,25
Cropped,True
Interpolated,False
Wavenumber Correction,-0.100481
Raman Intensity Corrected,True
Deconvolved,True
Region,
High Gain Mode,False
Laser Power mW,
Electrical Dark Correction,False
Battery %,
Device ID,<DeviceID USB:0x24aa:0x1000:0:1>
FW Version,10.0.0.10
FPGA Version,035-001
BLE Version,
Prefix,enlighten
Suffix,
Preset,
Auto-Raman,True
Session Count,0
Plugin Name,
Integration Time,438
Timestamp,2025-02-20 20:18:24.3195
Note,
Temperature,0
CCD C0,793.274
CCD C1,0.153259
CCD C2,1.40788e-05
CCD C3,-1.132e-08
CCD Offset,0
CCD Gain,1.9
CCD Offset Odd,0
CCD Gain Odd,1.9
Laser Wavelength,785.032
Laser Enable,False
Laser Power %,0
Laser Temperature,0
Pixel Count,2048

Pixel,Wavelength,Wavenumber,Processed,Raw,Dark
0,793.27,132.25,NA,983.67,938.00
2,793.58,137.12,NA,1002.67,961.33
4,793.89,141.99,NA,998.67,945.67
6,794.19,146.86,NA,1002.00,950.67
8,794.50,151.72,NA,1011.33,961.00
10,794.81,156.58,NA,1003.67,969.67
12,795.12,161.44,NA,1002.33,950.67
14,795.42,166.30,NA,999.33,947.33
16,795.73,171.16,NA,999.33,948.00
18,796.04,176.01,NA,1013.67,964.00
20,796.35,180.86,NA,1017.00,966.33
22,796.65,185.71,NA,1045.00,985.00
24,796.96,190.56,NA,1029.33,968.00
26,797.27,195.41,NA,1050.00,982.33
28,797.58,200.25,NA,1048.00,971.67
30,797.88,205.09,NA,1034.00,954.33
32,798.19,209.93,NA,1033.00,960.00
34,798.50,214.77,NA,1046.67,961.33
36,798.81,219.60,NA,1061.33,954.33
38,799.12,224.43,NA,1143.33,962.33
40,799.43,229.27,NA,1557.67,981.00
42,799.74,234.09,NA,3220.00,973.33
44,800.04,238.92,NA,5658.00,999.33
46,800.35,243.75,NA,6592.00,974.00
48,800.66,248.57,619.15,6671.00,988.00
50,800.97,253.39,472.95,6571.00,993.00
52,801.28,258.21,356.10,6449.33,991.00
54,801.59,263.02,297.21,6321.33,986.67
56,801.90,267.83,206.12,6156.00,981.67
58,802.21,272.65,221.29,6115.67,982.00
60,802.52,277.46,142.76,5986.00,983.00
62,802.83,282.26,128.80,5934.00,999.33
64,803.14,287.07,99.33,5856.00,997.33
66,803.45,291.87,80.13,5768.00,988.67
68,803.76,296.67,55.88,5687.33,990.33
70,804.07,301.47,12.76,5580.00,976.00
72,804.38,306.26,3.20,5517.00,978.00
74,804.69,311.06,0.00,5464.00,983.67
76,805.00,315.85,18.32,5433.67,975.33
78,805.31,320.64,35.15,5418.67,985.33
80,805.62,325.42,29.35,5355.67,991.00
82,805.93,330.21,12.78,5300.00,986.67
84,806.24,334.99,0.00,5164.67,966.00
86,806.55,339.77,0.00,5128.33,981.00
88,806.86,344.55,0.00,5091.67,994.33
90,807.17,349.32,0.00,5052.00,972.00
92,807.48,354.10,0.00,5033.67,978.00
94,807.80,358.87,8.69,5060.67,997.67
96,808.11,363.63,42.54,5053.00,986.00
98,808.42,368.40,58.95,5041.67,972.67
100,808.73,373.16,111.42,5089.00,971.00
102,809.04,377.93,165.56,5118.33,968.33
104,809.35,382.68,222.63,5174.67,970.33
106,809.66,387.44,289.32,5246.67,983.33
108,809.98,392.19,351.85,5292.33,957.00
110,810.29,396.95,432.01,5414.33,979.00
112,810.60,401.70,571.90,5548.67,974.00
114,810.91,406.44,689.08,5674.00,976.67
116,811.22,411.19,768.92,5778.67,985.67
118,811.54,415.93,785.95,5778.33,982.33
120,811.85,420.67,840.13,5807.00,962.33
122,812.16,425.41,857.50,5806.00,962.00
124,812.47,430.14,896.62,5847.33,986.00
126,812.79,434.87,902.22,5823.33,962.00
128,813.10,439.60,965.98,5876.67,961.00
130,813.41,444.33,1108.21,6013.00,973.67
132,813.72,449.06,1085.77,5958.67,966.67
134,814.04,453.78,999.36,5838.67,974.33
136,814.35,458.50,989.11,5759.00,963.00
138,814.66,463.22,942.68,5653.00,957.00
140,814.98,467.93,888.85,5555.00,962.00
142,815.29,472.65,853.75,5469.67,967.33
144,815.60,477.36,840.31,5417.67,979.67
146,815.92,482.06,825.71,5335.00,952.33
148,816.23,486.77,823.16,5316.33,979.00
150,816.54,491.47,827.97,5305.00,1000.33
152,816.86,496.17,832.14,5221.00,958.67
154,817.17,500.87,799.17,5132.00,972.33
156,817.48,505.57,699.82,4953.00,965.67
158,817.80,510.26,598.39,4779.00,962.33
160,818.11,514.95,554.09,4679.33,975.00
162,818.42,519.64,519.58,4567.67,978.67
164,818.74,524.32,498.99,4467.67,971.33
166,819.05,529.00,391.21,4299.00,981.67
168,819.37,533.68,322.15,4146.33,971.67
170,819.68,538.36,300.97,4070.33,983.00
172,819.99,543.04,271.97,3983.00,984.00
174,820.31,547.71,244.13,3885.33,976.33
176,820.62,552.38,248.62,3810.33,957.00
178,820.94,557.05,194.75,3702.67,963.33
180,821.25,561.71,152.20,3581.33,949.33
182,821.57,566.37,112.33,3479.00,957.00
184,821.88,571.03,82.80,3395.67,973.33
186,822.20,575.69,48.72,3285.00,964.00
188,822.51,580.34,3.95,3199.00,966.00
190,822.83,584.99,0.00,3106.33,968.67
192,823.14,589.64,0.00,3063.00,966.67
194,823.46,594.29,0.00,3001.00,964.00
196,823.77,598.93,0.00,3000.00,970.00
198,824.09,603.57,0.00,2918.67,947.00
200,824.40,608.21,0.00,2932.67,961.00
202,824.72,612.85,0.23,2931.33,981.00
204,825.03,617.48,18.89,2922.00,968.67
206,825.35,622.11,22.38,2912.33,983.00
208,825.66,626.74,23.11,2880.67,977.67
210,825.98,631.36,20.43,2843.67,968.67
212,826.29,635.99,3.33,2794.00,970.67
214,826.61,640.61,1.04,2766.00,977.00
216,826.92,645.22,0.00,2706.00,968.67
218,827.24,649.84,0.00,2657.33,948.67
220,827.56,654.45,0.00,2662.00,978.33
222,827.87,659.06,0.00,2637.67,968.33
224,828.19,663.67,0.00,2609.00,973.33
226,828.50,668.27,0.00,2601.00,1011.33
228,828.82,672.87,0.00,2603.00,987.33
230,829.13,677.47,0.00,2619.33,962.67
232,829.45,682.06,0.00,2673.00,969.67
234,829.77,686.66,0.00,2828.00,1052.33
236,830.08,691.25,0.00,2836.67,959.00
238,830.40,695.83,8.77,2989.00,968.00
240,830.72,700.42,106.26,3209.67,962.67
242,831.03,705.00,217.89,3421.67,936.33
244,831.35,709.58,318.91,3717.67,961.00
246,831.66,714.15,502.13,4089.33,940.00
248,831.98,718.73,781.97,4607.00,973.00
250,832.30,723.30,1022.93,5039.33,967.33
252,832.61,727.87,1173.12,5391.00,983.67
254,832.93,732.43,1254.65,5572.67,932.33
256,833.25,736.99,1330.91,5851.33,981.00
258,833.56,741.55,1401.71,6079.67,971.00
260,833.88,746.11,1631.83,6516.67,955.00
262,834.20,750.66,1995.38,7132.67,975.33
264,834.51,755.22,2297.99,7662.67,968.67
266,834.83,759.76,2356.61,7942.33,971.00
268,835.15,764.31,2521.36,8316.33,976.67
270,835.47,768.85,2771.23,8700.67,952.67
272,835.78,773.39,2961.52,9015.67,962.00
274,836.10,777.93,2756.51,8842.00,958.67
276,836.42,782.46,2493.22,8577.67,963.33
278,836.73,787.00,2411.92,8504.00,956.33
280,837.05,791.52,2421.23,8571.67,953.00
282,837.37,796.05,2529.80,8818.00,973.33
284,837.69,800.57,2620.22,9045.67,955.67
286,838.00,805.09,2815.87,9441.67,952.67
288,838.32,809.61,3000.47,9820.33,966.67
290,838.64,814.13,3187.37,10210.67,972.67
292,838.95,818.64,3336.78,10523.67,958.67
294,839.27,823.15,3460.94,10790.67,957.00
296,839.59,827.65,3524.16,11005.33,966.00
298,839.91,832.15,3562.14,11161.33,955.00
300,840.22,836.65,3620.97,11363.33,994.33
302,840.54,841.15,3695.02,11473.33,954.67
304,840.86,845.65,3708.46,11531.33,980.33
306,841.18,850.14,3494.96,11286.33,976.67
308,841.50,854.63,3130.97,10898.33,1008.33
310,841.81,859.11,2910.98,10587.67,970.67
312,842.13,863.60,2903.21,10553.67,969.33
314,842.45,868.07,2892.36,10520.00,953.33
316,842.77,872.55,2788.42,10428.33,973.00
318,843.08,877.03,2521.21,10149.00,985.67
320,843.40,881.50,2233.66,9813.00,945.00
322,843.72,885.97,2310.67,9977.00,976.33
324,844.04,890.43,2544.27,10208.00,952.33
326,844.36,894.89,2503.93,10156.00,958.67
328,844.67,899.35,1965.27,9519.67,971.67
330,844.99,903.81,1511.72,8883.67,949.67
332,845.31,908.26,1228.59,8457.67,965.33
334,845.63,912.71,1078.42,8215.33,970.67
336,845.95,917.16,934.56,8018.33,972.67
338,846.27,921.61,719.18,8000.00,1189.33
340,846.58,926.05,618.23,7678.67,958.67
342,846.90,930.49,651.18,7750.67,962.67
344,847.22,934.92,668.61,7814.00,966.67
346,847.54,939.36,612.45,7799.00,943.67
348,847.86,943.79,478.05,7725.33,951.33
350,848.18,948.21,557.67,7913.33,962.67
352,848.49,952.64,738.49,8158.33,959.33
354,848.81,957.06,695.13,8154.67,938.67
356,849.13,961.48,483.74,8029.67,988.00
358,849.45,965.89,483.11,8067.67,981.00
360,849.77,970.31,485.50,8073.67,958.33
362,850.09,974.71,475.84,8099.67,961.33
364,850.40,979.12,397.88,8069.00,980.33
366,850.72,983.52,203.03,7866.00,988.33
368,851.04,987.92,113.96,7761.00,952.67
370,851.36,992.32,75.64,7728.67,953.33
372,851.68,996.72,155.10,7869.33,963.33
374,852.00,1001.11,244.55,8012.00,950.67
376,852.32,1005.50,409.60,8304.00,953.33
378,852.63,1009.88,601.40,8674.00,988.00
380,852.95,1014.26,834.63,9066.33,972.00
382,853.27,1018.64,1114.58,9560.00,976.33
384,853.59,1023.02,1426.55,10117.33,959.33
386,853.91,1027.39,1877.78,10832.67,950.33
388,854.23,1031.76,2356.65,11534.00,955.00
390,854.55,1036.13,2606.42,11981.00,954.33
392,854.87,1040.49,2622.25,12139.33,953.67
394,855.18,1044.86,2739.04,12396.33,971.67
396,855.50,1049.21,2908.35,12755.00,970.33
398,855.82,1053.57,3370.51,13558.33,971.00
400,856.14,1057.92,4038.21,14512.33,970.00
402,856.46,1062.27,4751.37,15441.67,962.33
404,856.78,1066.62,4711.73,15516.33,947.00
406,857.10,1070.96,4265.31,15061.67,949.00
408,857.42,1075.30,4202.28,14866.33,982.33
410,857.74,1079.64,4235.07,14665.00,957.33
412,858.06,1083.97,3650.59,13773.00,951.00
414,858.37,1088.30,2898.21,12602.00,947.00
416,858.69,1092.63,2153.63,11413.00,947.00
418,859.01,1096.95,1483.45,10322.33,949.67
420,859.33,1101.27,1030.08,9541.00,957.00
422,859.65,1105.59,669.89,8928.00,958.33
424,859.97,1109.91,502.68,8617.67,943.33
426,860.29,1114.22,388.19,8438.00,958.67
428,860.61,1118.53,390.58,8439.67,953.67
430,860.93,1122.84,421.39,8516.00,954.00
432,861.25,1127.14,595.60,8839.33,976.33
434,861.56,1131.44,880.70,9285.67,946.33
436,861.88,1135.74,1304.84,9960.00,953.33
438,862.20,1140.03,1759.74,10663.00,965.00
440,862.52,1144.32,2023.53,11118.00,961.33
442,862.84,1148.61,2247.11,11486.00,971.00
444,863.16,1152.89,2308.20,11573.67,956.67
446,863.48,1157.17,2221.31,11436.33,956.67
448,863.80,1161.45,2041.01,11142.33,963.00
450,864.12,1165.73,1699.91,10609.33,966.67
452,864.44,1170.00,1304.60,9968.00,952.67
454,864.76,1174.27,981.37,9452.00,960.00
456,865.07,1178.53,634.58,8874.67,940.33
458,865.39,1182.80,355.00,8420.00,968.67
460,865.71,1187.06,191.19,8149.67,956.00
462,866.03,1191.31,20.34,7902.00,958.67
464,866.35,1195.57,0.00,7781.67,958.67
466,866.67,1199.82,0.00,7775.00,969.00
468,866.99,1204.06,1.73,7817.33,965.67
470,867.31,1208.31,0.00,7812.33,971.33
472,867.63,1212.55,0.00,7817.67,959.67
474,867.95,1216.79,0.00,7781.67,945.00
476,868.27,1221.02,0.04,7855.33,957.67
478,868.58,1225.25,29.18,7988.33,946.33
480,868.90,1229.48,155.00,8119.00,962.67
482,869.22,1233.71,327.58,8360.00,967.67
484,869.54,1237.93,486.41,8597.67,979.67
486,869.86,1242.15,678.08,8840.67,962.00
488,870.18,1246.36,915.21,9154.67,944.33
490,870.50,1250.58,1156.98,9524.67,955.67
492,870.82,1254.79,1393.02,9907.00,989.00
494,871.14,1258.99,1693.20,10316.33,966.00
496,871.46,1263.20,2031.07,10801.67,969.33
498,871.78,1267.40,2329.94,11236.00,956.00
500,872.10,1271.59,2668.49,11725.00,950.67
502,872.41,1275.79,2952.28,12174.67,953.00
504,872.73,1279.98,3357.55,12853.67,963.33
506,873.05,1284.17,3889.01,13789.67,971.00
508,873.37,1288.35,4743.04,15235.00,932.33
510,873.69,1292.53,6276.24,17615.33,954.33
512,874.01,1296.71,8505.48,20580.33,954.67
514,874.33,1300.88,10181.13,22582.67,936.33
516,874.65,1305.06,9866.11,22321.33,955.67
518,874.97,1309.22,8306.79,20350.33,950.00
520,875.29,1313.39,6890.86,18232.33,968.33
522,875.60,1317.55,5777.07,16366.67,964.00
524,875.92,1321.71,5054.82,15077.67,957.33
526,876.24,1325.87,4527.00,14183.33,971.33
528,876.56,1330.02,4265.89,13705.00,950.67
530,876.88,1334.17,4252.05,13579.00,971.67
532,877.20,1338.32,4416.38,13669.00,944.33
534,877.52,1342.46,4552.65,13803.67,944.67
536,877.84,1346.60,4646.07,13907.33,958.00
538,878.16,1350.73,4638.64,13853.33,950.00
540,878.47,1354.87,4627.92,13758.67,950.00
542,878.79,1359.00,4586.48,13561.33,955.67
544,879.11,1363.13,4290.73,12959.67,962.00
546,879.43,1367.25,3720.20,12061.67,954.33
548,879.75,1371.37,2772.69,10680.67,946.33
550,880.07,1375.49,2095.93,9493.00,946.33
552,880.39,1379.60,1443.30,8376.67,960.00
554,880.71,1383.71,677.91,7264.00,954.33
556,881.03,1387.82,103.99,6474.33,949.00
558,881.34,1391.93,0.09,5980.33,936.00
560,881.66,1396.03,0.00,5855.67,946.67
562,881.98,1400.13,0.00,5853.67,965.33
564,882.30,1404.22,0.28,5922.00,964.00
566,882.62,1408.31,85.22,6124.00,947.00
568,882.94,1412.40,354.66,6437.67,965.33
570,883.26,1416.49,680.04,7015.67,950.33
572,883.57,1420.57,1306.06,8287.33,964.67
574,883.89,1424.65,2582.39,10897.33,941.00
576,884.21,1428.73,6006.51,16765.33,966.00
578,884.53,1432.80,13133.02,26370.00,975.33
580,884.85,1436.87,20842.36,35867.33,952.33
582,885.17,1440.93,23956.61,40691.33,943.00
584,885.49,1445.00,23631.24,41411.33,952.00
586,885.80,1449.06,22156.57,39941.00,951.33
588,886.12,1453.11,21290.01,38325.33,974.00
590,886.44,1457.17,20849.14,36626.67,960.33
592,886.76,1461.22,18371.92,32703.33,957.00
594,887.08,1465.26,13934.31,26678.67,977.00
596,887.40,1469.31,9492.42,20390.33,938.67
598,887.71,1473.35,6008.76,15194.00,946.33
600,888.03,1477.38,3800.44,11640.33,961.33
602,888.35,1481.42,2569.64,9480.33,962.00
604,888.67,1485.45,1784.68,8110.67,960.67
606,888.99,1489.48,1265.39,7226.33,945.67
608,889.31,1493.50,889.45,6602.67,964.00
610,889.62,1497.52,671.20,6192.33,958.33
612,889.94,1501.54,442.87,5805.33,938.00
614,890.26,1505.56,289.63,5533.00,947.67
616,890.58,1509.57,200.31,5364.00,946.67
618,890.90,1513.57,83.78,5167.33,947.00
620,891.21,1517.58,50.45,5055.67,954.33
622,891.53,1521.58,26.59,4960.67,957.67
624,891.85,1525.58,0.00,4816.33,948.67
626,892.17,1529.57,1.09,4752.67,958.67
628,892.49,1533.57,0.00,4674.67,965.33
630,892.80,1537.56,0.00,4578.67,946.33
632,893.12,1541.54,0.00,4496.67,944.67
634,893.44,1545.52,0.00,4431.67,962.67
636,893.76,1549.50,0.00,4318.00,941.00
638,894.07,1553.48,0.00,4263.67,960.33
640,894.39,1557.45,0.00,4196.33,940.67
642,894.71,1561.42,0.00,4165.33,959.33
644,895.03,1565.39,0.00,4068.67,938.33
646,895.34,1569.35,1.61,4097.67,965.33
648,895.66,1573.31,0.00,4005.33,943.00
650,895.98,1577.26,0.00,3974.33,943.67
652,896.30,1581.22,0.00,3932.67,939.67
654,896.61,1585.17,0.00,3898.67,952.00
656,896.93,1589.11,0.00,3887.67,964.67
658,897.25,1593.06,0.00,3807.67,939.67
660,897.57,1597.00,9.06,3829.67,955.67
662,897.88,1600.93,0.00,3781.33,962.00
664,898.20,1604.87,0.01,3759.00,952.67
666,898.52,1608.80,13.86,3751.33,940.67
668,898.84,1612.72,41.40,3745.00,939.33
670,899.15,1616.65,36.60,3741.00,965.33
672,899.47,1620.57,55.30,3714.67,939.67
674,899.79,1624.49,40.85,3684.33,947.67
676,900.10,1628.40,38.27,3651.00,942.33
678,900.42,1632.31,72.20,3688.00,962.00
680,900.74,1636.22,65.77,3625.00,934.33
682,901.05,1640.12,93.08,3678.67,974.00
684,901.37,1644.02,85.98,3626.33,954.00
686,901.69,1647.92,136.50,3670.00,960.00
688,902.00,1651.82,126.19,3627.33,950.33
690,902.32,1655.71,152.06,3627.00,942.33
692,902.64,1659.60,192.63,3637.00,935.00
694,902.95,1663.48,193.28,3638.67,960.00
696,903.27,1667.36,192.84,3613.33,952.33
698,903.59,1671.24,163.51,3586.00,977.33
700,903.90,1675.11,171.31,3542.00,954.33
702,904.22,1678.99,215.09,3535.00,934.33
704,904.54,1682.85,184.16,3528.33,985.33
706,904.85,1686.72,158.35,3440.67,943.67
708,905.17,1690.58,181.11,3446.67,948.33
710,905.49,1694.44,215.66,3447.00,939.33
712,905.80,1698.29,201.38,3404.67,942.00
714,906.12,1702.15,173.15,3355.67,950.67
716,906.43,1706.00,166.48,3328.33,955.00
718,906.75,1709.84,150.20,3291.00,963.33
720,907.07,1713.68,141.19,3225.00,943.67
722,907.38,1717.52,119.49,3180.67,952.00
724,907.70,1721.36,77.76,3112.33,954.33
726,908.01,1725.19,39.21,3039.00,954.33
728,908.33,1729.02,33.34,3013.00,962.67
730,908.65,1732.85,29.91,2971.33,953.33
732,908.96,1736.67,46.01,2976.00,964.00
734,909.28,1740.49,29.00,2914.33,945.67
736,909.59,1744.30,32.36,2911.67,962.00
738,909.91,1748.12,34.15,2872.33,949.00
740,910.22,1751.93,50.81,2873.67,953.00
742,910.54,1755.73,19.87,2862.33,995.67
744,910.85,1759.54,13.23,2792.67,965.33
746,911.17,1763.34,3.01,2736.33,938.67
748,911.49,1767.13,0.00,2710.67,956.67
750,911.80,1770.93,4.94,2694.67,938.67
752,912.12,1774.72,8.96,2696.00,959.33
754,912.43,1778.50,3.37,2653.33,938.00
756,912.75,1782.29,13.89,2650.33,936.00
758,913.06,1786.07,9.25,2630.33,939.33
760,913.38,1789.84,28.12,2634.67,944.33
762,913.69,1793.62,7.93,2620.00,965.33
764,914.01,1797.39,3.16,2585.00,950.67
766,914.32,1801.15,2.54,2558.00,941.00
768,914.64,1804.92,1.51,2540.33,942.33
770,914.95,1808.68,0.00,2525.00,955.00
772,915.26,1812.44,2.53,2527.33,957.00
774,915.58,1816.19,17.47,2503.00,934.67
776,915.89,1819.94,1.28,2495.67,958.67
778,916.21,1823.69,3.99,2481.00,954.33
780,916.52,1827.43,17.92,2497.67,969.67
782,916.84,1831.17,27.90,2460.33,938.00
784,917.15,1834.91,30.34,2460.67,945.00
786,917.47,1838.64,37.75,2462.00,955.00
788,917.78,1842.38,40.79,2442.67,950.67
790,918.09,1846.10,39.34,2418.67,942.33
792,918.41,1849.83,22.98,2403.00,953.33
794,918.72,1853.55,23.32,2375.00,939.67
796,919.04,1857.27,56.44,2396.33,943.67
798,919.35,1860.98,36.61,2363.67,948.00
800,919.66,1864.69,54.95,2370.00,945.67
802,919.98,1868.40,60.45,2369.67,950.33
804,920.29,1872.11,56.10,2352.00,951.33
806,920.60,1875.81,71.60,2340.33,940.33
808,920.92,1879.51,91.19,2346.67,940.33
810,921.23,1883.20,93.51,2350.00,952.67
812,921.55,1886.90,100.96,2330.33,937.33
814,921.86,1890.58,82.48,2321.33,964.00
816,922.17,1894.27,102.61,2316.33,953.33
818,922.49,1897.95,84.28,2286.00,951.00
820,922.80,1901.63,95.87,2279.33,948.00
822,923.11,1905.31,93.02,2256.67,950.67
824,923.42,1908.98,81.08,2247.00,961.33
826,923.74,1912.65,69.99,2214.67,954.00
828,924.05,1916.31,88.98,2215.67,950.33
830,924.36,1919.98,80.93,2182.33,941.33
832,924.68,1923.64,80.38,2169.33,942.33
834,924.99,1927.29,91.98,2162.33,938.00
836,925.30,1930.94,84.17,2137.67,935.33
838,925.61,1934.59,86.16,2142.33,951.33
840,925.93,1938.24,65.27,2103.67,948.00
842,926.24,1941.88,71.90,2102.00,951.33
844,926.55,1945.52,74.98,2073.33,939.33
846,926.86,1949.16,71.77,2074.00,953.33
848,927.18,1952.79,48.70,2033.67,944.33
850,927.49,1956.42,80.87,2040.00,937.67
852,927.80,1960.05,71.13,2033.67,960.00
854,928.11,1963.67,56.09,2003.67,950.00
856,928.42,1967.29,39.82,1986.33,963.67
858,928.74,1970.91,62.14,1980.33,953.33
860,929.05,1974.52,67.58,1960.67,945.67
862,929.36,1978.13,50.37,1939.00,945.67
864,929.67,1981.74,12.70,1892.33,953.00
866,929.98,1985.35,32.63,1894.67,949.00
868,930.29,1988.95,61.09,1898.33,946.33
870,930.61,1992.54,32.39,1857.33,938.33
872,930.92,1996.14,16.26,1842.33,947.00
874,931.23,1999.73,5.32,1821.33,954.00
876,931.54,2003.32,15.59,1816.33,948.00
878,931.85,2006.90,14.54,1801.67,951.00
880,932.16,2010.48,18.99,1784.67,944.33
882,932.47,2014.06,26.66,1783.33,947.67
884,932.78,2017.63,31.21,1782.67,954.33
886,933.09,2021.21,3.88,1739.67,948.67
888,933.41,2024.77,6.67,1736.33,953.33
890,933.72,2028.34,5.71,1739.67,970.33
892,934.03,2031.90,0.00,1705.67,959.33
894,934.34,2035.46,12.83,1710.00,958.67
896,934.65,2039.01,9.31,1683.67,942.33
898,934.96,2042.57,6.30,1679.67,955.00
900,935.27,2046.11,9.35,1681.33,967.33
902,935.58,2049.66,4.77,1626.33,920.00
904,935.89,2053.20,0.00,1622.33,950.67
906,936.20,2056.74,4.38,1633.33,947.00
908,936.51,2060.28,17.73,1626.00,943.67
910,936.82,2063.81,9.19,1635.33,961.00
912,937.13,2067.34,0.00,1602.33,950.00
914,937.44,2070.86,25.03,1608.00,941.67
916,937.75,2074.39,0.21,1574.33,936.00
918,938.06,2077.91,0.00,1565.33,949.67
920,938.37,2081.42,1.54,1582.00,954.67
922,938.68,2084.94,0.00,1552.33,941.00
924,938.99,2088.45,9.46,1566.00,943.67
926,939.30,2091.95,1.18,1563.00,951.00
928,939.60,2095.46,0.00,1538.67,940.33
930,939.91,2098.96,0.00,1562.67,963.33
932,940.22,2102.45,0.00,1548.00,957.67
934,940.53,2105.95,15.58,1553.00,942.33
936,940.84,2109.44,10.72,1550.33,945.67
938,941.15,2112.92,3.01,1543.67,949.67
940,941.46,2116.41,1.92,1531.67,941.67
942,941.77,2119.89,3.82,1546.67,956.67
944,942.07,2123.37,9.21,1538.00,947.00
946,942.38,2126.84,8.97,1540.67,952.00
948,942.69,2130.31,6.68,1546.67,961.33
950,943.00,2133.78,0.00,1522.67,953.00
952,943.31,2137.24,0.09,1531.67,955.00
954,943.62,2140.70,0.00,1523.67,949.67
956,943.92,2144.16,19.68,1536.67,942.33
958,944.23,2147.62,6.30,1536.67,954.33
960,944.54,2151.07,11.66,1552.00,960.67
962,944.85,2154.52,28.79,1576.00,973.33
964,945.16,2157.96,14.14,1554.33,963.33
966,945.46,2161.40,39.22,1577.00,958.33
968,945.77,2164.84,36.35,1548.33,931.67
970,946.08,2168.28,62.20,1594.67,953.33
972,946.39,2171.71,93.59,1618.67,946.67
974,946.69,2175.14,102.01,1631.33,947.67
976,947.00,2178.57,170.81,1685.67,944.33
978,947.31,2181.99,220.44,1710.00,932.33
980,947.61,2185.41,214.78,1724.67,950.67
982,947.92,2188.82,238.02,1753.00,957.67
984,948.23,2192.24,200.18,1701.67,931.67
986,948.53,2195.65,160.13,1691.33,951.67
988,948.84,2199.05,159.28,1656.33,922.33
990,949.15,2202.46,150.59,1674.33,949.00
992,949.45,2205.86,109.05,1644.33,952.67
994,949.76,2209.25,124.74,1639.33,937.33
996,950.07,2212.65,112.19,1631.33,942.33
998,950.37,2216.04,94.36,1613.67,933.67
1000,950.68,2219.43,83.44,1617.67,945.67
1002,950.98,2222.81,125.13,1653.00,954.33
1004,951.29,2226.19,125.40,1639.00,940.00
1006,951.60,2229.57,97.22,1622.67,933.67
1008,951.90,2232.94,118.30,1638.33,935.33
1010,952.21,2236.32,141.45,1651.67,942.33
1012,952.51,2239.68,130.36,1649.33,947.67
1014,952.82,2243.05,114.96,1625.00,931.33
1016,953.12,2246.41,89.60,1644.67,967.67
1018,953.43,2249.77,76.04,1638.33,974.33
1020,953.73,2253.12,95.52,1639.00,961.67
1022,954.04,2256.48,70.83,1588.33,929.33
1024,954.34,2259.83,79.33,1623.67,956.00
1026,954.65,2263.17,83.05,1609.33,939.00
1028,954.95,2266.51,81.90,1622.33,955.67
1030,955.26,2269.85,101.62,1646.00,966.00
1032,955.56,2273.19,74.39,1618.67,957.00
1034,955.87,2276.52,91.29,1631.33,955.33
1036,956.17,2279.85,85.85,1634.00,967.33
1038,956.48,2283.18,89.89,1592.00,922.00
1040,956.78,2286.50,69.09,1599.67,939.00
1042,957.08,2289.82,71.34,1596.00,930.67
1044,957.39,2293.14,86.21,1617.67,950.00
1046,957.69,2296.45,97.14,1600.33,931.00
1048,957.99,2299.76,82.85,1626.00,960.67
1050,958.30,2303.07,65.01,1606.00,948.00
1052,958.60,2306.38,46.35,1592.67,948.67
1054,958.91,2309.68,27.37,1573.67,949.67
1056,959.21,2312.98,55.55,1576.00,935.33
1058,959.51,2316.27,67.15,1601.00,952.67
1060,959.82,2319.56,43.74,1599.67,963.67
1062,960.12,2322.85,42.81,1574.67,937.67
1064,960.42,2326.14,37.59,1565.00,935.33
1066,960.72,2329.42,45.99,1578.67,947.33
1068,961.03,2332.70,29.22,1569.67,948.67
1070,961.33,2335.97,11.04,1569.00,958.33
1072,961.63,2339.25,7.09,1546.00,939.67
1074,961.93,2342.52,17.38,1560.67,947.67
1076,962.24,2345.78,0.00,1545.33,947.67
1078,962.54,2349.05,27.49,1560.67,941.67
1080,962.84,2352.31,28.33,1567.00,952.00
1082,963.14,2355.56,9.15,1558.00,947.67
1084,963.45,2358.82,0.00,1540.33,942.33
1086,963.75,2362.07,8.13,1565.33,957.33
1088,964.05,2365.32,26.01,1593.00,976.67
1090,964.35,2368.56,1.66,1552.00,951.67
1092,964.65,2371.80,19.30,1573.67,958.33
1094,964.95,2375.04,0.00,1546.67,949.67
1096,965.25,2378.27,29.96,1556.33,938.00
1098,965.56,2381.51,27.31,1570.67,949.33
1100,965.86,2384.73,19.38,1567.33,951.00
1102,966.16,2387.96,41.19,1576.67,948.00
1104,966.46,2391.18,38.94,1591.33,964.67
1106,966.76,2394.40,49.97,1585.33,948.33
1108,967.06,2397.62,42.53,1591.00,962.00
1110,967.36,2400.83,84.52,1596.67,942.33
1112,967.66,2404.04,46.78,1595.67,964.67
1114,967.96,2407.25,69.39,1587.33,936.33
1116,968.26,2410.45,61.80,1596.00,949.67
1118,968.56,2413.65,58.28,1583.67,944.33
1120,968.86,2416.85,93.55,1626.33,967.00
1122,969.16,2420.04,86.04,1607.67,951.00
1124,969.46,2423.23,91.00,1606.33,944.33
1126,969.76,2426.42,94.94,1612.33,947.67
1128,970.06,2429.60,86.33,1588.33,932.33
1130,970.36,2432.79,102.11,1610.00,947.67
1132,970.66,2435.96,96.68,1602.67,942.33
1134,970.96,2439.14,54.46,1581.33,947.67
1136,971.26,2442.31,65.96,1599.67,958.33
1138,971.56,2445.48,41.30,1573.33,947.67
1140,971.86,2448.65,37.71,1567.67,948.67
1142,972.16,2451.81,41.94,1577.67,956.67
1144,972.45,2454.97,10.46,1558.33,952.00
1146,972.75,2458.13,5.14,1554.67,952.33
1148,973.05,2461.28,0.00,1533.67,942.33
1150,973.35,2464.43,0.00,1549.00,955.67
1152,973.65,2467.58,0.10,1545.33,950.33
1154,973.95,2470.72,0.00,1540.00,950.67
1156,974.24,2473.86,0.00,1532.00,948.00
1158,974.54,2477.00,0.13,1532.67,935.67
1160,974.84,2480.13,13.96,1557.33,952.33
1162,975.14,2483.27,23.16,1558.00,945.00
1164,975.43,2486.40,0.00,1541.00,938.00
1166,975.73,2489.52,3.72,1547.33,936.67
1168,976.03,2492.64,0.00,1555.00,944.33
1170,976.33,2495.76,21.73,1582.00,952.00
1172,976.62,2498.88,0.00,1560.33,943.67
1174,976.92,2501.99,0.00,1574.67,959.00
1176,977.22,2505.10,0.00,1589.00,957.67
1178,977.51,2508.21,10.82,1597.33,948.67
1180,977.81,2511.31,0.00,1592.33,953.67
1182,978.11,2514.41,0.00,1604.33,953.67
1184,978.40,2517.51,0.00,1617.67,945.67
1186,978.70,2520.61,0.00,1633.67,950.33
1188,979.00,2523.70,0.00,1651.67,956.67
1190,979.29,2526.79,0.00,1648.00,946.33
1192,979.59,2529.87,3.47,1674.00,950.00
1194,979.88,2532.95,0.00,1664.67,936.00
1196,980.18,2536.03,3.49,1710.00,957.67
1198,980.48,2539.11,24.94,1735.33,961.33
1200,980.77,2542.18,19.40,1731.33,948.00
1202,981.07,2545.25,0.00,1739.67,965.00
1204,981.36,2548.32,0.00,1737.33,950.00
1206,981.66,2551.38,0.02,1786.67,961.33
1208,981.95,2554.44,0.00,1786.67,945.67
1210,982.25,2557.50,0.00,1820.33,967.00
1212,982.54,2560.56,0.00,1845.00,964.33
1214,982.84,2563.61,0.00,1869.67,971.67
1216,983.13,2566.66,3.46,1910.00,972.00
1218,983.43,2569.70,1.78,1926.00,970.00
1220,983.72,2572.74,64.06,1987.67,968.00
1222,984.01,2575.78,88.72,2007.33,958.00
1224,984.31,2578.82,125.07,2027.00,938.33
1226,984.60,2581.85,192.15,2094.67,955.33
1228,984.90,2584.88,242.24,2118.33,935.33
1230,985.19,2587.91,249.62,2169.67,953.00
1232,985.48,2590.93,287.66,2218.33,960.00
1234,985.78,2593.96,392.72,2277.00,960.00
1236,986.07,2596.97,387.95,2280.00,951.67
1238,986.36,2599.99,365.80,2315.67,971.33
1240,986.66,2603.00,386.63,2350.00,971.33
1242,986.95,2606.01,358.26,2343.33,964.00
1244,987.24,2609.01,388.36,2374.33,964.33
1246,987.54,2612.02,321.50,2327.00,932.00
1248,987.83,2615.02,344.92,2387.67,961.33
1250,988.12,2618.01,269.78,2374.33,966.00
1252,988.41,2621.01,335.16,2413.00,956.67
1254,988.71,2624.00,352.36,2432.67,950.00
1256,989.00,2626.99,342.83,2455.00,966.00
1258,989.29,2629.97,387.66,2460.00,955.00
1260,989.58,2632.95,473.05,2503.00,963.33
1262,989.87,2635.93,512.01,2535.00,968.33
1264,990.16,2638.91,497.25,2519.33,946.33
1266,990.46,2641.88,587.74,2576.33,963.00
1268,990.75,2644.85,758.81,2657.33,976.00
1270,991.04,2647.81,818.54,2671.67,960.00
1272,991.33,2650.78,867.04,2710.33,966.33
1274,991.62,2653.74,1074.28,2801.67,960.67
1276,991.91,2656.70,1224.69,2849.00,952.67
1278,992.20,2659.65,1463.00,2959.00,969.00
1280,992.49,2662.60,1565.73,2984.33,951.33
1282,992.78,2665.55,1637.26,3042.00,976.33
1284,993.07,2668.50,1749.90,3092.67,979.00
1286,993.36,2671.44,1737.84,3069.00,962.00
1288,993.65,2674.38,1726.27,3073.67,971.00
1290,993.94,2677.31,1742.19,3075.67,963.67
1292,994.23,2680.25,1713.27,3066.00,964.67
1294,994.52,2683.18,1751.89,3074.33,959.33
1296,994.81,2686.10,1906.61,3137.00,964.67
1298,995.10,2689.03,1959.37,3151.67,965.33
1300,995.39,2691.95,2048.27,3184.33,958.00
1302,995.68,2694.87,2096.71,3234.00,978.33
1304,995.97,2697.78,2307.72,3326.00,980.33
1306,996.26,2700.70,2639.05,3419.67,944.33
1308,996.55,2703.61,2975.83,3574.33,967.00
1310,996.84,2706.51,3370.07,3732.00,969.00
1312,997.13,2709.42,3906.30,3943.33,973.33
1314,997.41,2712.32,4455.00,4147.00,972.67
1316,997.70,2715.21,5051.86,4348.67,967.00
1318,997.99,2718.11,5744.49,4571.33,959.33
1320,998.28,2721.00,6042.30,4652.67,955.33
1322,998.57,2723.89,6251.73,4729.00,973.00
1324,998.86,2726.77,6127.02,4637.00,952.00
1326,999.14,2729.66,5709.45,4476.67,958.33
1328,999.43,2732.54,4994.38,4220.33,962.00
1330,999.72,2735.41,4113.95,3904.67,964.67
1332,1000.01,2738.29,3322.36,3625.33,977.33
1334,1000.29,2741.16,2640.81,3349.00,961.33
1336,1000.58,2744.03,2050.39,3104.33,952.67
1338,1000.87,2746.89,1701.34,2983.00,976.00
1340,1001.15,2749.75,1300.60,2809.67,962.00
1342,1001.44,2752.61,995.87,2685.67,961.00
1344,1001.73,2755.47,904.07,2628.33,954.33
1346,1002.01,2758.32,728.31,2538.33,947.67
1348,1002.30,2761.17,470.79,2471.67,974.00
1350,1002.59,2764.02,208.51,2406.67,977.00
1352,1002.87,2766.86,28.92,2333.00,960.00
1354,1003.16,2769.70,0.00,2271.33,956.00
1356,1003.44,2772.54,0.00,2236.33,950.00
1358,1003.73,2775.38,0.00,2266.00,960.67
1360,1004.01,2778.21,0.00,2246.67,947.67
1362,1004.30,2781.04,0.00,2286.33,955.67
1364,1004.58,2783.87,0.00,2305.00,954.33
1366,1004.87,2786.69,0.00,2340.33,941.00
1368,1005.15,2789.51,0.00,2437.33,960.00
1370,1005.44,2792.33,0.00,2521.33,971.67
1372,1005.72,2795.14,0.00,2596.33,972.67
1374,1006.01,2797.95,0.00,2715.00,972.33
1376,1006.29,2800.76,0.01,2834.33,958.33
1378,1006.58,2803.57,23.81,3034.33,984.33
1380,1006.86,2806.37,211.91,3162.33,957.00
1382,1007.14,2809.17,821.66,3401.67,960.00
1384,1007.43,2811.97,1780.64,3678.00,953.33
1386,1007.71,2814.77,2910.82,4020.67,951.67
1388,1008.00,2817.56,4440.46,4511.33,953.00
1390,1008.28,2820.35,6064.21,5062.33,967.00
1392,1008.56,2823.13,8183.15,5770.67,957.67
1394,1008.85,2825.91,11161.11,6779.00,964.67
1396,1009.13,2828.69,15138.28,8098.00,967.00
1398,1009.41,2831.47,20878.73,9982.67,976.33
1400,1009.69,2834.24,28761.21,12476.00,957.67
1402,1009.98,2837.02,39547.74,15731.67,963.33
1404,1010.26,2839.78,54481.12,19881.33,974.67
1406,1010.54,2842.55,72399.25,24365.33,949.33
1408,1010.82,2845.31,90242.84,28597.00,966.33
1410,1011.11,2848.07,101912.36,31381.67,970.33
1412,1011.39,2850.83,105456.52,32555.00,972.00
1414,1011.67,2853.58,102769.34,32357.67,969.00
1416,1011.95,2856.33,98915.92,31673.67,970.33
1418,1012.23,2859.08,97273.04,31198.33,964.00
1420,1012.51,2861.83,98410.38,31166.33,961.33
1422,1012.80,2864.57,101327.12,31475.00,987.67
1424,1013.08,2867.31,104049.14,31692.00,984.33
1426,1013.36,2870.04,105129.06,31623.67,980.33
1428,1013.64,2872.78,104034.18,31207.33,968.00
1430,1013.92,2875.51,100837.28,30430.33,991.33
1432,1014.20,2878.24,97749.97,29603.33,969.00
1434,1014.48,2880.96,96000.74,28968.33,966.00
1436,1014.76,2883.68,96090.85,28659.33,952.67
1438,1015.04,2886.40,96944.42,28549.33,957.33
1440,1015.32,2889.12,97189.90,28365.00,977.67
1442,1015.60,2891.83,97446.34,28220.33,958.67
1444,1015.88,2894.54,97087.53,27972.00,976.67
1446,1016.16,2897.25,97388.72,27828.67,955.00
1448,1016.44,2899.96,97251.52,27605.67,975.33
1450,1016.72,2902.66,97086.25,27357.00,968.67
1452,1017.00,2905.36,96535.58,27057.33,993.67
1454,1017.28,2908.06,95919.47,26710.00,961.33
1456,1017.55,2910.75,95692.59,26505.67,981.00
1458,1017.83,2913.44,95962.33,26351.00,959.33
1460,1018.11,2916.13,95923.62,26139.00,966.33
1462,1018.39,2918.81,95889.63,25918.33,971.67
1464,1018.67,2921.49,96568.63,25832.67,967.33
1466,1018.95,2924.17,96519.10,25576.00,969.00
1468,1019.22,2926.85,95577.57,25144.00,981.00
1470,1019.50,2929.52,93889.48,24500.33,959.67
1472,1019.78,2932.20,91871.10,23761.00,954.33
1474,1020.06,2934.86,88331.57,22709.33,965.33
1476,1020.33,2937.53,82526.70,21303.67,980.33
1478,1020.61,2940.19,75101.34,19710.33,970.00
1480,1020.89,2942.85,66668.62,17935.33,973.33
1482,1021.17,2945.51,60779.65,16561.33,964.00
1484,1021.44,2948.16,57345.31,15595.67,966.33
1486,1021.72,2950.81,54869.25,14787.67,960.67
1488,1022.00,2953.46,53039.23,14164.33,980.33
1490,1022.27,2956.11,51245.57,13561.33,958.67
1492,1022.55,2958.75,47998.65,12765.67,985.33
1494,1022.82,2961.39,44124.25,11839.67,966.00
1496,1023.10,2964.03,39588.40,10868.00,993.67
1498,1023.38,2966.66,34510.40,9765.33,956.00
1500,1023.65,2969.29,29061.19,8653.33,974.00
1502,1023.93,2971.92,24030.27,7606.00,982.33
1504,1024.20,2974.55,19713.93,6686.00,977.67
1506,1024.48,2977.17,15806.20,5848.00,974.67
1508,1024.75,2979.79,12640.29,5146.67,956.33
1510,1025.03,2982.41,10132.91,4600.00,956.00
1512,1025.30,2985.02,7949.76,4121.67,954.33
1514,1025.58,2987.63,6253.56,3768.00,968.33
1516,1025.85,2990.24,4755.23,3435.00,954.33
1518,1026.13,2992.85,3451.61,3174.67,970.33
1520,1026.40,2995.45,2245.54,2928.33,971.67
1522,1026.68,2998.05,1390.43,2750.33,957.67
1524,1026.95,3000.65,620.78,2606.67,975.33
1526,1027.22,3003.25,250.95,2470.00,958.67
1528,1027.50,3005.84,41.80,2323.00,951.33
1530,1027.77,3008.43,9.14,2246.67,969.00
1532,1028.04,3011.02,0.00,2153.67,970.00
1534,1028.32,3013.60,0.00,2056.67,962.67
1536,1028.59,3016.18,0.00,2001.67,967.67
1538,1028.86,3018.76,0.00,1910.00,938.33
1540,1029.14,3021.34,0.00,1874.67,964.33
1542,1029.41,3023.91,0.00,1802.00,954.00
1544,1029.68,3026.48,0.00,1737.33,954.00
1546,1029.95,3029.05,0.00,1719.67,959.33
1548,1030.22,3031.61,0.00,1678.33,951.67
1550,1030.50,3034.17,0.00,1648.00,957.67
1552,1030.77,3036.73,0.00,1591.67,948.00
1554,1031.04,3039.29,0.00,1574.00,967.00
1556,1031.31,3041.84,3.62,1543.00,944.33
1558,1031.58,3044.39,0.00,1544.00,987.33
1560,1031.85,3046.94,0.00,1517.00,972.67
1562,1032.13,3049.49,0.00,1467.67,955.00
1564,1032.40,3052.03,0.00,1462.33,974.67
1566,1032.67,3054.57,0.00,1438.00,956.33
1568,1032.94,3057.11,0.00,1443.00,982.33
1570,1033.21,3059.64,105.58,1402.00,944.33
1572,1033.48,3062.18,0.00,1404.33,973.67
1574,1033.75,3064.70,1.74,1382.33,966.33
1576,1034.02,3067.23,0.00,1359.67,973.33
1578,1034.29,3069.75,36.12,1339.67,947.00
1580,1034.56,3072.28,0.00,1341.00,974.33
1582,1034.83,3074.79,0.00,1303.67,943.00
1584,1035.10,3077.31,10.14,1325.67,972.67
1586,1035.37,3079.82,0.00,1287.00,960.67
1588,1035.64,3082.33,0.00,1308.00,985.33
1590,1035.91,3084.84,45.75,1295.67,969.67
1592,1036.17,3087.34,0.00,1267.33,961.33
1594,1036.44,3089.85,0.00,1288.67,987.00
1596,1036.71,3092.35,13.19,1253.67,954.33
1598,1036.98,3094.84,39.38,1246.00,952.00
1600,1037.25,3097.34,35.84,1235.33,947.33
1602,1037.52,3099.83,0.00,1238.00,965.33
1604,1037.78,3102.32,0.23,1232.33,962.67
1606,1038.05,3104.80,25.13,1243.67,974.00
1608,1038.32,3107.29,76.02,1225.33,958.67
1610,1038.59,3109.77,0.00,1213.33,960.67
1612,1038.85,3112.24,5.91,1209.67,959.33
1614,1039.12,3114.72,28.60,1227.67,976.67
1616,1039.39,3117.19,34.94,1189.33,944.33
1618,1039.66,3119.66,127.73,1220.00,972.33
1620,1039.92,3122.13,82.30,1209.67,968.33
1622,1040.19,3124.59,24.37,1197.33,962.67
1624,1040.45,3127.05,0.00,1178.00,960.00
1626,1040.72,3129.51,0.00,1193.00,972.33
1628,1040.99,3131.97,29.59,1202.00,977.33
1630,1041.25,3134.42,3.13,1200.67,981.00
1632,1041.52,3136.87,70.37,1182.33,957.33
1634,1041.78,3139.32,76.19,1185.33,961.33
1636,1042.05,3141.77,56.21,1238.33,1017.67
1638,1042.32,3144.21,66.78,1177.67,957.33
1640,1042.58,3146.65,6.76,1193.67,982.33
1642,1042.85,3149.09,184.46,1196.33,968.00
1644,1043.11,3151.52,0.00,1177.00,969.67
1646,1043.38,3153.96,131.64,1199.00,973.67
1648,1043.64,3156.39,129.06,1181.00,958.33
1650,1043.90,3158.81,88.64,1181.00,967.67
1652,1044.17,3161.24,201.15,1195.00,973.67
1654,1044.43,3163.66,350.28,1183.00,951.33
1656,1044.70,3166.08,236.28,1207.00,987.33
1658,1044.96,3168.49,392.89,1197.33,962.00
1660,1045.22,3170.91,143.52,1173.00,964.67
1662,1045.49,3173.32,346.33,1190.67,964.00
1664,1045.75,3175.73,365.59,1193.67,967.33
1666,1046.01,3178.13,280.19,1174.67,957.67
1668,1046.28,3180.54,195.95,1189.67,983.00
1670,1046.54,3182.94,427.75,1206.33,979.00
1672,1046.80,3185.34,523.21,1197.67,965.00
1674,1047.07,3187.73,380.29,1174.33,958.33
1676,1047.33,3190.12,450.76,1188.00,967.33
1678,1047.59,3192.51,390.07,1189.00,973.67
1680,1047.85,3194.90,326.29,1196.00,987.33
1682,1048.11,3197.29,474.04,1202.67,983.33
1684,1048.38,3199.67,549.80,1195.67,974.67
1686,1048.64,3202.05,625.27,1204.00,978.33
1688,1048.90,3204.43,460.17,1183.33,972.00
1690,1049.16,3206.80,476.03,1176.33,964.67
1692,1049.42,3209.17,521.30,1192.00,979.67
1694,1049.68,3211.54,583.61,1174.67,961.33
1696,1049.94,3213.91,632.53,1180.00,965.33
1698,1050.20,3216.27,580.87,1181.67,970.33
1700,1050.46,3218.63,513.90,1203.67,996.33
1702,1050.72,3220.99,465.21,1175.00,974.00
1704,1050.98,3223.35,680.51,1192.67,978.33
1706,1051.24,3225.70,665.17,1173.33,965.00
1708,1051.50,3228.05,759.23,1168.33,954.33
1710,1051.76,3230.40,760.80,1191.00,978.33
1712,1052.02,3232.75,797.65,1180.00,966.67
1714,1052.28,3235.09,851.67,1197.00,980.33
1716,1052.54,3237.43,691.25,1172.33,968.33
1718,1052.80,3239.77,815.67,1168.67,956.33
1720,1053.06,3242.11,703.93,1172.67,972.33
1722,1053.32,3244.44,718.94,1156.67,957.67
1724,1053.58,3246.77,779.57,1196.33,995.67
1726,1053.84,3249.10,959.15,1174.67,964.33
1728,1054.10,3251.42,1039.95,1188.67,974.00
1730,1054.35,3253.75,754.82,1162.00,968.00
1732,1054.61,3256.07,838.48,1180.67,981.67
1734,1054.87,3258.39,929.89,1171.33,968.00
1736,1055.13,3260.70,925.23,1169.33,968.33
1738,1055.38,3263.01,857.85,1160.67,966.33
1740,1055.64,3265.32,1001.38,1177.00,974.67
1742,1055.90,3267.63,1021.72,1155.67,954.33
1744,1056.16,3269.94,955.20,1179.33,985.67
1746,1056.41,3272.24,1141.01,1191.67,989.33
1748,1056.67,3274.54,1190.05,1172.67,969.67
1750,1056.93,3276.84,1218.07,1180.67,976.67
1752,1057.18,3279.13,1070.80,1160.67,966.00
1754,1057.44,3281.42,968.12,1149.00,960.67
1756,1057.69,3283.71,888.60,1143.00,961.00
1758,1057.95,3286.00,829.79,1175.33,1000.00
1760,1058.21,3288.28,915.99,1144.00,966.33
1762,1058.46,3290.57,949.46,1161.67,984.67
1764,1058.72,3292.85,1120.67,1162.00,976.00
1766,1058.97,3295.12,880.91,1134.00,964.00
1768,1059.23,3297.40,1232.14,1144.00,955.67
1770,1059.48,3299.67,964.35,1153.33,984.00
1772,1059.74,3301.94,1117.67,1131.33,953.67
1774,1059.99,3304.21,921.39,1148.00,981.00
1776,1060.25,3306.47,986.95,1161.00,990.67
1778,1060.50,3308.73,980.88,1133.00,965.67
1780,1060.76,3310.99,1180.44,1132.67,957.00
1782,1061.01,3313.25,999.23,1133.67,971.00
1784,1061.26,3315.50,972.50,1126.67,967.00
1786,1061.52,3317.76,824.55,1138.33,987.67
1788,1061.77,3320.01,849.88,1132.33,981.67
1790,1062.02,3322.25,1093.25,1113.67,952.00
1792,1062.28,3324.50,968.21,1121.67,968.67
1794,1062.53,3326.74,1083.82,1110.67,953.00
1796,1062.78,3328.98,916.37,1114.00,966.00
1798,1063.04,3331.22,912.09,1117.33,969.67
1800,1063.29,3333.45,726.10,1105.67,968.67
1802,1063.54,3335.68,857.03,1106.67,965.33
1804,1063.79,3337.91,982.29,1125.00,981.00
1806,1064.05,3340.14,621.43,1124.00,999.33
1808,1064.30,3342.36,856.61,1095.00,958.67
1810,1064.55,3344.59,783.65,1108.33,974.00
1812,1064.80,3346.81,700.36,1094.33,964.67
1814,1065.05,3349.02,950.27,1096.00,957.67
1816,1065.30,3351.24,1094.20,1117.00,978.00
1818,1065.55,3353.45,1045.52,1097.33,963.33
1820,1065.81,3355.66,956.40,1127.00,995.67
1822,1066.06,3357.87,817.33,1093.00,965.33
1824,1066.31,3360.07,495.73,1075.33,963.00
1826,1066.56,3362.27,632.21,1097.33,979.67
1828,1066.81,3364.47,669.45,1072.33,956.33
1830,1067.06,3366.67,806.84,1086.33,968.00
1832,1067.31,3368.87,1087.61,1088.00,960.67
1834,1067.56,3371.06,952.41,1061.33,939.67
1836,1067.81,3373.25,685.68,1064.67,953.33
1838,1068.06,3375.44,827.30,1067.67,949.33
1840,1068.31,3377.62,652.47,1066.67,956.67
1842,1068.56,3379.81,626.87,1058.67,952.00
1844,1068.80,3381.99,878.83,1105.00,991.67
1846,1069.05,3384.16,885.68,1083.33,972.67
1848,1069.30,3386.34,939.96,1071.00,957.67
1850,1069.55,3388.51,827.87,1068.67,957.00
1852,1069.80,3390.68,528.98,1071.67,972.67
1854,1070.05,3392.85,674.55,1098.00,995.33
1856,1070.30,3395.02,817.99,1077.33,972.33
1858,1070.54,3397.18,930.06,1053.00,945.33
1860,1070.79,3399.34,747.79,1071.00,970.67
1862,1071.04,3401.50,720.67,1060.33,962.00
1864,1071.29,3403.66,740.46,1046.33,948.33
1866,1071.53,3405.81,889.10,1067.00,964.00
1868,1071.78,3407.96,661.32,1059.00,964.67
1870,1072.03,3410.11,738.12,1064.67,968.33
1872,1072.27,3412.26,561.90,1055.00,966.67
1874,1072.52,3414.40,645.46,1048.67,958.67
1876,1072.77,3416.54,699.86,1048.67,957.33
1878,1073.01,3418.68,544.72,1066.33,981.00
1880,1073.26,3420.82,577.43,1026.67,941.33
1882,1073.51,3422.96,508.18,1052.33,970.33
1884,1073.75,3425.09,332.29,1044.33,968.67
1886,1074.00,3427.22,536.14,1035.33,953.00
1888,1074.24,3429.35,379.46,1062.00,986.33
1890,1074.49,3431.47,748.11,1043.67,957.00
1892,1074.73,3433.59,490.08,1031.00,953.00
1894,1074.98,3435.71,592.57,1058.33,977.67
1896,1075.22,3437.83,195.57,1036.67,970.67
1898,1075.47,3439.95,733.11,1050.67,970.33
1900,1075.71,3442.06,569.21,1050.00,975.33
1902,1075.96,3444.17,483.34,1040.00,968.00
1904,1076.20,3446.28,546.07,1002.67,928.67
1906,1076.44,3448.38,735.81,1060.00,980.33
1908,1076.69,3450.49,282.19,1039.00,975.67
1910,1076.93,3452.59,486.30,1039.33,971.67
1912,1077.17,3454.69,795.36,1034.33,958.67
1914,1077.42,3456.79,342.77,1029.00,966.33
1916,1077.66,3458.88,317.20,1025.33,964.00
1918,1077.90,3460.97,570.79,1020.67,953.67
1920,1078.15,3463.06,763.83,1046.00,976.33
1922,1078.39,3465.15,840.72,1038.67,967.67
1924,1078.63,3467.23,544.37,1007.67,944.33
1926,1078.87,3469.32,425.89,1037.33,978.00
1928,1079.12,3471.40,697.85,1025.33,960.00
1930,1079.36,3473.47,407.83,1057.67,1001.33
1932,1079.60,3475.55,756.01,1018.33,954.33
1934,1079.84,3477.62,670.10,1029.33,968.67
1936,1080.08,3479.69,851.64,1015.33,950.00
1938,1080.33,3481.76,307.25,1006.33,954.33
1940,1080.57,3483.83,245.28,1014.33,964.00
1942,1080.81,3485.89,448.70,1014.00,958.67
1944,1081.05,3487.95,600.77,1033.67,977.33
1946,1081.29,3490.01,593.96,1021.00,967.00
1948,1081.53,3492.07,377.11,1007.67,959.33
1950,1081.77,3494.12,535.51,1008.67,957.33
1952,1082.01,3496.18,863.22,1026.00,968.67
1954,1082.25,3498.23,895.15,1008.33,951.00
1956,1082.49,3500.27,851.99,1020.33,962.67
1958,1082.73,3502.32,265.63,1002.00,958.33
1960,1082.97,3504.36,293.26,1016.00,972.00
1962,1083.21,3506.40,627.47,1008.67,957.00
1964,1083.45,3508.44,313.76,988.00,945.67
1966,1083.69,3510.48,602.16,1036.67,989.00
1968,1083.93,3512.51,688.64,1015.67,968.00
1970,1084.16,3514.54,677.14,1008.33,962.00
1972,1084.40,3516.57,508.96,1002.33,959.33
1974,1084.64,3518.60,488.67,997.67,955.00
1976,1084.88,3520.62,878.10,1027.00,976.00
1978,1085.12,3522.65,519.92,1021.33,978.67
1980,1085.36,3524.67,411.34,1010.00,970.33
1982,1085.59,3526.68,377.11,989.67,952.00
1984,1085.83,3528.70,1077.46,1024.33,975.00
1986,1086.07,3530.71,782.87,996.67,953.33
1988,1086.31,3532.72,537.43,1006.00,966.67
1990,1086.54,3534.73,563.04,990.33,950.00
1992,1086.78,3536.74,450.20,1021.33,983.67
1994,1087.02,3538.74,642.93,1006.33,964.33
1996,1087.25,3540.74,28.62,979.67,952.33
1998,1087.49,3542.74,770.56,998.00,955.67
2000,1087.73,3544.74,523.13,996.00,960.67
2002,1087.96,3546.74,496.09,993.00,959.33
2004,1088.20,3548.73,1113.18,1020.00,976.67
2006,1088.43,3550.72,571.21,1000.00,965.00
2008,1088.67,3552.71,360.49,991.67,960.00
2010,1088.90,3554.69,471.04,981.00,947.33
2012,1089.14,3556.68,704.48,1003.33,966.67
2014,1089.38,3558.66,491.30,981.00,949.33
2016,1089.61,3560.64,644.05,984.67,950.33
2018,1089.84,3562.62,303.02,1001.67,973.00
2020,1090.08,3564.59,62.57,981.00,957.33
2022,1090.31,3566.56,0.00,976.33,954.33
2024,1090.55,3568.53,300.89,983.67,957.00
2026,1090.78,3570.50,927.79,974.00,939.00
2028,1091.02,3572.47,383.83,970.33,943.67
2030,1091.25,3574.43,892.80,979.00,944.00
2032,1091.48,3576.39,537.10,958.67,928.67
2034,1091.72,3578.35,0.00,956.33,936.67
2036,1091.95,3580.31,585.87,978.67,948.33
2038,1092.18,3582.26,164.72,954.00,930.33
2040,1092.42,3584.22,0.00,951.00,929.67
2042,1092.65,3586.17,498.03,965.33,936.67
2044,1092.88,3588.12,0.00,952.67,931.67
2046,1093.11,3590.06,185.72,949.33,923.33
2047,1093.23,3591.03,192.89,949.00,920.33