File: enlighten/plugins/Raman/MatchingLibrary/785X/n-butyl acetate.csv
ENLIGHTEN Version,4.1.22
Measurement ID,20250220-200657-363996-WP-01977
Serial Number,WP-01977
Model,WP-785X-F13-R-ILC
Detector,S16011-1106
Label,n-butyl acetate
Declared Match,
Declared Score,0
Scan Averaging,2
Boxcar,0
Technique,Raman
Baseline Correction Algo,AirPLS
ROI Pixel Start,47
ROI Pixel End,2047
ROI Start Line,0
ROI Stop Line,63
CCD C4,1.38617e-12
Slit Width,25
Cropped,True
Interpolated,False
Wavenumber Correction,-0.100481
Raman Intensity Corrected,True
Deconvolved,True
Region,
High Gain Mode,False
Laser Power mW,
Electrical Dark Correction,False
Battery %,
Device ID,<DeviceID USB:0x24aa:0x1000:0:1>
FW Version,10.0.0.10
FPGA Version,035-001
BLE Version,
Prefix,enlighten
Suffix,
Preset,
Auto-Raman,True
Session Count,0
Plugin Name,
Integration Time,808
Timestamp,2025-02-20 20:06:57.364
Note,
Temperature,0
CCD C0,793.274
CCD C1,0.153259
CCD C2,1.40788e-05
CCD C3,-1.132e-08
CCD Offset,0
CCD Gain,1.9
CCD Offset Odd,0
CCD Gain Odd,1.9
Laser Wavelength,785.032
Laser Enable,False
Laser Power %,0
Laser Temperature,0
Pixel Count,2048

Pixel,Wavelength,Wavenumber,Processed,Raw,Dark
0,793.27,132.25,NA,1101.50,1029.50
2,793.58,137.12,NA,1129.00,1053.00
4,793.89,141.99,NA,1123.00,1042.50
6,794.19,146.86,NA,1127.50,1040.00
8,794.50,151.72,NA,1142.50,1064.50
10,794.81,156.58,NA,1145.00,1054.00
12,795.12,161.44,NA,1117.00,1046.50
14,795.42,166.30,NA,1119.50,1044.50
16,795.73,171.16,NA,1130.00,1037.00
18,796.04,176.01,NA,1160.50,1064.00
20,796.35,180.86,NA,1155.00,1067.50
22,796.65,185.71,NA,1205.00,1111.00
24,796.96,190.56,NA,1140.50,1068.00
26,797.27,195.41,NA,1193.50,1097.00
28,797.58,200.25,NA,1182.00,1092.00
30,797.88,205.09,NA,1162.00,1046.50
32,798.19,209.93,NA,1170.00,1067.50
34,798.50,214.77,NA,1170.00,1048.00
36,798.81,219.60,NA,1200.50,1067.50
38,799.12,224.43,NA,1277.50,1071.00
40,799.43,229.27,NA,1692.00,1087.00
42,799.74,234.09,NA,3216.00,1080.50
44,800.04,238.92,NA,5551.00,1132.50
46,800.35,243.75,NA,6621.00,1078.00
48,800.66,248.57,769.46,7091.50,1100.50
50,800.97,253.39,1342.25,7577.00,1113.00
52,801.28,258.21,1666.46,8071.50,1103.50
54,801.59,263.02,1968.08,8370.00,1117.50
56,801.90,267.83,2024.19,8397.00,1088.50
58,802.21,272.65,2004.54,8385.00,1112.00
60,802.52,277.46,2004.64,8377.50,1107.00
62,802.83,282.26,2161.93,8611.50,1125.00
64,803.14,287.07,2724.29,9357.00,1135.50
66,803.45,291.87,3682.47,10726.50,1120.50
68,803.76,296.67,5570.12,13307.50,1126.50
70,804.07,301.47,8946.30,17172.00,1100.00
72,804.38,306.26,11979.59,20200.50,1089.50
74,804.69,311.06,11246.96,19691.00,1084.50
76,805.00,315.85,8417.62,16941.00,1089.00
78,805.31,320.64,6971.10,15057.00,1100.50
80,805.62,325.42,7076.50,14653.50,1113.00
82,805.93,330.21,6855.19,14095.00,1116.50
84,806.24,334.99,5889.34,12811.00,1065.50
86,806.55,339.77,4707.08,11172.50,1095.50
88,806.86,344.55,3107.74,9072.00,1110.00
90,807.17,349.32,1595.47,7003.00,1070.50
92,807.48,354.10,613.22,5593.00,1089.00
94,807.80,358.87,90.63,4795.00,1119.00
96,808.11,363.63,0.29,4423.50,1093.50
98,808.42,368.40,0.00,4197.00,1075.00
100,808.73,373.16,0.00,4193.00,1073.00
102,809.04,377.93,14.46,4294.00,1063.50
104,809.35,382.68,197.73,4387.00,1065.00
106,809.66,387.44,215.49,4426.50,1089.00
108,809.98,392.19,277.17,4463.00,1060.50
110,810.29,396.95,331.67,4530.00,1105.00
112,810.60,401.70,506.87,4641.00,1074.00
114,810.91,406.44,449.76,4586.50,1083.50
116,811.22,411.19,461.62,4670.50,1098.50
118,811.54,415.93,794.19,5126.00,1083.50
120,811.85,420.67,1543.19,6031.00,1069.50
122,812.16,425.41,2287.08,6886.50,1071.00
124,812.47,430.14,2608.53,7207.50,1104.50
126,812.79,434.87,2110.48,6544.50,1061.50
128,813.10,439.60,1111.01,5282.00,1060.50
130,813.41,444.33,492.34,4311.00,1065.50
132,813.72,449.06,89.92,3689.00,1065.50
134,814.04,453.78,0.34,3403.50,1079.50
136,814.35,458.50,0.00,3268.50,1040.00
138,814.66,463.22,0.10,3261.00,1044.50
140,814.98,467.93,81.81,3543.00,1064.00
142,815.29,472.65,603.21,4156.50,1068.00
144,815.60,477.36,1251.19,4931.50,1081.50
146,815.92,482.06,1668.36,5387.50,1041.50
148,816.23,486.77,1553.81,5349.50,1082.50
150,816.54,491.47,1150.39,4969.50,1123.50
152,816.86,496.17,1297.18,5025.50,1043.50
154,817.17,500.87,1678.35,5463.00,1082.50
156,817.48,505.57,1981.15,5775.50,1066.50
158,817.80,510.26,2006.44,5687.00,1053.00
160,818.11,514.95,1528.42,5048.50,1084.50
162,818.42,519.64,809.48,4059.00,1083.50
164,818.74,524.32,338.89,3265.00,1066.50
166,819.05,529.00,110.85,2863.00,1089.00
168,819.37,533.68,5.35,2605.00,1077.00
170,819.68,538.36,0.00,2500.00,1091.00
172,819.99,543.04,0.00,2418.50,1103.50
174,820.31,547.71,0.00,2358.00,1068.50
176,820.62,552.38,0.00,2320.00,1048.50
178,820.94,557.05,0.00,2327.00,1063.50
180,821.25,561.71,0.00,2292.00,1037.00
182,821.57,566.37,0.00,2324.00,1041.50
184,821.88,571.03,2.13,2393.50,1072.00
186,822.20,575.69,57.53,2484.50,1073.00
188,822.51,580.34,142.62,2582.50,1054.00
190,822.83,584.99,207.68,2729.50,1067.50
192,823.14,589.64,404.86,3056.50,1061.50
194,823.46,594.29,635.77,3538.00,1080.00
196,823.77,598.93,1188.41,4502.50,1072.00
198,824.09,603.57,2318.83,6004.00,1036.00
200,824.40,608.21,3339.95,7311.50,1072.00
202,824.72,612.85,3118.24,7459.50,1096.00
204,825.03,617.48,2968.26,8011.00,1090.00
206,825.35,622.11,4499.47,11482.00,1102.50
208,825.66,626.74,10165.98,20489.50,1083.50
210,825.98,631.36,20338.89,32877.50,1063.00
212,826.29,635.99,23540.63,37181.50,1091.00
214,826.61,640.61,18169.79,31431.00,1079.50
216,826.92,645.22,12136.75,22766.50,1065.00
218,827.24,649.84,7256.22,15004.00,1042.50
220,827.56,654.45,4017.10,9595.00,1090.00
222,827.87,659.06,2186.78,6357.50,1078.50
224,828.19,663.67,1123.63,4462.00,1076.50
226,828.50,668.27,652.05,3600.00,1124.00
228,828.82,672.87,402.58,3080.50,1082.50
230,829.13,677.47,238.25,2761.50,1052.00
232,829.45,682.06,159.84,2621.50,1071.50
234,829.77,686.66,68.22,2545.00,1140.50
236,830.08,691.25,10.03,2405.00,1073.00
238,830.40,695.83,0.00,2329.00,1062.00
240,830.72,700.42,0.00,2308.00,1060.00
242,831.03,705.00,0.00,2230.00,1008.50
244,831.35,709.58,0.00,2294.50,1058.00
246,831.66,714.15,0.00,2261.50,1015.00
248,831.98,718.73,0.00,2384.00,1066.50
250,832.30,723.30,0.00,2476.50,1048.50
252,832.61,727.87,4.13,2688.50,1093.00
254,832.93,732.43,159.76,2929.50,1004.50
256,833.25,736.99,392.66,3318.00,1077.00
258,833.56,741.55,348.20,3365.50,1056.00
260,833.88,746.11,229.51,3288.50,1060.00
262,834.20,750.66,144.07,3238.50,1070.00
264,834.51,755.22,62.12,3199.00,1071.00
266,834.83,759.76,33.13,3215.50,1075.00
268,835.15,764.31,51.88,3307.50,1079.00
270,835.47,768.85,179.18,3521.00,1034.00
272,835.78,773.39,345.84,3839.00,1059.00
274,836.10,777.93,612.17,4323.00,1046.50
276,836.42,782.46,1032.23,5101.50,1062.50
278,836.73,787.00,1725.48,6306.50,1043.50
280,837.05,791.52,2746.45,8029.00,1039.00
282,837.37,796.05,3962.32,10218.00,1074.00
284,837.69,800.57,5652.36,12910.00,1055.00
286,838.00,805.09,7692.19,15531.50,1057.00
288,838.32,809.61,7759.16,15801.00,1064.50
290,838.64,814.13,6247.83,14285.00,1087.50
292,838.95,818.64,5547.70,13525.00,1062.00
294,839.27,823.15,6495.88,15119.50,1058.50
296,839.59,827.65,8746.75,19129.00,1073.00
298,839.91,832.15,12480.13,25269.50,1049.50
300,840.22,836.65,18599.16,32762.00,1112.50
302,840.54,841.15,19592.85,33662.00,1052.50
304,840.86,845.65,12656.20,25783.00,1090.50
306,841.18,850.14,8401.87,18966.50,1080.00
308,841.50,854.63,7033.79,15573.50,1155.50
310,841.81,859.11,5168.19,12359.50,1057.00
312,842.13,863.60,3479.48,9931.50,1081.50
314,842.45,868.07,3030.76,9176.50,1050.50
316,842.77,872.55,3617.37,10041.50,1083.50
318,843.08,877.03,5008.93,11892.50,1112.00
320,843.40,881.50,6053.30,13101.00,1047.50
322,843.72,885.97,5492.22,12633.00,1085.50
324,844.04,890.43,4331.53,11315.50,1053.00
326,844.36,894.89,4030.68,11012.50,1059.00
328,844.67,899.35,5002.43,12455.00,1083.50
330,844.99,903.81,6740.69,15071.00,1031.00
332,845.31,908.26,8194.12,17815.50,1084.50
334,845.63,912.71,10185.82,21064.50,1080.00
336,845.95,917.16,12531.66,24137.50,1088.50
338,846.27,921.61,12845.66,24565.00,1370.00
340,846.58,926.05,10471.39,20935.50,1067.00
342,846.90,930.49,6811.75,15772.00,1072.00
344,847.22,934.92,4211.18,11678.00,1066.50
346,847.54,939.36,3362.70,10013.00,1027.50
348,847.86,943.79,3825.05,10404.00,1036.00
350,848.18,948.21,4777.95,11473.50,1045.50
352,848.49,952.64,5069.32,11859.00,1051.50
354,848.81,957.06,4250.27,10940.50,1018.00
356,849.13,961.48,3685.78,10234.00,1091.00
358,849.45,965.89,3623.18,9895.50,1087.50
360,849.77,970.31,3459.43,9453.50,1057.00
362,850.09,974.71,2992.60,8770.50,1064.00
364,850.40,979.12,2449.04,8039.00,1081.50
366,850.72,983.52,2117.11,7639.00,1101.50
368,851.04,987.92,2306.83,7913.00,1038.00
370,851.36,992.32,3052.31,8980.00,1041.00
372,851.68,996.72,3918.03,10110.50,1066.50
374,852.00,1001.11,4059.81,10313.50,1034.00
376,852.32,1005.50,3471.00,9633.50,1021.50
378,852.63,1009.88,2919.04,8972.50,1105.00
380,852.95,1014.26,2683.01,8689.50,1065.50
382,853.27,1018.64,2979.94,9465.00,1084.50
384,853.59,1023.02,4347.57,11792.50,1047.50
386,853.91,1027.39,7186.66,15567.50,1033.00
388,854.23,1031.76,9113.84,17975.50,1052.00
390,854.55,1036.13,7659.38,16699.00,1065.50
392,854.87,1040.49,6207.72,14741.00,1047.50
394,855.18,1044.86,5722.80,13661.00,1070.50
396,855.50,1049.21,5020.76,12712.00,1069.00
398,855.82,1053.57,4754.05,12681.50,1080.00
400,856.14,1057.92,6073.01,14628.00,1057.00
402,856.46,1062.27,8328.22,17372.50,1052.00
404,856.78,1066.62,9218.63,18269.00,1032.50
406,857.10,1070.96,7467.89,16058.00,1038.00
408,857.42,1075.30,4758.27,12374.00,1089.00
410,857.74,1079.64,2842.83,9242.00,1046.50
412,858.06,1083.97,1958.41,7547.50,1046.50
414,858.37,1088.30,1660.98,6816.50,1024.00
416,858.69,1092.63,1523.30,6482.50,1027.50
418,859.01,1096.95,1453.48,6359.00,1025.00
420,859.33,1101.27,1287.81,6241.50,1052.00
422,859.65,1105.59,1373.42,6570.00,1048.50
424,859.97,1109.91,1977.40,7812.50,1035.00
426,860.29,1114.22,3574.50,10503.50,1044.50
428,860.61,1118.53,6403.59,14363.50,1030.50
430,860.93,1122.84,8349.10,16752.00,1051.50
432,861.25,1127.14,7675.89,15990.00,1090.00
434,861.56,1131.44,5053.95,12621.50,1035.00
436,861.88,1135.74,2716.53,9248.00,1041.00
438,862.20,1140.03,1829.34,7737.50,1051.00
440,862.52,1144.32,2028.09,7839.00,1055.00
442,862.84,1148.61,3182.83,9052.00,1073.00
444,863.16,1152.89,3651.79,9346.50,1050.50
446,863.48,1157.17,2296.90,7869.50,1047.00
448,863.80,1161.45,971.23,6011.00,1054.00
450,864.12,1165.73,452.76,4957.50,1063.00
452,864.44,1170.00,211.94,4460.00,1028.50
454,864.76,1174.27,14.54,4203.50,1055.00
456,865.07,1178.53,0.00,3978.00,1023.00
458,865.39,1182.80,0.00,3936.00,1069.00
460,865.71,1187.06,0.00,3968.00,1050.00
462,866.03,1191.31,0.00,4049.50,1047.50
464,866.35,1195.57,0.00,4155.00,1038.50
466,866.67,1199.82,6.66,4336.00,1060.50
468,866.99,1204.06,165.69,4672.50,1050.50
470,867.31,1208.31,424.16,5116.50,1075.00
472,867.63,1212.55,732.61,5706.50,1060.00
474,867.95,1216.79,1159.23,6510.50,1014.00
476,868.27,1221.02,1923.75,7908.50,1061.00
478,868.58,1225.25,3200.86,9685.50,1030.00
480,868.90,1229.48,4285.04,11163.50,1069.00
482,869.22,1233.71,4168.64,11293.50,1069.00
484,869.54,1237.93,3719.95,10925.00,1099.00
486,869.86,1242.15,3520.62,10598.00,1052.50
488,870.18,1246.36,3487.16,10512.50,1021.00
490,870.50,1250.58,3470.62,10587.00,1062.50
492,870.82,1254.79,3614.87,10899.50,1109.00
494,871.14,1258.99,4005.00,11393.00,1068.50
496,871.46,1263.20,4216.28,11671.00,1067.50
498,871.78,1267.40,4103.66,11550.50,1046.50
500,872.10,1271.59,3825.76,11262.00,1040.00
502,872.41,1275.79,3490.01,10964.50,1040.50
504,872.73,1279.98,3672.95,11415.00,1062.00
506,873.05,1284.17,4548.95,12874.00,1079.50
508,873.37,1288.35,5866.63,15070.00,1005.00
510,873.69,1292.53,7894.20,18460.00,1034.00
512,874.01,1296.71,10966.28,22738.00,1041.00
514,874.33,1300.88,13688.71,25925.00,1016.00
516,874.65,1305.06,13269.41,25454.50,1053.50
518,874.97,1309.22,10165.56,21635.00,1040.00
520,875.29,1313.39,6980.36,17234.50,1060.00
522,875.60,1317.55,4856.34,13853.00,1052.50
524,875.92,1321.71,3931.69,12079.50,1050.00
526,876.24,1325.87,3442.54,11147.50,1078.00
528,876.56,1330.02,2913.85,10352.50,1043.50
530,876.88,1334.17,2737.32,10122.00,1068.50
532,877.20,1338.32,2843.82,10151.50,1030.50
534,877.52,1342.46,2876.32,10203.00,1029.50
536,877.84,1346.60,2809.57,10258.50,1055.00
538,878.16,1350.73,2863.53,10409.50,1033.50
540,878.47,1354.87,3238.92,10997.50,1046.50
542,878.79,1359.00,3585.62,11541.00,1046.50
544,879.11,1363.13,4123.59,12296.50,1049.50
546,879.43,1367.25,4426.51,12648.50,1027.50
548,879.75,1371.37,4248.90,12533.00,1038.00
550,880.07,1375.49,3781.58,12048.00,1030.00
552,880.39,1379.60,3636.03,11880.50,1057.00
554,880.71,1383.71,3789.07,12038.50,1053.00
556,881.03,1387.82,3896.16,12171.00,1037.00
558,881.34,1391.93,3943.49,12219.50,1019.50
560,881.66,1396.03,3946.54,12276.00,1031.00
562,881.98,1400.13,3821.47,12225.50,1059.00
564,882.30,1404.22,3763.07,12234.00,1062.50
566,882.62,1408.31,3871.54,12444.50,1030.50
568,882.94,1412.40,4358.65,13256.00,1051.00
570,883.26,1416.49,5068.34,14406.00,1033.00
572,883.57,1420.57,6123.47,16297.50,1064.50
574,883.89,1424.65,7720.51,19150.00,1022.00
576,884.21,1428.73,10813.48,23972.00,1079.00
578,884.53,1432.80,15781.21,30486.50,1087.50
580,884.85,1436.87,19436.46,35535.50,1043.00
582,885.17,1440.93,20439.65,38139.50,1023.00
584,885.49,1445.00,22163.94,40939.00,1031.50
586,885.80,1449.06,24725.40,43706.00,1032.50
588,886.12,1453.11,24828.11,43682.50,1086.50
590,886.44,1457.17,22503.62,40802.50,1073.00
592,886.76,1461.22,19645.88,36847.50,1055.00
594,887.08,1465.26,16749.64,32604.50,1082.00
596,887.40,1469.31,14285.73,28788.00,1028.50
598,887.71,1473.35,12177.17,25506.00,1034.00
600,888.03,1477.38,10255.76,22568.00,1055.00
602,888.35,1481.42,8551.82,19975.50,1076.50
604,888.67,1485.45,6992.72,17619.50,1054.00
606,888.99,1489.48,5526.16,15450.00,1030.00
608,889.31,1493.50,4519.16,13929.50,1057.00
610,889.62,1497.52,3659.72,12607.00,1043.00
612,889.94,1501.54,3006.88,11626.50,1017.00
614,890.26,1505.56,2553.05,10962.00,1046.50
616,890.58,1509.57,2323.78,10573.00,1038.00
618,890.90,1513.57,2007.87,10120.00,1032.00
620,891.21,1517.58,1819.96,9879.00,1046.50
622,891.53,1521.58,1661.51,9651.00,1044.00
624,891.85,1525.58,1491.16,9410.00,1047.50
626,892.17,1529.57,1290.02,9149.00,1056.00
628,892.49,1533.57,1126.29,8951.50,1066.50
630,892.80,1537.56,972.97,8713.50,1031.00
632,893.12,1541.54,807.72,8489.00,1032.00
634,893.44,1545.52,668.19,8334.50,1069.50
636,893.76,1549.50,493.97,8068.50,1020.00
638,894.07,1553.48,301.35,7867.50,1059.00
640,894.39,1557.45,175.97,7656.50,1035.00
642,894.71,1561.42,87.21,7476.50,1048.50
644,895.03,1565.39,55.94,7282.00,1016.00
646,895.34,1569.35,26.76,7201.00,1064.50
648,895.66,1573.31,0.00,6972.50,1040.50
650,895.98,1577.26,22.99,6899.00,1021.00
652,896.30,1581.22,0.33,6746.50,1014.00
654,896.61,1585.17,0.00,6611.50,1045.50
656,896.93,1589.11,0.00,6536.00,1062.00
658,897.25,1593.06,0.00,6405.00,1007.50
660,897.57,1597.00,0.00,6304.50,1042.50
662,897.88,1600.93,0.00,6245.50,1047.50
664,898.20,1604.87,0.00,6204.50,1049.50
666,898.52,1608.80,0.00,6121.00,1023.00
668,898.84,1612.72,0.00,6067.50,1013.00
670,899.15,1616.65,0.00,6077.50,1066.00
672,899.47,1620.57,0.00,5989.00,1023.00
674,899.79,1624.49,0.88,5957.50,1034.00
676,900.10,1628.40,0.00,5870.50,1018.00
678,900.42,1632.31,26.87,5918.00,1058.00
680,900.74,1636.22,4.88,5813.50,1004.50
682,901.05,1640.12,0.00,5837.50,1092.50
684,901.37,1644.02,2.33,5775.50,1040.00
686,901.69,1647.92,25.37,5769.00,1042.50
688,902.00,1651.82,86.73,5773.00,1034.00
690,902.32,1655.71,119.95,5762.50,1021.50
692,902.64,1659.60,156.68,5780.00,1023.00
694,902.95,1663.48,168.60,5764.00,1040.00
696,903.27,1667.36,219.71,5771.50,1032.50
698,903.59,1671.24,186.25,5746.00,1072.00
700,903.90,1675.11,193.19,5678.50,1039.00
702,904.22,1678.99,247.51,5676.00,1015.50
704,904.54,1682.85,255.23,5742.00,1100.00
706,904.85,1686.72,351.04,5755.50,1026.00
708,905.17,1690.58,412.68,5821.00,1042.50
710,905.49,1694.44,594.98,5983.50,1021.00
712,905.80,1698.29,776.16,6164.00,1031.00
714,906.12,1702.15,829.50,6233.00,1042.00
716,906.43,1706.00,963.03,6415.50,1051.50
718,906.75,1709.84,1121.19,6635.50,1079.00
720,907.07,1713.68,1413.92,6968.50,1025.00
722,907.38,1717.52,1867.36,7672.00,1046.00
724,907.70,1721.36,2692.24,8973.50,1044.50
726,908.01,1725.19,4270.65,11330.00,1048.00
728,908.33,1729.02,7274.23,15162.50,1066.50
730,908.65,1732.85,11761.95,19940.50,1045.50
732,908.96,1736.67,15054.42,23213.50,1061.50
734,909.28,1740.49,14638.43,22977.50,1033.00
736,909.59,1744.30,12130.26,20366.00,1059.00
738,909.91,1748.12,9014.00,16594.50,1039.50
740,910.22,1751.93,5836.01,12685.00,1057.00
742,910.54,1755.73,3429.95,9607.50,1116.50
744,910.85,1759.54,1993.93,7475.00,1063.00
746,911.17,1763.34,1217.47,6215.00,1033.00
748,911.49,1767.13,791.26,5536.00,1048.50
750,911.80,1770.93,524.02,5077.00,1026.50
752,912.12,1774.72,339.35,4794.00,1058.00
754,912.43,1778.50,294.00,4614.50,1007.50
756,912.75,1782.29,213.12,4473.00,1016.00
758,913.06,1786.07,118.77,4336.50,1018.00
760,913.38,1789.84,45.95,4219.00,1048.50
762,913.69,1793.62,57.86,4181.00,1056.00
764,914.01,1797.39,21.59,4084.00,1046.00
766,914.32,1801.15,11.22,4005.00,1023.50
768,914.64,1804.92,0.57,3928.00,1018.00
770,914.95,1808.68,0.00,3885.50,1053.00
772,915.26,1812.44,0.00,3823.00,1057.00
774,915.58,1816.19,0.00,3745.00,1011.00
776,915.89,1819.94,0.00,3722.50,1042.50
778,916.21,1823.69,0.79,3736.50,1048.50
780,916.52,1827.43,13.46,3744.00,1079.00
782,916.84,1831.17,0.00,3635.00,1016.00
784,917.15,1834.91,9.57,3608.50,1009.50
786,917.47,1838.64,20.57,3624.50,1037.00
788,917.78,1842.38,24.20,3595.00,1034.00
790,918.09,1846.10,51.30,3568.50,1020.00
792,918.41,1849.83,0.00,3501.00,1057.00
794,918.72,1853.55,39.86,3485.00,999.00
796,919.04,1857.27,19.49,3475.50,1037.00
798,919.35,1860.98,56.17,3474.50,1021.00
800,919.66,1864.69,52.13,3444.00,1035.00
802,919.98,1868.40,55.54,3436.50,1045.50
804,920.29,1872.11,73.68,3423.50,1038.50
806,920.60,1875.81,117.90,3424.50,1022.50
808,920.92,1879.51,96.77,3376.50,1023.00
810,921.23,1883.20,123.62,3419.00,1053.00
812,921.55,1886.90,130.42,3361.50,1017.00
814,921.86,1890.58,181.91,3418.50,1059.00
816,922.17,1894.27,160.92,3364.00,1058.00
818,922.49,1897.95,125.31,3295.00,1048.00
820,922.80,1901.63,129.58,3264.00,1034.00
822,923.11,1905.31,112.20,3222.00,1034.00
824,923.42,1908.98,112.77,3188.00,1034.00
826,923.74,1912.65,134.39,3200.50,1059.00
828,924.05,1916.31,110.94,3123.50,1028.50
830,924.36,1919.98,115.77,3093.00,1012.50
832,924.68,1923.64,131.66,3081.50,1015.00
834,924.99,1927.29,126.78,3050.50,1028.50
836,925.30,1930.94,162.18,3043.50,1006.50
838,925.61,1934.59,103.97,2995.00,1030.50
840,925.93,1938.24,120.95,2979.00,1030.50
842,926.24,1941.88,140.29,2964.00,1033.00
844,926.55,1945.52,122.08,2909.00,1014.50
846,926.86,1949.16,141.96,2920.00,1031.50
848,927.18,1952.79,128.74,2857.50,1010.50
850,927.49,1956.42,115.92,2839.50,1028.50
852,927.80,1960.05,127.30,2855.50,1061.50
854,928.11,1963.67,137.27,2803.50,1025.50
856,928.42,1967.29,123.42,2787.00,1052.00
858,928.74,1970.91,119.94,2734.50,1033.00
860,929.05,1974.52,78.68,2674.00,1032.00
862,929.36,1978.13,68.96,2638.00,1031.50
864,929.67,1981.74,103.25,2641.50,1035.00
866,929.98,1985.35,83.35,2604.50,1037.00
868,930.29,1988.95,61.55,2556.00,1037.00
870,930.61,1992.54,73.64,2517.00,1019.00
872,930.92,1996.14,75.26,2509.00,1027.50
874,931.23,1999.73,19.45,2458.50,1053.00
876,931.54,2003.32,15.12,2415.50,1042.00
878,931.85,2006.90,55.07,2409.50,1027.50
880,932.16,2010.48,64.86,2390.50,1024.00
882,932.47,2014.06,42.04,2355.50,1028.50
884,932.78,2017.63,44.88,2354.50,1050.00
886,933.09,2021.21,44.83,2311.50,1035.00
888,933.41,2024.77,22.04,2293.00,1061.00
890,933.72,2028.34,5.10,2272.50,1078.50
892,934.03,2031.90,0.49,2202.00,1039.00
894,934.34,2035.46,19.89,2213.00,1052.00
896,934.65,2039.01,0.00,2135.50,1022.00
898,934.96,2042.57,21.89,2160.00,1042.00
900,935.27,2046.11,0.00,2144.00,1081.00
902,935.58,2049.66,0.00,2044.00,997.00
904,935.89,2053.20,0.00,2070.50,1036.00
906,936.20,2056.74,4.35,2054.00,1029.00
908,936.51,2060.28,2.47,2043.50,1038.00
910,936.82,2063.81,26.52,2067.00,1051.00
912,937.13,2067.34,28.17,2034.50,1039.00
914,937.44,2070.86,55.07,2034.50,1033.00
916,937.75,2074.39,32.68,1981.50,1011.50
918,938.06,2077.91,37.23,1985.50,1025.50
920,938.37,2081.42,57.64,1987.00,1029.50
922,938.68,2084.94,89.27,1995.50,1028.50
924,938.99,2088.45,84.66,1969.00,1024.50
926,939.30,2091.95,82.02,1976.50,1052.00
928,939.60,2095.46,41.84,1910.00,1031.50
930,939.91,2098.96,13.59,1891.50,1061.00
932,940.22,2102.45,5.91,1851.50,1044.50
934,940.53,2105.95,0.00,1795.50,1014.50
936,940.84,2109.44,0.00,1787.00,1034.00
938,941.15,2112.92,5.52,1801.50,1035.00
940,941.46,2116.41,24.70,1783.00,1024.50
942,941.77,2119.89,34.37,1797.00,1043.00
944,942.07,2123.37,16.75,1759.00,1034.00
946,942.38,2126.84,37.66,1776.50,1048.50
948,942.69,2130.31,8.08,1749.00,1052.00
950,943.00,2133.78,0.00,1699.50,1039.00
952,943.31,2137.24,7.26,1707.00,1041.00
954,943.62,2140.70,0.00,1688.50,1044.50
956,943.92,2144.16,0.00,1656.50,1027.50
958,944.23,2147.62,6.50,1673.00,1043.00
960,944.54,2151.07,0.00,1653.00,1061.50
962,944.85,2154.52,0.00,1688.00,1081.00
964,945.16,2157.96,7.88,1670.00,1050.00
966,945.46,2161.40,33.20,1673.00,1043.50
968,945.77,2164.84,12.48,1611.00,1000.00
970,946.08,2168.28,37.84,1661.00,1026.50
972,946.39,2171.71,43.93,1675.50,1038.00
974,946.69,2175.14,79.52,1699.50,1033.00
976,947.00,2178.57,84.52,1701.50,1033.00
978,947.31,2181.99,127.37,1719.50,1014.00
980,947.61,2185.41,173.40,1774.00,1034.00
982,947.92,2188.82,171.61,1779.50,1045.00
984,948.23,2192.24,186.16,1756.50,1006.50
986,948.53,2195.65,202.92,1805.00,1035.00
988,948.84,2199.05,206.65,1749.50,984.00
990,949.15,2202.46,227.76,1806.00,1034.00
992,949.45,2205.86,210.10,1784.00,1029.50
994,949.76,2209.25,224.43,1767.00,1003.00
996,950.07,2212.65,151.50,1731.50,1030.50
998,950.37,2216.04,129.08,1697.50,1010.50
1000,950.68,2219.43,98.93,1693.00,1036.00
1002,950.98,2222.81,102.44,1689.50,1042.00
1004,951.29,2226.19,113.26,1677.50,1021.00
1006,951.60,2229.57,57.37,1623.50,1011.50
1008,951.90,2232.94,106.74,1650.50,999.00
1010,952.21,2236.32,101.11,1660.00,1023.50
1012,952.51,2239.68,100.60,1667.50,1032.50
1014,952.82,2243.05,88.53,1632.50,1006.50
1016,953.12,2246.41,106.63,1700.00,1063.00
1018,953.43,2249.77,118.39,1734.50,1095.00
1020,953.73,2253.12,112.24,1692.00,1057.00
1022,954.04,2256.48,104.69,1638.00,1008.50
1024,954.34,2259.83,136.96,1700.50,1049.00
1026,954.65,2263.17,135.55,1663.50,1018.00
1028,954.95,2266.51,133.52,1681.50,1039.00
1030,955.26,2269.85,124.57,1700.00,1068.00
1032,955.56,2273.19,141.75,1689.00,1045.50
1034,955.87,2276.52,108.15,1665.50,1051.00
1036,956.17,2279.85,126.30,1688.50,1059.00
1038,956.48,2283.18,87.57,1608.00,1016.00
1040,956.78,2286.50,109.61,1623.50,1018.00
1042,957.08,2289.82,97.33,1600.00,1001.00
1044,957.39,2293.14,103.18,1642.50,1045.00
1046,957.69,2296.45,135.69,1617.00,1006.50
1048,957.99,2299.76,72.85,1638.00,1070.00
1050,958.30,2303.07,61.68,1612.00,1050.50
1052,958.60,2306.38,95.80,1601.50,1022.00
1054,958.91,2309.68,59.13,1578.50,1030.50
1056,959.21,2312.98,41.86,1541.00,1007.50
1058,959.51,2316.27,58.06,1574.50,1026.00
1060,959.82,2319.56,11.41,1575.50,1068.50
1062,960.12,2322.85,54.06,1560.50,1024.50
1064,960.42,2326.14,64.38,1552.50,1020.00
1066,960.72,2329.42,33.94,1548.00,1035.00
1068,961.03,2332.70,44.45,1562.00,1042.00
1070,961.33,2335.97,17.94,1539.00,1033.00
1072,961.63,2339.25,3.50,1516.00,1028.00
1074,961.93,2342.52,10.11,1522.00,1032.00
1076,962.24,2345.78,15.01,1521.00,1034.00
1078,962.54,2349.05,17.02,1515.50,1024.00
1080,962.84,2352.31,0.00,1503.00,1035.00
1082,963.14,2355.56,0.00,1490.00,1020.00
1084,963.45,2358.82,28.40,1507.00,1013.50
1086,963.75,2362.07,0.00,1510.50,1037.00
1088,964.05,2365.32,0.00,1545.50,1072.00
1090,964.35,2368.56,0.00,1524.00,1050.00
1092,964.65,2371.80,0.00,1531.50,1056.00
1094,964.95,2375.04,13.53,1526.50,1031.00
1096,965.25,2378.27,58.48,1543.00,1021.50
1098,965.56,2381.51,12.11,1547.50,1049.00
1100,965.86,2384.73,37.52,1565.50,1035.00
1102,966.16,2387.96,78.25,1576.00,1025.00
1104,966.46,2391.18,92.82,1617.50,1058.00
1106,966.76,2394.40,92.87,1592.00,1024.00
1108,967.06,2397.62,121.38,1648.00,1059.00
1110,967.36,2400.83,123.84,1611.00,1016.00
1112,967.66,2404.04,145.34,1682.50,1071.50
1114,967.96,2407.25,178.04,1635.00,1005.50
1116,968.26,2410.45,147.04,1655.00,1041.00
1118,968.56,2413.65,138.74,1633.00,1020.00
1120,968.86,2416.85,141.78,1681.50,1064.50
1122,969.16,2420.04,122.74,1636.00,1028.50
1124,969.46,2423.23,140.84,1639.50,1017.00
1126,969.76,2426.42,123.90,1655.00,1044.00
1128,970.06,2429.60,155.20,1625.50,995.00
1130,970.36,2432.79,147.11,1656.50,1024.50
1132,970.66,2435.96,94.39,1625.50,1023.00
1134,970.96,2439.14,130.55,1654.00,1033.00
1136,971.26,2442.31,165.56,1688.00,1048.50
1138,971.56,2445.48,140.27,1667.00,1032.50
1140,971.86,2448.65,116.63,1652.00,1025.50
1142,972.16,2451.81,144.94,1689.00,1045.50
1144,972.45,2454.97,180.84,1696.50,1036.00
1146,972.75,2458.13,168.72,1696.00,1039.00
1148,973.05,2461.28,143.07,1672.00,1029.50
1150,973.35,2464.43,181.91,1700.50,1038.50
1152,973.65,2467.58,220.60,1722.00,1033.00
1154,973.95,2470.72,131.62,1681.50,1037.00
1156,974.24,2473.86,165.40,1695.50,1029.50
1158,974.54,2477.00,160.06,1672.00,1016.00
1160,974.84,2480.13,120.61,1685.50,1050.00
1162,975.14,2483.27,107.44,1663.50,1031.00
1164,975.43,2486.40,114.66,1647.50,1011.50
1166,975.73,2489.52,137.68,1674.00,1027.50
1168,976.03,2492.64,124.11,1671.00,1030.00
1170,976.33,2495.76,115.22,1672.00,1035.00
1172,976.62,2498.88,72.34,1628.50,1017.50
1174,976.92,2501.99,62.41,1663.50,1053.00
1176,977.22,2505.10,42.23,1642.00,1041.50
1178,977.51,2508.21,18.30,1620.50,1035.00
1180,977.81,2511.31,13.53,1622.00,1031.50
1182,978.11,2514.41,0.00,1603.00,1031.00
1184,978.40,2517.51,7.81,1625.50,1038.00
1186,978.70,2520.61,0.00,1619.50,1040.00
1188,979.00,2523.70,41.79,1673.00,1052.50
1190,979.29,2526.79,24.11,1636.50,1027.50
1192,979.59,2529.87,69.04,1677.00,1038.50
1194,979.88,2532.95,120.45,1679.00,1016.00
1196,980.18,2536.03,125.75,1715.50,1051.00
1198,980.48,2539.11,102.41,1718.50,1061.50
1200,980.77,2542.18,44.38,1680.50,1036.00
1202,981.07,2545.25,0.00,1678.00,1069.00
1204,981.36,2548.32,0.00,1653.00,1033.50
1206,981.66,2551.38,0.00,1685.50,1065.50
1208,981.95,2554.44,0.00,1662.50,1042.00
1210,982.25,2557.50,4.85,1731.00,1069.00
1212,982.54,2560.56,50.46,1760.50,1065.50
1214,982.84,2563.61,41.00,1778.50,1088.50
1216,983.13,2566.66,72.44,1782.50,1064.50
1218,983.43,2569.70,111.04,1808.00,1059.50
1220,983.72,2572.74,179.78,1856.00,1061.50
1222,984.01,2575.78,188.11,1859.00,1045.50
1224,984.31,2578.82,247.92,1887.50,1027.00
1226,984.60,2581.85,270.03,1943.50,1062.50
1228,984.90,2584.88,355.12,1956.50,1022.50
1230,985.19,2587.91,447.85,2033.00,1046.50
1232,985.48,2590.93,530.26,2102.50,1069.50
1234,985.78,2593.96,661.00,2165.00,1060.00
1236,986.07,2596.97,707.54,2191.00,1059.00
1238,986.36,2599.99,750.10,2233.00,1074.00
1240,986.66,2603.00,687.08,2214.00,1075.00
1242,986.95,2606.01,690.39,2225.50,1079.00
1244,987.24,2609.01,638.59,2195.00,1067.00
1246,987.54,2612.02,497.67,2079.00,1005.50
1248,987.83,2615.02,391.36,2097.00,1065.50
1250,988.12,2618.01,378.58,2085.00,1058.50
1252,988.41,2621.01,285.52,2030.00,1050.00
1254,988.71,2624.00,209.60,1989.00,1025.50
1256,989.00,2626.99,61.29,1984.50,1069.50
1258,989.29,2629.97,13.43,1954.00,1063.50
1260,989.58,2632.95,13.69,1953.00,1053.00
1262,989.87,2635.93,0.00,1949.00,1072.00
1264,990.16,2638.91,0.09,1942.50,1045.00
1266,990.46,2641.88,87.27,2000.50,1066.50
1268,990.75,2644.85,24.60,2034.50,1100.50
1270,991.04,2647.81,0.00,1971.00,1049.00
1272,991.33,2650.78,0.00,1965.00,1062.50
1274,991.62,2653.74,0.00,1999.50,1063.50
1276,991.91,2656.70,3.35,2029.00,1043.50
1278,992.20,2659.65,33.37,2083.50,1070.50
1280,992.49,2662.60,234.89,2150.00,1038.00
1282,992.78,2665.55,382.21,2266.50,1095.00
1284,993.07,2668.50,553.64,2339.50,1086.50
1286,993.36,2671.44,529.76,2330.50,1066.50
1288,993.65,2674.38,559.17,2380.00,1079.00
1290,993.94,2677.31,406.02,2330.00,1065.50
1292,994.23,2680.25,393.34,2351.50,1063.00
1294,994.52,2683.18,387.48,2370.50,1063.50
1296,994.81,2686.10,533.08,2440.00,1054.00
1298,995.10,2689.03,795.98,2564.00,1063.00
1300,995.39,2691.95,1101.04,2677.50,1055.00
1302,995.68,2694.87,1380.67,2823.50,1090.00
1304,995.97,2697.78,1632.96,2936.50,1085.50
1306,996.26,2700.70,1670.86,2941.00,1040.00
1308,996.55,2703.61,1854.97,3068.50,1060.00
1310,996.84,2706.51,2123.16,3212.50,1076.50
1312,997.13,2709.42,2484.28,3359.00,1069.00
1314,997.41,2712.32,3039.84,3592.50,1082.50
1316,997.70,2715.21,3530.50,3757.50,1059.00
1318,997.99,2718.11,4070.29,3962.50,1056.00
1320,998.28,2721.00,4649.31,4162.50,1042.50
1322,998.57,2723.89,5132.64,4394.00,1088.00
1324,998.86,2726.77,5305.69,4440.00,1046.50
1326,999.14,2729.66,5661.78,4615.00,1065.50
1328,999.43,2732.54,5887.39,4696.00,1065.50
1330,999.72,2735.41,6126.07,4740.00,1060.00
1332,1000.01,2738.29,6405.80,4811.50,1083.50
1334,1000.29,2741.16,6167.90,4696.50,1071.00
1336,1000.58,2744.03,5534.76,4460.00,1033.00
1338,1000.87,2746.89,4640.69,4223.50,1085.50
1340,1001.15,2749.75,3817.82,3910.00,1056.00
1342,1001.44,2752.61,3167.38,3680.50,1062.00
1344,1001.73,2755.47,2635.22,3472.00,1042.50
1346,1002.01,2758.32,2156.65,3311.50,1051.00
1348,1002.30,2761.17,1861.30,3226.00,1080.00
1350,1002.59,2764.02,1757.91,3192.50,1098.00
1352,1002.87,2766.86,1804.24,3169.00,1068.50
1354,1003.16,2769.70,1764.11,3132.00,1049.50
1356,1003.44,2772.54,1575.52,3049.50,1030.50
1358,1003.73,2775.38,1465.11,3034.50,1053.50
1360,1004.01,2778.21,1366.56,2986.00,1036.00
1362,1004.30,2781.04,1080.45,2919.00,1058.50
1364,1004.58,2783.87,857.05,2840.50,1056.00
1366,1004.87,2786.69,716.07,2762.50,1027.50
1368,1005.15,2789.51,426.76,2736.00,1069.00
1370,1005.44,2792.33,98.25,2667.00,1073.00
1372,1005.72,2795.14,4.50,2623.00,1072.00
1374,1006.01,2797.95,0.00,2588.00,1079.50
1376,1006.29,2800.76,0.00,2561.50,1052.00
1378,1006.58,2803.57,0.00,2606.00,1095.00
1380,1006.86,2806.37,0.00,2579.50,1041.00
1382,1007.14,2809.17,0.00,2617.00,1044.00
1384,1007.43,2811.97,0.00,2689.50,1036.00
1386,1007.71,2814.77,0.00,2760.50,1038.00
1388,1008.00,2817.56,0.00,2860.50,1044.50
1390,1008.28,2820.35,0.00,3042.00,1073.00
1392,1008.56,2823.13,43.51,3211.50,1051.00
1394,1008.85,2825.91,295.53,3406.00,1079.50
1396,1009.13,2828.69,1090.13,3667.00,1057.00
1398,1009.41,2831.47,1963.64,3955.00,1072.00
1400,1009.69,2834.24,3121.59,4308.00,1027.00
1402,1009.98,2837.02,4708.03,4896.50,1057.00
1404,1010.26,2839.78,6578.66,5543.50,1076.50
1406,1010.54,2842.55,9741.52,6440.00,1036.00
1408,1010.82,2845.31,13849.74,7545.50,1074.00
1410,1011.11,2848.07,18401.52,8680.00,1072.00
1412,1011.39,2850.83,21709.56,9626.50,1079.50
1414,1011.67,2853.58,23305.25,10313.50,1064.00
1416,1011.95,2856.33,25492.15,11291.50,1075.00
1418,1012.23,2859.08,29838.53,12746.00,1062.50
1420,1012.51,2861.83,37782.95,14938.00,1055.00
1422,1012.80,2864.57,49904.04,18015.50,1114.00
1424,1013.08,2867.31,63406.15,21187.00,1098.50
1426,1013.36,2870.04,75240.69,23897.50,1088.50
1428,1013.64,2872.78,85135.30,26034.00,1082.00
1430,1013.92,2875.51,91589.77,27318.50,1109.00
1432,1014.20,2878.24,89771.22,26854.50,1078.00
1434,1014.48,2880.96,80896.57,25121.50,1064.50
1436,1014.76,2883.68,70134.43,22896.50,1050.50
1438,1015.04,2886.40,63559.35,21384.00,1055.00
1440,1015.32,2889.12,62000.82,20843.50,1083.50
1442,1015.60,2891.83,64131.47,21026.50,1056.00
1444,1015.88,2894.54,68784.32,21876.50,1083.00
1446,1016.16,2897.25,74494.08,22973.50,1036.00
1448,1016.44,2899.96,80223.67,24259.00,1080.00
1450,1016.72,2902.66,85871.76,25536.50,1074.00
1452,1017.00,2905.36,91303.06,26779.00,1112.00
1454,1017.28,2908.06,97623.31,28058.50,1070.50
1456,1017.55,2910.75,102894.69,29055.50,1102.50
1458,1017.83,2913.44,106853.87,29641.00,1047.00
1460,1018.11,2916.13,109432.51,30114.50,1088.00
1462,1018.39,2918.81,108075.82,29807.00,1083.50
1464,1018.67,2921.49,106235.95,29553.50,1078.50
1466,1018.95,2924.17,104580.30,29426.00,1067.00
1468,1019.22,2926.85,105851.82,29982.50,1080.50
1470,1019.50,2929.52,112843.10,31556.50,1062.00
1472,1019.78,2932.20,127457.08,34234.00,1045.50
1474,1020.06,2934.86,148836.28,37641.00,1066.50
1476,1020.33,2937.53,168551.15,40383.00,1105.50
1478,1020.61,2940.19,173180.38,40632.00,1083.50
1480,1020.89,2942.85,159601.75,38282.50,1090.50
1482,1021.17,2945.51,135384.42,34035.00,1066.50
1484,1021.44,2948.16,113566.75,29865.50,1081.50
1486,1021.72,2950.81,98019.47,26463.00,1070.00
1488,1022.00,2953.46,87222.11,23844.50,1102.50
1490,1022.27,2956.11,80694.04,21993.00,1060.00
1492,1022.55,2958.75,76991.84,20810.50,1099.50
1494,1022.82,2961.39,75230.60,19998.50,1076.00
1496,1023.10,2964.03,72844.45,19198.00,1108.00
1498,1023.38,2966.66,69323.50,18245.50,1066.50
1500,1023.65,2969.29,63727.22,17076.00,1085.50
1502,1023.93,2971.92,56889.26,15709.00,1097.00
1504,1024.20,2974.55,50091.35,14314.50,1082.50
1506,1024.48,2977.17,44003.42,13066.50,1087.50
1508,1024.75,2979.79,38112.35,11803.50,1052.00
1510,1025.03,2982.41,33063.63,10731.50,1065.50
1512,1025.30,2985.02,29637.32,9944.50,1050.00
1514,1025.58,2987.63,25837.31,9161.00,1084.50
1516,1025.85,2990.24,22701.56,8473.50,1051.00
1518,1026.13,2992.85,19901.98,7923.00,1087.00
1520,1026.40,2995.45,17631.57,7431.50,1075.00
1522,1026.68,2998.05,15006.05,6891.50,1064.50
1524,1026.95,3000.65,12992.30,6508.50,1080.50
1526,1027.22,3003.25,10920.78,6090.50,1064.50
1528,1027.50,3005.84,9290.15,5761.00,1047.50
1530,1027.77,3008.43,7690.34,5468.50,1067.00
1532,1028.04,3011.02,6527.96,5232.50,1073.50
1534,1028.32,3013.60,5673.89,5035.00,1061.00
1536,1028.59,3016.18,4788.09,4885.00,1078.50
1538,1028.86,3018.76,3725.46,4647.00,1024.00
1540,1029.14,3021.34,2722.66,4484.50,1072.00
1542,1029.41,3023.91,2052.61,4278.50,1050.00
1544,1029.68,3026.48,1586.49,4112.50,1037.00
1546,1029.95,3029.05,913.87,3941.00,1062.00
1548,1030.22,3031.61,248.18,3719.50,1054.50
1550,1030.50,3034.17,46.23,3567.50,1056.00
1552,1030.77,3036.73,0.00,3379.50,1059.00
1554,1031.04,3039.29,0.00,3276.00,1076.00
1556,1031.31,3041.84,0.00,3124.50,1034.00
1558,1031.58,3044.39,0.00,3077.00,1097.00
1560,1031.85,3046.94,0.00,2929.00,1098.00
1562,1032.13,3049.49,0.00,2791.00,1054.50
1564,1032.40,3052.03,0.00,2753.50,1085.50
1566,1032.67,3054.57,0.00,2647.00,1048.50
1568,1032.94,3057.11,0.02,2630.50,1096.50
1570,1033.21,3059.64,0.00,2476.00,1045.50
1572,1033.48,3062.18,0.00,2439.50,1077.50
1574,1033.75,3064.70,0.00,2387.50,1080.50
1576,1034.02,3067.23,0.00,2350.50,1080.00
1578,1034.29,3069.75,0.00,2245.50,1033.00
1580,1034.56,3072.28,0.00,2221.50,1074.00
1582,1034.83,3074.79,3.72,2162.00,1033.50
1584,1035.10,3077.31,9.54,2159.00,1074.50
1586,1035.37,3079.82,0.00,2083.00,1055.00
1588,1035.64,3082.33,0.00,2084.00,1103.50
1590,1035.91,3084.84,95.17,2055.00,1078.00
1592,1036.17,3087.34,0.00,1975.00,1057.00
1594,1036.44,3089.85,0.00,1992.50,1099.50
1596,1036.71,3092.35,0.00,1921.50,1058.00
1598,1036.98,3094.84,21.71,1898.00,1043.00
1600,1037.25,3097.34,125.33,1876.00,1036.00
1602,1037.52,3099.83,146.90,1875.00,1056.00
1604,1037.78,3102.32,165.28,1861.50,1059.00
1606,1038.05,3104.80,0.00,1843.50,1092.00
1608,1038.32,3107.29,86.48,1806.50,1060.00
1610,1038.59,3109.77,95.26,1777.50,1053.50
1612,1038.85,3112.24,0.00,1745.00,1061.00
1614,1039.12,3114.72,215.14,1777.50,1086.50
1616,1039.39,3117.19,77.79,1688.50,1030.00
1618,1039.66,3119.66,0.00,1703.50,1083.50
1620,1039.92,3122.13,0.00,1690.00,1088.50
1622,1040.19,3124.59,0.00,1667.50,1075.00
1624,1040.45,3127.05,156.30,1638.50,1043.50
1626,1040.72,3129.51,215.96,1650.00,1065.50
1628,1040.99,3131.97,28.64,1638.00,1084.50
1630,1041.25,3134.42,0.00,1630.50,1099.50
1632,1041.52,3136.87,167.86,1579.00,1036.00
1634,1041.78,3139.32,0.00,1572.50,1069.50
1636,1042.05,3141.77,0.00,1647.00,1148.00
1638,1042.32,3144.21,2.20,1549.00,1056.00
1640,1042.58,3146.65,0.00,1582.00,1100.50
1642,1042.85,3149.09,46.19,1564.00,1082.50
1644,1043.11,3151.52,160.08,1546.00,1061.00
1646,1043.38,3153.96,68.68,1556.50,1086.00
1648,1043.64,3156.39,65.54,1523.00,1058.00
1650,1043.90,3158.81,87.41,1526.50,1065.50
1652,1044.17,3161.24,154.02,1540.50,1081.00
1654,1044.43,3163.66,12.04,1487.00,1046.50
1656,1044.70,3166.08,68.14,1553.50,1112.00
1658,1044.96,3168.49,0.00,1499.50,1079.00
1660,1045.22,3170.91,106.32,1487.50,1052.50
1662,1045.49,3173.32,75.60,1496.50,1068.50
1664,1045.75,3175.73,23.46,1498.00,1080.00
1666,1046.01,3178.13,224.07,1504.00,1063.50
1668,1046.28,3180.54,388.08,1527.00,1084.50
1670,1046.54,3182.94,484.12,1528.00,1086.00
1672,1046.80,3185.34,241.76,1499.00,1080.50
1674,1047.07,3187.73,449.04,1486.00,1052.50
1676,1047.33,3190.12,431.39,1496.50,1069.00
1678,1047.59,3192.51,308.54,1493.50,1078.00
1680,1047.85,3194.90,268.60,1533.50,1123.50
1682,1048.11,3197.29,426.14,1518.50,1100.00
1684,1048.38,3199.67,392.51,1486.50,1082.50
1686,1048.64,3202.05,819.75,1532.50,1097.50
1688,1048.90,3204.43,317.49,1478.50,1085.50
1690,1049.16,3206.80,636.38,1487.00,1064.50
1692,1049.42,3209.17,599.40,1505.00,1094.50
1694,1049.68,3211.54,843.23,1482.50,1058.00
1696,1049.94,3213.91,968.62,1497.50,1068.50
1698,1050.20,3216.27,1029.58,1502.00,1075.00
1700,1050.46,3218.63,985.49,1531.50,1113.50
1702,1050.72,3220.99,1074.43,1499.00,1075.00
1704,1050.98,3223.35,1026.55,1511.00,1090.50
1706,1051.24,3225.70,894.37,1477.50,1072.00
1708,1051.50,3228.05,989.06,1457.50,1052.00
1710,1051.76,3230.40,1244.39,1524.00,1105.00
1712,1052.02,3232.75,1016.60,1478.00,1079.50
1714,1052.28,3235.09,834.03,1494.50,1114.00
1716,1052.54,3237.43,1256.03,1476.50,1069.00
1718,1052.80,3239.77,1177.00,1466.00,1069.50
1720,1053.06,3242.11,1347.91,1481.00,1073.00
1722,1053.32,3244.44,1201.35,1444.50,1052.00
1724,1053.58,3246.77,1560.26,1528.00,1116.00
1726,1053.84,3249.10,1555.66,1479.00,1072.50
1728,1054.10,3251.42,1330.41,1474.50,1085.50
1730,1054.35,3253.75,1348.75,1460.50,1073.00
1732,1054.61,3256.07,1647.28,1506.50,1103.50
1734,1054.87,3258.39,1281.36,1447.50,1077.00
1736,1055.13,3260.70,1648.23,1457.50,1065.50
1738,1055.38,3263.01,1621.81,1452.00,1065.50
1740,1055.64,3265.32,1395.21,1445.50,1079.00
1742,1055.90,3267.63,1616.01,1424.50,1047.50
1744,1056.16,3269.94,1701.62,1485.00,1105.00
1746,1056.41,3272.24,1406.88,1481.50,1123.50
1748,1056.67,3274.54,1446.71,1456.50,1100.00
1750,1056.93,3276.84,1659.29,1450.00,1086.00
1752,1057.18,3279.13,1479.10,1420.50,1073.00
1754,1057.44,3281.42,1538.62,1412.00,1062.00
1756,1057.69,3283.71,1497.10,1409.00,1063.50
1758,1057.95,3286.00,1502.93,1460.00,1119.50
1760,1058.21,3288.28,1619.66,1411.00,1070.00
1762,1058.46,3290.57,1870.09,1445.50,1094.00
1764,1058.72,3292.85,1421.27,1407.00,1085.50
1766,1058.97,3295.12,1705.71,1389.00,1052.00
1768,1059.23,3297.40,1509.87,1388.00,1064.50
1770,1059.48,3299.67,1556.18,1425.00,1101.50
1772,1059.74,3301.94,1617.14,1363.00,1040.50
1774,1059.99,3304.21,1701.81,1413.50,1091.00
1776,1060.25,3306.47,1932.43,1434.00,1104.00
1778,1060.50,3308.73,1870.65,1387.50,1067.00
1780,1060.76,3310.99,2021.96,1390.00,1064.00
1782,1061.01,3313.25,1548.97,1378.50,1079.50
1784,1061.26,3315.50,1494.37,1368.00,1074.00
1786,1061.52,3317.76,1446.15,1396.00,1108.00
1788,1061.77,3320.01,1304.68,1385.00,1108.00
1790,1062.02,3322.25,1440.13,1343.50,1062.50
1792,1062.28,3324.50,1647.59,1364.50,1077.00
1794,1062.53,3326.74,1372.94,1324.00,1055.00
1796,1062.78,3328.98,1420.14,1347.50,1078.00
1798,1063.04,3331.22,1260.71,1325.50,1065.50
1800,1063.29,3333.45,1284.74,1332.50,1073.00
1802,1063.54,3335.68,1263.06,1336.00,1081.00
1804,1063.79,3337.91,1338.57,1345.50,1091.00
1806,1064.05,3340.14,1759.52,1388.50,1118.00
1808,1064.30,3342.36,1285.67,1300.00,1057.50
1810,1064.55,3344.59,1802.33,1349.00,1085.50
1812,1064.80,3346.81,1620.69,1317.50,1062.00
1814,1065.05,3349.02,881.61,1289.50,1070.00
1816,1065.30,3351.24,1335.77,1341.50,1102.50
1818,1065.55,3353.45,1438.89,1306.00,1067.50
1820,1065.81,3355.66,1351.07,1356.00,1124.50
1822,1066.06,3357.87,1123.68,1297.00,1077.00
1824,1066.31,3360.07,1311.14,1276.00,1049.00
1826,1066.56,3362.27,1404.97,1317.00,1089.50
1828,1066.81,3364.47,1535.82,1286.00,1057.00
1830,1067.06,3366.67,1568.36,1296.50,1069.00
1832,1067.31,3368.87,1508.31,1291.00,1067.50
1834,1067.56,3371.06,1636.63,1254.00,1026.50
1836,1067.81,3373.25,1226.92,1253.50,1046.50
1838,1068.06,3375.44,1616.25,1269.50,1048.50
1840,1068.31,3377.62,1446.38,1269.50,1059.00
1842,1068.56,3379.81,1724.21,1258.50,1040.00
1844,1068.80,3381.99,1606.27,1318.00,1105.50
1846,1069.05,3384.16,1251.88,1282.00,1084.00
1848,1069.30,3386.34,1482.35,1262.00,1056.00
1850,1069.55,3388.51,1571.77,1261.00,1056.00
1852,1069.80,3390.68,1438.00,1269.50,1074.00
1854,1070.05,3392.85,1686.01,1319.00,1116.00
1856,1070.30,3395.02,1278.79,1254.00,1068.00
1858,1070.54,3397.18,1519.94,1235.00,1042.00
1860,1070.79,3399.34,1657.66,1265.00,1070.00
1862,1071.04,3401.50,1214.51,1234.50,1058.00
1864,1071.29,3403.66,1563.50,1214.50,1025.50
1866,1071.53,3405.81,1259.83,1260.00,1082.50
1868,1071.78,3407.96,980.57,1233.50,1068.00
1870,1072.03,3410.11,1408.44,1245.50,1067.00
1872,1072.27,3412.26,1054.02,1237.50,1077.00
1874,1072.52,3414.40,1919.84,1235.50,1050.00
1876,1072.77,3416.54,1368.65,1227.00,1060.00
1878,1073.01,3418.68,1045.13,1246.00,1089.00
1880,1073.26,3420.82,1009.47,1176.50,1021.00
1882,1073.51,3422.96,1335.40,1240.00,1075.00
1884,1073.75,3425.09,927.61,1221.00,1074.00
1886,1074.00,3427.22,1302.76,1194.50,1038.00
1888,1074.24,3429.35,1242.17,1246.00,1092.50
1890,1074.49,3431.47,1235.36,1211.00,1058.00
1892,1074.73,3433.59,1030.41,1188.00,1044.00
1894,1074.98,3435.71,1117.91,1246.00,1102.50
1896,1075.22,3437.83,1477.02,1220.00,1068.00
1898,1075.47,3439.95,1387.65,1227.00,1078.00
1900,1075.71,3442.06,1287.40,1230.50,1083.50
1902,1075.96,3444.17,894.79,1206.00,1072.00
1904,1076.20,3446.28,1307.38,1146.00,1001.00
1906,1076.44,3448.38,1373.88,1246.00,1104.00
1908,1076.69,3450.49,1382.61,1222.50,1083.50
1910,1076.93,3452.59,828.98,1199.50,1077.00
1912,1077.17,3454.69,1347.86,1187.00,1050.50
1914,1077.42,3456.79,1401.18,1197.50,1062.00
1916,1077.66,3458.88,1654.16,1188.00,1047.50
1918,1077.90,3460.97,1290.72,1170.00,1039.00
1920,1078.15,3463.06,722.47,1205.00,1090.00
1922,1078.39,3465.15,804.81,1190.50,1074.00
1924,1078.63,3467.23,529.75,1137.00,1031.00
1926,1078.87,3469.32,1059.00,1203.00,1084.50
1928,1079.12,3471.40,869.94,1170.00,1057.00
1930,1079.36,3473.47,626.35,1242.50,1136.50
1932,1079.60,3475.55,712.69,1153.00,1046.50
1934,1079.84,3477.62,1358.34,1194.50,1075.00
1936,1080.08,3479.69,1511.99,1169.50,1048.50
1938,1080.33,3481.76,1463.24,1157.50,1036.00
1940,1080.57,3483.83,601.56,1172.00,1073.00
1942,1080.81,3485.89,1318.80,1177.00,1062.50
1944,1081.05,3487.95,1072.21,1197.00,1093.00
1946,1081.29,3490.01,988.46,1176.50,1075.00
1948,1081.53,3492.07,250.25,1138.50,1053.00
1950,1081.77,3494.12,446.78,1149.00,1056.00
1952,1082.01,3496.18,564.53,1181.00,1083.50
1954,1082.25,3498.23,327.54,1133.00,1046.50
1956,1082.49,3500.27,205.97,1157.50,1077.00
1958,1082.73,3502.32,1076.72,1138.50,1040.00
1960,1082.97,3504.36,709.75,1173.50,1085.50
1962,1083.21,3506.40,767.11,1136.50,1049.00
1964,1083.45,3508.44,1688.43,1140.50,1035.00
1966,1083.69,3510.48,824.88,1204.00,1114.50
1968,1083.93,3512.51,787.55,1173.50,1083.00
1970,1084.16,3514.54,445.44,1137.00,1055.50
1972,1084.40,3516.57,1135.06,1147.00,1049.00
1974,1084.64,3518.60,1014.52,1128.00,1038.00
1976,1084.88,3520.62,1705.90,1175.50,1077.00
1978,1085.12,3522.65,1529.09,1178.50,1085.50
1980,1085.36,3524.67,934.11,1150.00,1066.50
1982,1085.59,3526.68,1080.74,1132.00,1042.50
1984,1085.83,3528.70,0.00,1159.50,1096.50
1986,1086.07,3530.71,567.31,1130.00,1053.00
1988,1086.31,3532.72,829.05,1161.50,1081.50
1990,1086.54,3534.73,1068.90,1124.00,1042.00
1992,1086.78,3536.74,1405.46,1189.00,1101.50
1994,1087.02,3538.74,81.02,1136.00,1074.00
1996,1087.25,3540.74,1290.84,1124.50,1039.50
1998,1087.49,3542.74,948.18,1142.50,1064.50
2000,1087.73,3544.74,947.33,1139.00,1061.00
2002,1087.96,3546.74,632.78,1134.50,1064.00
2004,1088.20,3548.73,1140.83,1166.00,1088.50
2006,1088.43,3550.72,1738.20,1151.00,1066.50
2008,1088.67,3552.71,1065.71,1129.00,1056.00
2010,1088.90,3554.69,1421.48,1105.50,1025.00
2012,1089.14,3556.68,836.90,1138.50,1065.50
2014,1089.38,3558.66,329.99,1105.50,1042.50
2016,1089.61,3560.64,333.20,1113.00,1050.50
2018,1089.84,3562.62,458.99,1134.00,1071.00
2020,1090.08,3564.59,1271.24,1123.50,1049.50
2022,1090.31,3566.56,1650.12,1115.00,1038.00
2024,1090.55,3568.53,661.46,1106.50,1044.50
2026,1090.78,3570.50,1616.94,1104.50,1026.00
2028,1091.02,3572.47,890.81,1095.00,1029.00
2030,1091.25,3574.43,669.55,1088.50,1027.50
2032,1091.48,3576.39,1307.50,1065.00,995.00
2034,1091.72,3578.35,584.36,1067.50,1008.50
2036,1091.95,3580.31,522.70,1094.00,1036.00
2038,1092.18,3582.26,294.69,1059.50,1006.50
2040,1092.42,3584.22,1145.80,1058.00,995.50
2042,1092.65,3586.17,844.79,1073.00,1014.00
2044,1092.88,3588.12,258.22,1055.00,1001.00
2046,1093.11,3590.06,0.00,1048.50,1004.50
2047,1093.23,3591.03,7.87,1033.50,984.00