File: enlighten/plugins/Raman/MatchingLibrary/785X/polystyrene.csv
ENLIGHTEN Version,4.1.22
Measurement ID,20250220-202154-413142-WP-01977
Serial Number,WP-01977
Model,WP-785X-F13-R-ILC
Detector,S16011-1106
Label,polystyrene
Declared Match,
Declared Score,0
Scan Averaging,6
Boxcar,0
Technique,Raman
Baseline Correction Algo,AirPLS
ROI Pixel Start,47
ROI Pixel End,2047
ROI Start Line,0
ROI Stop Line,63
CCD C4,1.38617e-12
Slit Width,25
Cropped,True
Interpolated,False
Wavenumber Correction,-0.100481
Raman Intensity Corrected,True
Deconvolved,True
Region,
High Gain Mode,False
Laser Power mW,
Electrical Dark Correction,False
Battery %,
Device ID,<DeviceID USB:0x24aa:0x1000:0:1>
FW Version,10.0.0.10
FPGA Version,035-001
BLE Version,
Prefix,enlighten
Suffix,
Preset,
Auto-Raman,True
Session Count,0
Plugin Name,
Integration Time,182
Timestamp,2025-02-20 20:21:54.4131
Note,
Temperature,0
CCD C0,793.274
CCD C1,0.153259
CCD C2,1.40788e-05
CCD C3,-1.132e-08
CCD Offset,0
CCD Gain,1.9
CCD Offset Odd,0
CCD Gain Odd,1.9
Laser Wavelength,785.032
Laser Enable,False
Laser Power %,0
Laser Temperature,0
Pixel Count,2048

Pixel,Wavelength,Wavenumber,Processed,Raw,Dark
0,793.27,132.25,NA,907.67,884.83
2,793.58,137.12,NA,909.50,890.00
4,793.89,141.99,NA,913.83,890.17
6,794.19,146.86,NA,913.33,888.33
8,794.50,151.72,NA,918.00,888.83
10,794.81,156.58,NA,916.50,893.50
12,795.12,161.44,NA,915.17,886.33
14,795.42,166.30,NA,916.00,885.00
16,795.73,171.16,NA,915.83,885.83
18,796.04,176.01,NA,919.83,894.00
20,796.35,180.86,NA,925.50,895.33
22,796.65,185.71,NA,935.33,902.17
24,796.96,190.56,NA,923.50,894.17
26,797.27,195.41,NA,935.00,899.33
28,797.58,200.25,NA,936.83,895.17
30,797.88,205.09,NA,929.83,892.83
32,798.19,209.93,NA,937.67,888.83
34,798.50,214.77,NA,944.67,892.00
36,798.81,219.60,NA,952.17,890.83
38,799.12,224.43,NA,1018.67,893.17
40,799.43,229.27,NA,1359.00,896.83
42,799.74,234.09,NA,2598.17,896.33
44,800.04,238.92,NA,4148.33,914.50
46,800.35,243.75,NA,4314.33,898.67
48,800.66,248.57,500.27,3903.50,901.50
50,800.97,253.39,112.77,3624.83,910.67
52,801.28,258.21,49.85,3476.50,906.33
54,801.59,263.02,23.53,3386.17,912.67
56,801.90,267.83,47.25,3350.83,906.50
58,802.21,272.65,54.61,3305.00,906.33
60,802.52,277.46,62.18,3252.33,907.00
62,802.83,282.26,10.42,3171.17,917.67
64,803.14,287.07,0.00,3085.33,912.00
66,803.45,291.87,0.00,2986.17,909.67
68,803.76,296.67,0.00,2931.50,911.67
70,804.07,301.47,0.00,2869.83,906.33
72,804.38,306.26,0.00,2857.17,902.50
74,804.69,311.06,0.00,2860.83,902.83
76,805.00,315.85,0.04,2900.83,901.17
78,805.31,320.64,23.56,2949.00,909.83
80,805.62,325.42,63.31,2976.67,908.00
82,805.93,330.21,69.45,2995.83,907.33
84,806.24,334.99,93.21,3009.33,899.67
86,806.55,339.77,71.53,2990.17,903.50
88,806.86,344.55,61.12,2979.33,907.17
90,807.17,349.32,47.78,2951.17,899.83
92,807.48,354.10,51.43,2953.17,904.33
94,807.80,358.87,15.82,2919.83,909.00
96,808.11,363.63,40.86,2956.50,905.67
98,808.42,368.40,103.80,3024.83,901.67
100,808.73,373.16,154.89,3099.17,901.00
102,809.04,377.93,236.14,3207.83,897.33
104,809.35,382.68,336.90,3344.00,899.17
106,809.66,387.44,444.66,3498.33,906.33
108,809.98,392.19,526.41,3613.17,897.83
110,810.29,396.95,588.40,3726.50,904.17
112,810.60,401.70,738.93,3905.50,901.17
114,810.91,406.44,825.85,3986.50,899.83
116,811.22,411.19,758.20,3914.67,906.67
118,811.54,415.93,578.35,3713.33,909.83
120,811.85,420.67,456.66,3520.17,900.17
122,812.16,425.41,385.52,3395.83,897.50
124,812.47,430.14,287.50,3272.83,904.67
126,812.79,434.87,257.10,3206.67,897.83
128,813.10,439.60,233.64,3150.00,893.67
130,813.41,444.33,184.47,3085.33,900.00
132,813.72,449.06,147.01,3019.67,897.50
134,814.04,453.78,91.77,2947.17,905.67
136,814.35,458.50,31.26,2854.33,897.33
138,814.66,463.22,15.23,2811.83,894.33
140,814.98,467.93,11.53,2801.67,898.17
142,815.29,472.65,3.12,2788.00,897.50
144,815.60,477.36,0.00,2766.83,902.17
146,815.92,482.06,2.02,2766.83,893.50
148,816.23,486.77,0.28,2768.33,902.17
150,816.54,491.47,2.48,2773.17,909.83
152,816.86,496.17,0.00,2747.50,896.50
154,817.17,500.87,0.33,2751.33,898.17
156,817.48,505.57,2.02,2749.33,894.83
158,817.80,510.26,4.74,2754.17,897.17
160,818.11,514.95,43.22,2805.83,903.67
162,818.42,519.64,54.41,2827.00,902.50
164,818.74,524.32,79.98,2873.33,902.00
166,819.05,529.00,144.57,2970.67,905.17
168,819.37,533.68,230.58,3085.00,899.83
170,819.68,538.36,323.97,3203.83,904.67
172,819.99,543.04,350.38,3243.83,903.67
174,820.31,547.71,315.26,3208.83,903.33
176,820.62,552.38,281.14,3151.67,895.67
178,820.94,557.05,259.17,3115.33,897.83
180,821.25,561.71,254.99,3088.33,889.67
182,821.57,566.37,228.82,3050.00,898.33
184,821.88,571.03,222.36,3032.33,899.00
186,822.20,575.69,179.44,2970.83,903.67
188,822.51,580.34,129.58,2893.67,899.00
190,822.83,584.99,126.82,2879.67,900.67
192,823.14,589.64,137.49,2886.83,900.50
194,823.46,594.29,135.34,2880.17,897.50
196,823.77,598.93,144.80,2888.67,897.00
198,824.09,603.57,163.11,2942.17,895.33
200,824.40,608.21,222.38,3173.17,899.67
202,824.72,612.85,613.31,4088.83,902.83
204,825.03,617.48,2364.34,6289.00,905.67
206,825.35,622.11,3738.26,7458.17,906.33
208,825.66,626.74,1616.52,5516.33,902.83
210,825.98,631.36,474.53,3733.50,894.83
212,826.29,635.99,233.29,3092.50,901.33
214,826.61,640.61,118.17,2826.17,906.00
216,826.92,645.22,62.58,2697.83,892.67
218,827.24,649.84,27.43,2642.83,888.67
220,827.56,654.45,2.29,2593.00,901.50
222,827.87,659.06,7.41,2593.50,905.33
224,828.19,663.67,0.00,2569.00,901.83
226,828.50,668.27,0.00,2577.67,913.00
228,828.82,672.87,0.00,2546.83,905.00
230,829.13,677.47,0.00,2539.83,896.17
232,829.45,682.06,0.00,2538.33,895.83
234,829.77,686.66,0.00,2594.33,939.33
236,830.08,691.25,0.31,2591.17,897.83
238,830.40,695.83,24.09,2661.50,897.83
240,830.72,700.42,127.17,2761.33,893.83
242,831.03,705.00,111.09,2752.00,887.33
244,831.35,709.58,12.45,2676.67,894.50
246,831.66,714.15,0.00,2621.83,887.00
248,831.98,718.73,0.00,2638.50,896.00
250,832.30,723.30,2.50,2692.67,895.17
252,832.61,727.87,74.56,2859.83,900.33
254,832.93,732.43,252.71,3133.00,885.67
256,833.25,736.99,538.58,3576.50,902.83
258,833.56,741.55,757.39,3934.67,895.00
260,833.88,746.11,888.14,4221.17,895.33
262,834.20,750.66,1058.24,4525.67,896.17
264,834.51,755.22,1291.54,4861.00,901.00
266,834.83,759.76,1365.91,4984.17,903.33
268,835.15,764.31,1290.99,4913.50,903.00
270,835.47,768.85,1161.84,4735.50,894.83
272,835.78,773.39,1029.90,4587.17,893.83
274,836.10,777.93,1043.01,4682.67,893.83
276,836.42,782.46,1292.75,5149.00,894.50
278,836.73,787.00,1876.43,6062.17,893.67
280,837.05,791.52,2617.72,7078.00,891.83
282,837.37,796.05,3039.73,7586.67,901.83
284,837.69,800.57,2479.96,6905.50,896.00
286,838.00,805.09,1587.01,5689.17,896.17
288,838.32,809.61,1063.90,4776.67,895.50
290,838.64,814.13,726.47,4158.00,902.00
292,838.95,818.64,422.02,3670.50,898.67
294,839.27,823.15,218.91,3349.50,893.33
296,839.59,827.65,192.29,3310.00,898.67
298,839.91,832.15,264.37,3418.33,890.50
300,840.22,836.65,464.93,3710.00,903.67
302,840.54,841.15,580.21,3844.67,894.17
304,840.86,845.65,509.72,3798.33,899.33
306,841.18,850.14,349.61,3602.17,901.50
308,841.50,854.63,260.75,3478.67,912.33
310,841.81,859.11,240.26,3423.00,899.00
312,842.13,863.60,271.71,3455.00,899.00
314,842.45,868.07,234.53,3411.67,894.17
316,842.77,872.55,225.06,3412.17,898.83
318,843.08,877.03,191.27,3378.00,906.00
320,843.40,881.50,178.22,3346.17,884.33
322,843.72,885.97,181.19,3379.00,902.17
324,844.04,890.43,183.01,3401.33,893.17
326,844.36,894.89,227.12,3497.17,889.83
328,844.67,899.35,341.73,3683.17,898.67
330,844.99,903.81,495.47,3857.17,885.17
332,845.31,908.26,465.92,3836.50,901.50
334,845.63,912.71,275.07,3583.83,897.67
336,845.95,917.16,93.01,3347.67,897.17
338,846.27,921.61,1.92,3290.50,1001.50
340,846.58,926.05,0.00,3119.67,891.67
342,846.90,930.49,0.00,3125.83,897.50
344,847.22,934.92,0.00,3150.67,895.83
346,847.54,939.36,7.60,3230.67,887.00
348,847.86,943.79,11.25,3260.67,890.33
350,848.18,948.21,1.07,3284.83,891.00
352,848.49,952.64,0.11,3314.83,893.83
354,848.81,957.06,10.55,3389.67,889.33
356,849.13,961.48,117.70,3574.33,900.00
358,849.45,965.89,198.85,3680.83,902.33
360,849.77,970.31,214.57,3782.17,893.17
362,850.09,974.71,300.03,4006.67,892.17
364,850.40,979.12,603.91,4587.33,899.50
366,850.72,983.52,1256.00,5772.83,907.33
368,851.04,987.92,2203.96,8079.17,887.33
370,851.36,992.32,3902.55,13212.67,891.50
372,851.68,996.72,12874.60,27748.00,899.33
374,852.00,1001.11,30327.30,43841.17,896.50
376,852.32,1005.50,18579.91,33713.67,889.33
378,852.63,1009.88,4124.12,14847.00,906.67
380,852.95,1014.26,1191.55,7318.50,897.83
382,853.27,1018.64,974.93,6092.00,900.67
384,853.59,1023.02,2125.21,8045.67,892.83
386,853.91,1027.39,5508.80,12516.67,889.50
388,854.23,1031.76,8306.36,15374.50,890.33
390,854.55,1036.13,5732.38,12881.00,894.00
392,854.87,1040.49,2522.32,8637.83,890.67
394,855.18,1044.86,1267.20,6201.17,895.50
396,855.50,1049.21,900.83,5258.17,893.50
398,855.82,1053.57,729.39,4883.83,899.83
400,856.14,1057.92,679.93,4800.00,895.67
402,856.46,1062.27,790.70,4961.83,893.33
404,856.78,1066.62,954.93,5173.83,889.33
406,857.10,1070.96,1048.76,5319.00,889.83
408,857.42,1075.30,979.58,5264.33,897.67
410,857.74,1079.64,908.77,5167.67,894.33
412,858.06,1083.97,815.10,5039.17,890.00
414,858.37,1088.30,781.45,4985.50,888.00
416,858.69,1092.63,818.87,5026.67,890.50
418,859.01,1096.95,821.85,4993.50,890.50
420,859.33,1101.27,728.75,4839.33,895.67
422,859.65,1105.59,502.35,4539.83,893.67
424,859.97,1109.91,281.15,4187.50,888.00
426,860.29,1114.22,171.63,3978.17,893.33
428,860.61,1118.53,39.17,3842.33,887.33
430,860.93,1122.84,0.00,3681.00,894.50
432,861.25,1127.14,0.00,3633.50,898.00
434,861.56,1131.44,0.00,3648.33,890.00
436,861.88,1135.74,0.89,3826.67,889.83
438,862.20,1140.03,92.53,4164.83,894.83
440,862.52,1144.32,434.46,4834.50,891.33
442,862.84,1148.61,1220.47,6248.67,895.67
444,863.16,1152.89,2850.12,8196.00,891.33
446,863.48,1157.17,3202.17,8624.67,893.00
448,863.80,1161.45,1866.38,7327.50,889.00
450,864.12,1165.73,1097.45,6315.83,891.33
452,864.44,1170.00,1067.21,6340.67,890.83
454,864.76,1174.27,1718.49,7459.67,890.00
456,865.07,1178.53,3422.72,9679.83,886.83
458,865.39,1182.80,4594.05,11194.83,895.17
460,865.71,1187.06,3891.48,10853.83,895.33
462,866.03,1191.31,3665.71,10769.50,893.83
464,866.35,1195.57,4130.00,11205.00,893.17
466,866.67,1199.82,4393.75,11351.50,895.50
468,866.99,1204.06,3879.43,10601.67,895.33
470,867.31,1208.31,2714.55,9048.17,898.67
472,867.63,1212.55,1653.62,7522.33,890.33
474,867.95,1216.79,1027.31,6473.17,885.33
476,868.27,1221.02,770.48,5974.50,893.17
478,868.58,1225.25,622.31,5689.50,888.00
480,868.90,1229.48,435.52,5436.33,891.00
482,869.22,1233.71,241.59,5205.33,899.00
484,869.54,1237.93,137.38,5065.17,901.67
486,869.86,1242.15,113.66,5023.50,890.67
488,870.18,1246.36,80.70,4997.50,887.33
490,870.50,1250.58,33.58,4980.67,891.50
492,870.82,1254.79,12.21,4984.17,903.33
494,871.14,1258.99,0.00,4963.17,898.17
496,871.46,1263.20,10.78,5027.00,894.33
498,871.78,1267.40,56.54,5109.67,887.00
500,872.10,1271.59,104.59,5189.17,892.67
502,872.41,1275.79,159.20,5293.83,892.17
504,872.73,1279.98,226.54,5424.33,894.00
506,873.05,1284.17,309.16,5584.17,898.67
508,873.37,1288.35,416.08,5756.00,880.83
510,873.69,1292.53,591.79,6039.33,887.50
512,874.01,1296.71,743.24,6285.17,893.83
514,874.33,1300.88,906.49,6543.83,880.33
516,874.65,1305.06,1014.00,6756.67,892.50
518,874.97,1309.22,1167.63,7018.17,887.33
520,875.29,1313.39,1307.40,7285.83,893.67
522,875.60,1317.55,1549.23,7660.83,896.67
524,875.92,1321.71,1809.74,8028.00,890.33
526,876.24,1325.87,2001.39,8310.00,896.33
528,876.56,1330.02,2038.99,8353.67,888.00
530,876.88,1334.17,1916.09,8208.83,897.50
532,877.20,1338.32,1660.89,7869.83,886.67
534,877.52,1342.46,1456.06,7569.83,886.33
536,877.84,1346.60,1314.74,7362.50,897.83
538,878.16,1350.73,1267.72,7280.33,890.83
540,878.47,1354.87,1275.20,7277.00,891.17
542,878.79,1359.00,1295.96,7299.17,891.00
544,879.11,1363.13,1296.46,7310.50,890.83
546,879.43,1367.25,1306.27,7315.17,891.67
548,879.75,1371.37,1259.00,7215.83,887.67
550,880.07,1375.49,1131.50,7037.67,890.83
552,880.39,1379.60,916.73,6756.17,894.83
554,880.71,1383.71,756.13,6523.67,893.50
556,881.03,1387.82,645.69,6355.83,890.00
558,881.34,1391.93,572.65,6238.17,883.67
560,881.66,1396.03,558.20,6202.17,889.83
562,881.98,1400.13,536.62,6180.67,896.17
564,882.30,1404.22,518.18,6150.50,894.33
566,882.62,1408.31,460.23,6059.50,886.33
568,882.94,1412.40,407.54,6005.00,895.17
570,883.26,1416.49,338.58,5908.00,887.00
572,883.57,1420.57,310.50,5887.83,896.67
574,883.89,1424.65,312.71,5913.67,887.33
576,884.21,1428.73,357.83,6043.17,898.67
578,884.53,1432.80,607.14,6439.00,900.17
580,884.85,1436.87,1000.41,7002.33,889.00
582,885.17,1440.93,1457.14,7680.67,882.33
584,885.49,1445.00,1927.18,8315.67,889.00
586,885.80,1449.06,2304.83,8678.67,882.83
588,886.12,1453.11,2140.85,8431.17,897.67
590,886.44,1457.17,1251.63,7445.17,891.50
592,886.76,1461.22,512.22,6446.50,889.33
594,887.08,1465.26,232.35,5938.17,895.50
596,887.40,1469.31,135.01,5711.67,886.33
598,887.71,1473.35,86.87,5629.33,889.00
600,888.03,1477.38,80.99,5611.17,888.83
602,888.35,1481.42,67.29,5595.50,893.50
604,888.67,1485.45,62.64,5594.17,892.17
606,888.99,1489.48,131.67,5669.33,890.00
608,889.31,1493.50,246.29,5759.83,893.33
610,889.62,1497.52,148.12,5683.83,894.83
612,889.94,1501.54,28.32,5512.83,880.17
614,890.26,1505.56,12.96,5477.83,891.33
616,890.58,1509.57,0.00,5420.17,886.00
618,890.90,1513.57,1.98,5432.67,887.67
620,891.21,1517.58,18.24,5443.50,891.00
622,891.53,1521.58,41.97,5458.50,893.67
624,891.85,1525.58,48.50,5451.00,889.33
626,892.17,1529.57,63.16,5460.67,894.17
628,892.49,1533.57,47.61,5433.50,895.50
630,892.80,1537.56,50.38,5407.67,888.00
632,893.12,1541.54,64.07,5412.50,885.33
634,893.44,1545.52,30.66,5377.50,894.17
636,893.76,1549.50,48.57,5370.67,887.33
638,894.07,1553.48,47.22,5349.50,893.83
640,894.39,1557.45,81.87,5384.67,885.33
642,894.71,1561.42,143.15,5458.50,897.67
644,895.03,1565.39,237.32,5572.50,883.33
646,895.34,1569.35,334.28,5779.33,893.83
648,895.66,1573.31,548.69,6251.33,886.83
650,895.98,1577.26,1272.69,7334.83,886.67
652,896.30,1581.22,3146.58,9093.33,888.00
654,896.61,1585.17,3557.06,9543.17,888.67
656,896.93,1589.11,1895.52,8400.67,895.83
658,897.25,1593.06,1743.40,8640.17,886.50
660,897.57,1597.00,3800.15,11215.50,889.00
662,897.88,1600.93,7809.93,14556.67,891.33
664,898.20,1604.87,7766.92,14431.33,886.83
666,898.52,1608.80,3610.50,10724.17,887.00
668,898.84,1612.72,1357.15,7664.17,885.67
670,899.15,1616.65,714.37,6298.00,893.33
672,899.47,1620.57,532.24,5766.33,885.00
674,899.79,1624.49,427.83,5523.67,893.50
676,900.10,1628.40,316.70,5332.00,887.33
678,900.42,1632.31,197.63,5163.67,890.00
680,900.74,1636.22,123.75,5040.67,879.83
682,901.05,1640.12,78.70,4967.00,900.50
684,901.37,1644.02,65.18,4912.17,891.00
686,901.69,1647.92,43.78,4860.83,891.33
688,902.00,1651.82,63.13,4848.50,889.17
690,902.32,1655.71,63.77,4813.00,882.17
692,902.64,1659.60,64.68,4797.83,881.67
694,902.95,1663.48,31.53,4737.67,892.17
696,903.27,1667.36,45.30,4716.17,889.17
698,903.59,1671.24,50.03,4697.00,895.33
700,903.90,1675.11,56.07,4670.83,891.17
702,904.22,1678.99,57.76,4630.17,883.00
704,904.54,1682.85,58.34,4623.50,904.00
706,904.85,1686.72,44.98,4560.67,884.67
708,905.17,1690.58,39.60,4528.67,890.00
710,905.49,1694.44,56.79,4504.50,881.67
712,905.80,1698.29,61.34,4483.83,887.33
714,906.12,1702.15,37.01,4425.00,888.33
716,906.43,1706.00,49.73,4407.00,889.00
718,906.75,1709.84,18.67,4354.33,894.50
720,907.07,1713.68,5.62,4297.17,890.50
722,907.38,1717.52,26.42,4286.67,891.17
724,907.70,1721.36,2.54,4232.83,885.67
726,908.01,1725.19,0.00,4193.83,890.67
728,908.33,1729.02,0.00,4175.33,896.00
730,908.65,1732.85,17.48,4162.00,890.00
732,908.96,1736.67,3.34,4124.17,893.83
734,909.28,1740.49,21.04,4119.50,890.00
736,909.59,1744.30,21.90,4086.17,890.50
738,909.91,1748.12,48.31,4088.33,886.83
740,910.22,1751.93,19.26,4037.17,894.33
742,910.54,1755.73,34.80,4037.67,906.33
744,910.85,1759.54,5.84,3962.67,893.50
746,911.17,1763.34,0.00,3911.17,884.67
748,911.49,1767.13,0.00,3895.33,888.83
750,911.80,1770.93,0.00,3850.00,881.00
752,912.12,1774.72,4.74,3868.50,892.83
754,912.43,1778.50,33.33,3856.17,880.50
756,912.75,1782.29,36.24,3844.33,885.00
758,913.06,1786.07,32.11,3819.17,887.33
760,913.38,1789.84,64.91,3829.67,884.67
762,913.69,1793.62,54.18,3808.17,893.33
764,914.01,1797.39,83.68,3812.17,887.67
766,914.32,1801.15,95.69,3795.17,884.67
768,914.64,1804.92,85.33,3764.33,882.50
770,914.95,1808.68,68.74,3730.67,891.83
772,915.26,1812.44,88.65,3726.33,888.67
774,915.58,1816.19,87.73,3699.33,884.00
776,915.89,1819.94,101.61,3699.17,891.00
778,916.21,1823.69,113.45,3689.00,891.00
780,916.52,1827.43,107.61,3665.17,895.33
782,916.84,1831.17,119.29,3643.00,883.33
784,917.15,1834.91,121.66,3622.67,884.50
786,917.47,1838.64,138.63,3625.67,891.67
788,917.78,1842.38,119.50,3580.67,888.67
790,918.09,1846.10,110.00,3549.17,888.67
792,918.41,1849.83,134.47,3551.83,890.83
794,918.72,1853.55,113.07,3498.33,885.00
796,919.04,1857.27,126.34,3502.17,889.67
798,919.35,1860.98,111.86,3461.00,888.67
800,919.66,1864.69,133.46,3461.67,889.83
802,919.98,1868.40,136.22,3441.33,888.00
804,920.29,1872.11,149.30,3431.83,888.33
806,920.60,1875.81,173.02,3436.17,885.67
808,920.92,1879.51,152.47,3396.17,887.00
810,921.23,1883.20,183.88,3412.33,891.67
812,921.55,1886.90,176.71,3371.17,883.67
814,921.86,1890.58,183.73,3362.17,891.67
816,922.17,1894.27,181.22,3343.00,895.50
818,922.49,1897.95,158.01,3292.83,890.83
820,922.80,1901.63,154.31,3264.33,887.00
822,923.11,1905.31,136.66,3226.67,886.33
824,923.42,1908.98,139.05,3209.00,890.17
826,923.74,1912.65,160.97,3205.83,890.33
828,924.05,1916.31,170.11,3194.33,887.00
830,924.36,1919.98,174.23,3175.33,882.67
832,924.68,1923.64,202.17,3182.00,884.83
834,924.99,1927.29,214.90,3169.83,884.00
836,925.30,1930.94,207.41,3135.00,878.50
838,925.61,1934.59,188.24,3107.33,887.67
840,925.93,1938.24,143.44,3042.00,887.00
842,926.24,1941.88,136.37,3012.83,890.17
844,926.55,1945.52,136.97,2986.17,886.67
846,926.86,1949.16,139.77,2972.67,889.83
848,927.18,1952.79,147.07,2953.50,887.00
850,927.49,1956.42,142.58,2927.50,888.67
852,927.80,1960.05,156.96,2943.83,907.00
854,928.11,1963.67,126.69,2870.50,887.33
856,928.42,1967.29,135.40,2859.00,891.83
858,928.74,1970.91,117.72,2818.33,888.33
860,929.05,1974.52,90.65,2775.00,890.00
862,929.36,1978.13,79.82,2738.33,885.33
864,929.67,1981.74,82.35,2714.67,885.33
866,929.98,1985.35,78.92,2693.67,890.50
868,930.29,1988.95,46.77,2644.67,889.83
870,930.61,1992.54,45.92,2619.00,885.00
872,930.92,1996.14,35.12,2586.67,886.17
874,931.23,1999.73,21.87,2559.33,892.00
876,931.54,2003.32,29.58,2547.33,889.50
878,931.85,2006.90,25.01,2521.00,887.33
880,932.16,2010.48,32.41,2506.33,887.17
882,932.47,2014.06,41.95,2492.50,886.00
884,932.78,2017.63,30.55,2472.50,890.50
886,933.09,2021.21,19.82,2441.50,888.00
888,933.41,2024.77,29.84,2428.00,888.83
890,933.72,2028.34,29.82,2416.67,899.00
892,934.03,2031.90,12.49,2379.33,890.67
894,934.34,2035.46,5.10,2352.00,889.67
896,934.65,2039.01,0.00,2315.50,886.33
898,934.96,2042.57,0.00,2305.33,894.33
900,935.27,2046.11,0.00,2287.83,898.50
902,935.58,2049.66,0.00,2257.00,875.33
904,935.89,2053.20,1.92,2265.83,891.67
906,936.20,2056.74,0.00,2249.50,894.50
908,936.51,2060.28,1.76,2232.17,887.67
910,936.82,2063.81,12.49,2238.17,894.17
912,937.13,2067.34,35.48,2233.50,887.50
914,937.44,2070.86,11.02,2192.50,883.00
916,937.75,2074.39,12.78,2181.00,882.67
918,938.06,2077.91,2.54,2159.33,883.67
920,938.37,2081.42,0.00,2144.17,888.50
922,938.68,2084.94,0.00,2124.33,885.50
924,938.99,2088.45,0.00,2117.67,884.67
926,939.30,2091.95,0.76,2113.00,889.33
928,939.60,2095.46,4.81,2102.50,887.83
930,939.91,2098.96,0.00,2092.33,894.00
932,940.22,2102.45,0.00,2077.17,886.67
934,940.53,2105.95,3.68,2068.00,882.83
936,940.84,2109.44,1.68,2059.33,885.50
938,941.15,2112.92,6.21,2059.00,888.17
940,941.46,2116.41,22.76,2054.33,884.33
942,941.77,2119.89,25.49,2051.33,889.33
944,942.07,2123.37,2.63,2024.33,887.33
946,942.38,2126.84,2.49,2018.33,889.33
948,942.69,2130.31,0.00,2001.00,892.50
950,943.00,2133.78,21.12,2008.00,886.67
952,943.31,2137.24,6.27,1994.17,891.50
954,943.62,2140.70,0.00,1964.00,890.33
956,943.92,2144.16,2.59,1972.33,887.33
958,944.23,2147.62,3.65,1970.67,892.00
960,944.54,2151.07,0.68,1962.17,892.83
962,944.85,2154.52,23.92,1976.67,892.67
964,945.16,2157.96,4.32,1953.83,894.67
966,945.46,2161.40,17.53,1953.50,889.67
968,945.77,2164.84,3.23,1926.33,880.00
970,946.08,2168.28,9.34,1933.67,886.67
972,946.39,2171.71,10.46,1921.83,882.50
974,946.69,2175.14,0.00,1909.33,889.67
976,947.00,2178.57,0.39,1902.83,885.33
978,947.31,2181.99,7.03,1904.67,887.33
980,947.61,2185.41,12.32,1903.33,887.00
982,947.92,2188.82,1.98,1893.00,890.67
984,948.23,2192.24,2.70,1882.33,883.83
986,948.53,2195.65,9.71,1886.67,887.00
988,948.84,2199.05,35.66,1890.00,878.17
990,949.15,2202.46,62.01,1906.50,886.67
992,949.45,2205.86,43.07,1891.83,886.33
994,949.76,2209.25,12.51,1863.00,884.17
996,950.07,2212.65,5.86,1850.83,884.00
998,950.37,2216.04,10.79,1843.50,878.33
1000,950.68,2219.43,6.43,1841.00,888.67
1002,950.98,2222.81,0.00,1831.00,892.00
1004,951.29,2226.19,23.73,1836.83,883.00
1006,951.60,2229.57,14.39,1824.17,881.17
1008,951.90,2232.94,8.03,1814.17,880.50
1010,952.21,2236.32,5.44,1807.83,882.00
1012,952.51,2239.68,22.97,1820.50,887.33
1014,952.82,2243.05,20.49,1799.33,877.83
1016,953.12,2246.41,10.18,1802.33,891.83
1018,953.43,2249.77,4.74,1801.33,898.00
1020,953.73,2253.12,4.26,1795.00,896.50
1022,954.04,2256.48,10.31,1778.67,881.33
1024,954.34,2259.83,16.24,1787.00,892.67
1026,954.65,2263.17,14.88,1771.50,884.50
1028,954.95,2266.51,12.42,1765.50,886.00
1030,955.26,2269.85,7.30,1765.67,895.67
1032,955.56,2273.19,9.79,1759.17,888.67
1034,955.87,2276.52,0.49,1747.17,890.33
1036,956.17,2279.85,0.29,1743.33,891.67
1038,956.48,2283.18,2.62,1729.00,879.67
1040,956.78,2286.50,5.23,1729.33,883.67
1042,957.08,2289.82,0.00,1719.00,882.17
1044,957.39,2293.14,11.24,1733.33,887.67
1046,957.69,2296.45,23.49,1730.00,879.83
1048,957.99,2299.76,14.40,1734.17,893.50
1050,958.30,2303.07,13.78,1728.83,891.50
1052,958.60,2306.38,55.79,1744.67,882.67
1054,958.91,2309.68,58.66,1742.50,886.00
1056,959.21,2312.98,35.86,1724.83,884.67
1058,959.51,2316.27,39.97,1726.83,885.33
1060,959.82,2319.56,19.01,1714.83,893.00
1062,960.12,2322.85,3.77,1689.50,883.67
1064,960.42,2326.14,1.96,1683.00,882.33
1066,960.72,2329.42,6.49,1688.50,888.00
1068,961.03,2332.70,21.70,1697.17,889.67
1070,961.33,2335.97,13.48,1689.67,891.00
1072,961.63,2339.25,30.75,1691.50,884.83
1074,961.93,2342.52,22.98,1683.67,887.00
1076,962.24,2345.78,28.80,1686.67,886.33
1078,962.54,2349.05,22.68,1682.33,888.67
1080,962.84,2352.31,24.06,1676.33,887.83
1082,963.14,2355.56,34.58,1675.67,885.33
1084,963.45,2358.82,34.04,1667.17,880.83
1086,963.75,2362.07,8.81,1657.50,891.83
1088,964.05,2365.32,14.05,1664.33,897.17
1090,964.35,2368.56,2.30,1645.00,890.67
1092,964.65,2371.80,19.69,1657.00,891.17
1094,964.95,2375.04,0.38,1631.00,885.50
1096,965.25,2378.27,25.38,1642.33,881.67
1098,965.56,2381.51,33.61,1645.00,884.50
1100,965.86,2384.73,16.78,1638.17,891.00
1102,966.16,2387.96,25.45,1634.83,885.33
1104,966.46,2391.18,46.53,1652.67,896.17
1106,966.76,2394.40,31.55,1630.50,883.83
1108,967.06,2397.62,17.18,1627.67,893.50
1110,967.36,2400.83,22.25,1617.00,883.67
1112,967.66,2404.04,17.95,1620.00,893.33
1114,967.96,2407.25,9.04,1600.00,883.67
1116,968.26,2410.45,13.46,1604.50,889.67
1118,968.56,2413.65,13.71,1600.00,886.00
1120,968.86,2416.85,5.86,1601.50,895.33
1122,969.16,2420.04,15.53,1594.50,885.83
1124,969.46,2423.23,36.50,1597.67,881.67
1126,969.76,2426.42,7.83,1583.67,887.67
1128,970.06,2429.60,32.82,1590.50,876.83
1130,970.36,2432.79,47.28,1599.33,885.00
1132,970.66,2435.96,55.82,1600.83,886.00
1134,970.96,2439.14,71.95,1608.67,886.67
1136,971.26,2442.31,68.05,1609.17,891.00
1138,971.56,2445.48,74.63,1605.50,887.67
1140,971.86,2448.65,72.56,1592.50,882.00
1142,972.16,2451.81,62.07,1594.67,891.50
1144,972.45,2454.97,46.75,1579.33,888.33
1146,972.75,2458.13,53.30,1577.50,886.00
1148,973.05,2461.28,42.87,1566.00,882.83
1150,973.35,2464.43,34.07,1561.00,888.00
1152,973.65,2467.58,60.79,1568.50,884.67
1154,973.95,2470.72,43.88,1555.50,884.67
1156,974.24,2473.86,59.60,1564.17,884.00
1158,974.54,2477.00,41.84,1549.50,885.00
1160,974.84,2480.13,85.87,1572.50,888.33
1162,975.14,2483.27,85.88,1565.33,887.50
1164,975.43,2486.40,67.41,1549.17,881.17
1166,975.73,2489.52,64.72,1549.33,884.00
1168,976.03,2492.64,54.03,1536.50,884.00
1170,976.33,2495.76,48.76,1532.67,887.50
1172,976.62,2498.88,39.97,1521.67,881.33
1174,976.92,2501.99,12.43,1511.67,893.00
1176,977.22,2505.10,34.02,1513.33,886.33
1178,977.51,2508.21,14.48,1502.33,887.83
1180,977.81,2511.31,0.00,1487.83,890.67
1182,978.11,2514.41,13.58,1495.17,888.00
1184,978.40,2517.51,49.32,1505.83,885.00
1186,978.70,2520.61,52.30,1505.50,886.17
1188,979.00,2523.70,40.46,1499.33,887.33
1190,979.29,2526.79,33.06,1492.17,885.67
1192,979.59,2529.87,45.53,1498.67,888.33
1194,979.88,2532.95,27.62,1478.33,882.50
1196,980.18,2536.03,29.03,1486.33,891.67
1198,980.48,2539.11,37.45,1493.33,894.00
1200,980.77,2542.18,39.90,1484.33,888.00
1202,981.07,2545.25,58.14,1492.00,892.50
1204,981.36,2548.32,47.50,1481.33,888.00
1206,981.66,2551.38,42.51,1484.17,893.67
1208,981.95,2554.44,41.65,1472.00,885.67
1210,982.25,2557.50,68.71,1494.33,897.00
1212,982.54,2560.56,104.68,1503.67,893.33
1214,982.84,2563.61,107.73,1503.83,896.50
1216,983.13,2566.66,123.81,1509.83,894.33
1218,983.43,2569.70,104.79,1501.33,895.67
1220,983.72,2572.74,121.80,1505.17,893.33
1222,984.01,2575.78,125.36,1498.33,887.50
1224,984.31,2578.82,144.56,1498.83,882.50
1226,984.60,2581.85,187.29,1515.33,885.33
1228,984.90,2584.88,172.83,1503.67,883.83
1230,985.19,2587.91,178.33,1509.17,885.67
1232,985.48,2590.93,156.19,1507.17,893.67
1234,985.78,2593.96,155.27,1503.83,891.83
1236,986.07,2596.97,163.29,1499.00,891.33
1238,986.36,2599.99,229.11,1525.50,894.50
1240,986.66,2603.00,238.03,1530.67,896.83
1242,986.95,2606.01,217.59,1518.00,894.17
1244,987.24,2609.01,246.70,1528.17,894.50
1246,987.54,2612.02,220.21,1494.17,877.83
1248,987.83,2615.02,232.97,1513.00,891.67
1250,988.12,2618.01,184.40,1491.33,895.67
1252,988.41,2621.01,196.05,1489.33,892.67
1254,988.71,2624.00,189.16,1479.33,890.50
1256,989.00,2626.99,164.52,1469.00,894.00
1258,989.29,2629.97,167.20,1463.17,890.33
1260,989.58,2632.95,137.97,1448.83,893.67
1262,989.87,2635.93,139.70,1450.17,895.17
1264,990.16,2638.91,133.53,1435.67,885.00
1266,990.46,2641.88,133.33,1439.33,894.00
1268,990.75,2644.85,146.24,1444.50,899.83
1270,991.04,2647.81,152.46,1434.67,889.83
1272,991.33,2650.78,142.78,1428.67,887.67
1274,991.62,2653.74,113.26,1415.50,891.33
1276,991.91,2656.70,121.72,1411.00,888.00
1278,992.20,2659.65,124.58,1415.50,894.00
1280,992.49,2662.60,106.52,1399.33,888.33
1282,992.78,2665.55,107.22,1405.33,897.50
1284,993.07,2668.50,88.61,1395.00,897.50
1286,993.36,2671.44,68.89,1381.50,894.50
1288,993.65,2674.38,99.20,1392.33,894.00
1290,993.94,2677.31,97.74,1383.67,890.00
1292,994.23,2680.25,105.24,1380.33,888.33
1294,994.52,2683.18,128.90,1384.33,888.67
1296,994.81,2686.10,113.80,1379.50,892.17
1298,995.10,2689.03,73.26,1367.67,894.83
1300,995.39,2691.95,45.16,1353.33,894.67
1302,995.68,2694.87,74.51,1361.67,896.17
1304,995.97,2697.78,84.39,1361.17,895.67
1306,996.26,2700.70,52.22,1342.00,889.17
1308,996.55,2703.61,66.92,1347.33,890.00
1310,996.84,2706.51,57.13,1343.67,895.17
1312,997.13,2709.42,61.42,1341.50,894.17
1314,997.41,2712.32,92.11,1354.50,897.67
1316,997.70,2715.21,106.79,1347.67,889.67
1318,997.99,2718.11,126.46,1351.33,889.33
1320,998.28,2721.00,98.12,1335.83,884.67
1322,998.57,2723.89,97.62,1347.33,897.00
1324,998.86,2726.77,101.15,1332.50,886.00
1326,999.14,2729.66,138.68,1348.00,893.00
1328,999.43,2732.54,129.26,1337.50,889.33
1330,999.72,2735.41,104.77,1325.33,889.50
1332,1000.01,2738.29,80.89,1327.67,899.67
1334,1000.29,2741.16,36.22,1305.83,893.00
1336,1000.58,2744.03,4.39,1282.67,888.67
1338,1000.87,2746.89,39.40,1299.33,895.83
1340,1001.15,2749.75,40.92,1289.33,890.33
1342,1001.44,2752.61,0.00,1270.67,890.17
1344,1001.73,2755.47,10.04,1279.00,888.33
1346,1002.01,2758.32,0.00,1268.33,891.83
1348,1002.30,2761.17,0.00,1275.17,897.17
1350,1002.59,2764.02,0.31,1279.50,902.33
1352,1002.87,2766.86,19.37,1276.00,892.67
1354,1003.16,2769.70,54.92,1282.17,888.00
1356,1003.44,2772.54,42.43,1275.50,886.33
1358,1003.73,2775.38,74.95,1290.67,893.17
1360,1004.01,2778.21,120.49,1291.33,885.33
1362,1004.30,2781.04,105.41,1291.50,891.17
1364,1004.58,2783.87,63.02,1275.50,888.33
1366,1004.87,2786.69,59.88,1269.83,880.33
1368,1005.15,2789.51,8.38,1265.83,891.33
1370,1005.44,2792.33,0.21,1263.83,897.33
1372,1005.72,2795.14,0.00,1253.67,898.00
1374,1006.01,2797.95,0.00,1250.83,899.17
1376,1006.29,2800.76,0.00,1245.17,886.33
1378,1006.58,2803.57,0.00,1259.67,901.67
1380,1006.86,2806.37,0.00,1256.83,889.83
1382,1007.14,2809.17,0.00,1260.50,888.83
1384,1007.43,2811.97,0.00,1261.67,887.50
1386,1007.71,2814.77,0.00,1271.83,886.00
1388,1008.00,2817.56,2.29,1281.67,881.50
1390,1008.28,2820.35,1.20,1303.17,894.83
1392,1008.56,2823.13,1.35,1307.17,889.33
1394,1008.85,2825.91,18.99,1332.17,891.17
1396,1009.13,2828.69,74.40,1358.00,891.83
1398,1009.41,2831.47,189.09,1405.50,894.17
1400,1009.69,2834.24,390.83,1472.83,886.00
1402,1009.98,2837.02,722.34,1587.00,890.00
1404,1010.26,2839.78,1240.13,1744.67,894.83
1406,1010.54,2842.55,1903.78,1910.50,885.83
1408,1010.82,2845.31,2549.62,2076.33,894.00
1410,1011.11,2848.07,3080.16,2208.83,896.50
1412,1011.39,2850.83,3374.62,2288.33,896.50
1414,1011.67,2853.58,3327.09,2286.67,894.50
1416,1011.95,2856.33,3080.14,2232.83,892.17
1418,1012.23,2859.08,2808.83,2170.17,891.17
1420,1012.51,2861.83,2471.59,2086.00,889.33
1422,1012.80,2864.57,2163.00,2020.00,902.00
1424,1013.08,2867.31,2075.53,1993.00,897.00
1426,1013.36,2870.04,2028.44,1978.00,897.33
1428,1013.64,2872.78,2109.55,1996.50,896.17
1430,1013.92,2875.51,2286.67,2050.00,903.67
1432,1014.20,2878.24,2592.29,2124.50,897.33
1434,1014.48,2880.96,2905.58,2197.00,891.00
1436,1014.76,2883.68,3410.67,2321.33,886.33
1438,1015.04,2886.40,3836.65,2434.00,889.67
1440,1015.32,2889.12,4396.96,2582.50,898.17
1442,1015.60,2891.83,5036.67,2722.83,888.50
1444,1015.88,2894.54,5594.04,2853.83,896.33
1446,1016.16,2897.25,6142.29,2963.00,884.00
1448,1016.44,2899.96,6513.82,3052.83,895.17
1450,1016.72,2902.66,6720.53,3093.50,894.50
1452,1017.00,2905.36,6712.08,3099.17,902.00
1454,1017.28,2908.06,6607.30,3063.33,891.33
1456,1017.55,2910.75,6445.94,3018.17,898.33
1458,1017.83,2913.44,6248.58,2947.33,891.50
1460,1018.11,2916.13,5883.32,2861.17,897.83
1462,1018.39,2918.81,5363.22,2737.67,896.50
1464,1018.67,2921.49,4980.12,2639.00,893.00
1466,1018.95,2924.17,4572.04,2533.17,893.17
1468,1019.22,2926.85,4143.61,2429.00,894.83
1470,1019.50,2929.52,3685.98,2314.67,891.50
1472,1019.78,2932.20,3320.56,2215.50,885.67
1474,1020.06,2934.86,3018.86,2143.00,891.67
1476,1020.33,2937.53,2618.05,2053.50,899.50
1478,1020.61,2940.19,2173.09,1951.00,898.17
1480,1020.89,2942.85,1743.14,1857.67,896.33
1482,1021.17,2945.51,1315.34,1758.17,888.33
1484,1021.44,2948.16,1008.30,1693.50,893.33
1486,1021.72,2950.81,775.82,1632.17,887.33
1488,1022.00,2953.46,537.42,1590.67,899.50
1490,1022.27,2956.11,353.43,1545.50,892.17
1492,1022.55,2958.75,209.07,1522.17,896.83
1494,1022.82,2961.39,123.86,1502.17,892.00
1496,1023.10,2964.03,62.23,1497.67,904.17
1498,1023.38,2966.66,118.72,1503.33,894.00
1500,1023.65,2969.29,207.05,1520.83,897.33
1502,1023.93,2971.92,483.06,1559.83,895.50
1504,1024.20,2974.55,952.23,1608.17,897.67
1506,1024.48,2977.17,1178.08,1616.17,896.17
1508,1024.75,2979.79,738.19,1568.00,886.67
1510,1025.03,2982.41,162.56,1509.83,893.50
1512,1025.30,2985.02,6.21,1444.17,887.33
1514,1025.58,2987.63,0.00,1415.17,895.33
1516,1025.85,2990.24,0.00,1403.67,889.83
1518,1026.13,2992.85,0.98,1435.33,898.67
1520,1026.40,2995.45,94.53,1493.17,898.17
1522,1026.68,2998.05,674.38,1556.33,888.50
1524,1026.95,3000.65,1264.54,1600.67,898.50
1526,1027.22,3003.25,1184.78,1591.33,890.83
1528,1027.50,3005.84,657.40,1542.33,886.83
1530,1027.77,3008.43,311.76,1508.00,897.00
1532,1028.04,3011.02,191.47,1486.33,898.83
1534,1028.32,3013.60,275.09,1491.17,889.00
1536,1028.59,3016.18,500.38,1534.17,894.67
1538,1028.86,3018.76,999.17,1603.00,879.33
1540,1029.14,3021.34,1606.53,1711.50,893.00
1542,1029.41,3023.91,2563.89,1860.33,889.00
1544,1029.68,3026.48,3635.00,2026.50,892.00
1546,1029.95,3029.05,4772.59,2199.17,898.00
1548,1030.22,3031.61,6150.79,2392.00,892.33
1550,1030.50,3034.17,7106.04,2529.33,893.00
1552,1030.77,3036.73,7716.50,2642.17,891.33
1554,1031.04,3039.29,8275.41,2784.00,893.83
1556,1031.31,3041.84,8796.37,2904.67,889.17
1558,1031.58,3044.39,10515.91,3185.67,904.33
1560,1031.85,3046.94,13532.65,3562.00,900.33
1562,1032.13,3049.49,17061.60,3956.00,889.17
1564,1032.40,3052.03,19057.06,4188.67,899.33
1566,1032.67,3054.57,19496.56,4249.17,893.50
1568,1032.94,3057.11,19037.03,4200.33,906.33
1570,1033.21,3059.64,18448.73,4069.33,888.83
1572,1033.48,3062.18,17122.45,3852.67,899.67
1574,1033.75,3064.70,14915.22,3525.83,898.50
1576,1034.02,3067.23,12201.92,3151.33,901.83
1578,1034.29,3069.75,9676.13,2778.33,888.50
1580,1034.56,3072.28,7580.52,2469.17,897.33
1582,1034.83,3074.79,6014.60,2208.83,887.67
1584,1035.10,3077.31,4849.68,2028.33,898.67
1586,1035.37,3079.82,3838.19,1854.17,892.67
1588,1035.64,3082.33,3157.14,1745.00,901.00
1590,1035.91,3084.84,2612.82,1645.50,895.17
1592,1036.17,3087.34,2079.68,1552.83,889.67
1594,1036.44,3089.85,1735.40,1507.83,900.50
1596,1036.71,3092.35,1236.51,1423.50,891.00
1598,1036.98,3094.84,936.47,1374.83,887.33
1600,1037.25,3097.34,705.20,1339.33,889.00
1602,1037.52,3099.83,554.32,1314.33,894.00
1604,1037.78,3102.32,490.02,1296.17,895.33
1606,1038.05,3104.80,407.76,1281.50,899.00
1608,1038.32,3107.29,328.70,1263.33,894.33
1610,1038.59,3109.77,202.82,1240.00,890.67
1612,1038.85,3112.24,44.12,1211.00,890.33
1614,1039.12,3114.72,36.12,1215.33,899.00
1616,1039.39,3117.19,0.00,1171.83,881.17
1618,1039.66,3119.66,2.36,1181.00,896.17
1620,1039.92,3122.13,0.18,1171.17,896.83
1622,1040.19,3124.59,1.06,1160.50,894.17
1624,1040.45,3127.05,0.00,1138.17,887.17
1626,1040.72,3129.51,0.00,1135.33,892.83
1628,1040.99,3131.97,2.91,1141.17,893.67
1630,1041.25,3134.42,0.00,1138.33,899.17
1632,1041.52,3136.87,26.73,1126.67,886.00
1634,1041.78,3139.32,0.00,1119.00,896.00
1636,1042.05,3141.77,0.00,1144.33,914.17
1638,1042.32,3144.21,19.91,1122.50,888.67
1640,1042.58,3146.65,46.87,1134.67,898.50
1642,1042.85,3149.09,75.18,1132.50,894.50
1644,1043.11,3151.52,97.07,1130.33,890.33
1646,1043.38,3153.96,61.10,1132.67,897.33
1648,1043.64,3156.39,90.37,1132.83,894.00
1650,1043.90,3158.81,213.74,1143.33,892.17
1652,1044.17,3161.24,369.22,1155.67,894.50
1654,1044.43,3163.66,447.61,1155.67,891.83
1656,1044.70,3166.08,489.62,1167.67,900.50
1658,1044.96,3168.49,275.50,1145.83,895.83
1660,1045.22,3170.91,238.11,1139.17,889.00
1662,1045.49,3173.32,142.51,1134.00,890.17
1664,1045.75,3175.73,35.75,1124.83,896.17
1666,1046.01,3178.13,36.07,1119.00,891.50
1668,1046.28,3180.54,24.91,1122.00,899.17
1670,1046.54,3182.94,135.68,1130.33,898.83
1672,1046.80,3185.34,171.53,1126.33,894.50
1674,1047.07,3187.73,185.42,1125.00,893.00
1676,1047.33,3190.12,214.43,1130.33,896.00
1678,1047.59,3192.51,329.90,1143.00,898.00
1680,1047.85,3194.90,461.51,1159.33,905.00
1682,1048.11,3197.29,626.78,1165.83,902.50
1684,1048.38,3199.67,774.44,1168.83,899.00
1686,1048.64,3202.05,939.75,1178.00,897.50
1688,1048.90,3204.43,840.57,1170.50,897.67
1690,1049.16,3206.80,757.04,1158.17,891.83
1692,1049.42,3209.17,806.48,1167.50,898.83
1694,1049.68,3211.54,783.51,1156.83,893.67
1696,1049.94,3213.91,870.56,1162.17,893.17
1698,1050.20,3216.27,734.85,1156.33,900.17
1700,1050.46,3218.63,838.84,1163.33,901.00
1702,1050.72,3220.99,927.63,1163.00,897.33
1704,1050.98,3223.35,900.07,1159.67,898.67
1706,1051.24,3225.70,864.57,1153.50,896.50
1708,1051.50,3228.05,935.94,1153.67,893.17
1710,1051.76,3230.40,1107.02,1170.17,900.00
1712,1052.02,3232.75,1166.45,1168.67,897.50
1714,1052.28,3235.09,1156.27,1169.67,901.17
1716,1052.54,3237.43,1153.39,1165.33,898.50
1718,1052.80,3239.77,1278.95,1165.67,891.00
1720,1053.06,3242.11,1248.85,1164.83,895.33
1722,1053.32,3244.44,1322.00,1165.83,894.33
1724,1053.58,3246.77,1484.51,1185.83,905.67
1726,1053.84,3249.10,1435.99,1168.83,894.33
1728,1054.10,3251.42,1568.89,1180.67,897.33
1730,1054.35,3253.75,1537.56,1172.83,893.83
1732,1054.61,3256.07,1681.38,1184.67,898.83
1734,1054.87,3258.39,1733.93,1180.83,895.50
1736,1055.13,3260.70,1827.12,1180.83,892.00
1738,1055.38,3263.01,1847.35,1182.17,893.83
1740,1055.64,3265.32,1740.29,1177.33,899.00
1742,1055.90,3267.63,1901.10,1176.50,890.83
1744,1056.16,3269.94,2079.42,1195.67,901.00
1746,1056.41,3272.24,1866.21,1181.33,902.50
1748,1056.67,3274.54,1944.59,1178.50,896.17
1750,1056.93,3276.84,1990.41,1179.50,897.00
1752,1057.18,3279.13,1981.60,1171.83,892.83
1754,1057.44,3281.42,1964.82,1164.67,889.83
1756,1057.69,3283.71,2054.66,1168.67,891.50
1758,1057.95,3286.00,1999.71,1173.17,902.33
1760,1058.21,3288.28,2003.33,1159.67,890.50
1762,1058.46,3290.57,1905.54,1161.83,900.67
1764,1058.72,3292.85,1984.31,1161.67,898.00
1766,1058.97,3295.12,1943.52,1149.17,890.83
1768,1059.23,3297.40,1926.56,1147.00,892.33
1770,1059.48,3299.67,1854.67,1148.00,900.17
1772,1059.74,3301.94,1900.33,1137.00,889.33
1774,1059.99,3304.21,2033.20,1153.33,901.33
1776,1060.25,3306.47,2019.00,1152.17,904.33
1778,1060.50,3308.73,1997.75,1139.17,894.67
1780,1060.76,3310.99,1892.78,1133.50,895.33
1782,1061.01,3313.25,1865.03,1129.17,892.50
1784,1061.26,3315.50,1812.67,1125.83,894.17
1786,1061.52,3317.76,1783.24,1125.67,899.83
1788,1061.77,3320.01,1960.92,1131.00,899.33
1790,1062.02,3322.25,1743.11,1110.50,893.00
1792,1062.28,3324.50,1985.53,1126.33,897.50
1794,1062.53,3326.74,1814.47,1107.17,889.50
1796,1062.78,3328.98,1861.08,1114.67,897.00
1798,1063.04,3331.22,1909.69,1107.83,889.83
1800,1063.29,3333.45,1855.17,1105.50,891.67
1802,1063.54,3335.68,1667.40,1097.67,895.00
1804,1063.79,3337.91,1832.10,1105.33,896.50
1806,1064.05,3340.14,1846.89,1111.00,903.67
1808,1064.30,3342.36,1774.83,1091.17,889.33
1810,1064.55,3344.59,1799.47,1097.67,897.17
1812,1064.80,3346.81,1805.75,1091.17,893.50
1814,1065.05,3349.02,1858.56,1092.33,894.33
1816,1065.30,3351.24,1748.89,1090.67,898.17
1818,1065.55,3353.45,1584.94,1081.17,896.50
1820,1065.81,3355.66,1603.82,1089.67,906.00
1822,1066.06,3357.87,1671.33,1077.17,894.17
1824,1066.31,3360.07,1727.15,1073.17,891.17
1826,1066.56,3362.27,1750.63,1076.67,895.33
1828,1066.81,3364.47,1657.44,1067.50,890.50
1830,1067.06,3366.67,1590.43,1070.33,896.50
1832,1067.31,3368.87,1480.40,1058.33,891.00
1834,1067.56,3371.06,1749.50,1058.50,882.17
1836,1067.81,3373.25,1616.11,1056.00,888.33
1838,1068.06,3375.44,1574.48,1055.83,891.67
1840,1068.31,3377.62,1606.46,1058.50,893.83
1842,1068.56,3379.81,1547.78,1047.83,886.33
1844,1068.80,3381.99,1361.06,1056.83,904.67
1846,1069.05,3384.16,1579.55,1056.33,897.33
1848,1069.30,3386.34,1652.01,1051.33,891.33
1850,1069.55,3388.51,1574.69,1044.83,889.50
1852,1069.80,3390.68,1399.44,1043.00,896.83
1854,1070.05,3392.85,1632.63,1055.17,902.17
1856,1070.30,3395.02,1450.17,1036.67,891.17
1858,1070.54,3397.18,1327.00,1029.67,888.67
1860,1070.79,3399.34,1282.85,1032.00,893.67
1862,1071.04,3401.50,1579.40,1034.83,887.33
1864,1071.29,3403.66,1294.40,1019.17,884.67
1866,1071.53,3405.81,1323.14,1028.67,894.50
1868,1071.78,3407.96,1269.37,1023.50,892.50
1870,1072.03,3410.11,1260.64,1025.33,896.17
1872,1072.27,3412.26,1335.21,1023.00,892.83
1874,1072.52,3414.40,1279.12,1016.00,889.00
1876,1072.77,3416.54,1330.41,1018.50,890.33
1878,1073.01,3418.68,1202.22,1023.17,900.17
1880,1073.26,3420.82,1224.61,1005.50,882.83
1882,1073.51,3422.96,1006.59,1011.17,897.50
1884,1073.75,3425.09,1199.30,1013.50,894.50
1886,1074.00,3427.22,1132.60,1001.33,885.67
1888,1074.24,3429.35,1061.86,1010.67,898.67
1890,1074.49,3431.47,1198.05,1005.00,890.33
1892,1074.73,3433.59,1267.40,1002.83,887.67
1894,1074.98,3435.71,1187.10,1012.50,900.50
1896,1075.22,3437.83,1077.06,1000.33,891.83
1898,1075.47,3439.95,917.79,1001.67,899.00
1900,1075.71,3442.06,1187.16,1005.83,896.33
1902,1075.96,3444.17,1098.03,996.00,891.00
1904,1076.20,3446.28,989.81,978.50,877.50
1906,1076.44,3448.38,904.43,1000.00,901.83
1908,1076.69,3450.49,864.17,997.50,901.17
1910,1076.93,3452.59,679.55,988.00,898.50
1912,1077.17,3454.69,951.71,986.00,890.00
1914,1077.42,3456.79,924.23,988.00,894.50
1916,1077.66,3458.88,991.27,982.83,888.83
1918,1077.90,3460.97,895.56,979.67,889.00
1920,1078.15,3463.06,831.97,986.00,897.17
1922,1078.39,3465.15,811.16,982.17,893.67
1924,1078.63,3467.23,722.05,973.33,887.33
1926,1078.87,3469.32,770.52,987.50,900.67
1928,1079.12,3471.40,607.43,971.00,890.67
1930,1079.36,3473.47,936.07,991.17,904.33
1932,1079.60,3475.55,896.41,968.83,884.67
1934,1079.84,3477.62,560.75,971.00,895.50
1936,1080.08,3479.69,629.90,968.17,890.83
1938,1080.33,3481.76,715.28,967.50,887.83
1940,1080.57,3483.83,497.98,968.17,894.83
1942,1080.81,3485.89,566.33,966.83,892.83
1944,1081.05,3487.95,646.90,971.17,897.00
1946,1081.29,3490.01,575.02,964.83,893.67
1948,1081.53,3492.07,636.58,957.33,885.00
1950,1081.77,3494.12,387.24,959.83,893.67
1952,1082.01,3496.18,401.72,960.33,894.67
1954,1082.25,3498.23,599.11,955.83,886.33
1956,1082.49,3500.27,375.30,960.17,895.33
1958,1082.73,3502.32,316.14,951.50,887.00
1960,1082.97,3504.36,173.71,958.67,898.83
1962,1083.21,3506.40,235.33,948.50,888.67
1964,1083.45,3508.44,644.22,949.67,883.33
1966,1083.69,3510.48,379.52,963.67,904.67
1968,1083.93,3512.51,703.56,956.50,890.83
1970,1084.16,3514.54,259.37,947.50,891.33
1972,1084.40,3516.57,569.28,953.67,891.50
1974,1084.64,3518.60,627.33,947.50,886.17
1976,1084.88,3520.62,478.70,958.00,900.50
1978,1085.12,3522.65,492.40,957.00,898.83
1980,1085.36,3524.67,347.90,946.83,891.83
1982,1085.59,3526.68,288.44,942.33,889.67
1984,1085.83,3528.70,302.25,949.17,897.67
1986,1086.07,3530.71,565.34,942.00,887.00
1988,1086.31,3532.72,462.14,949.17,897.50
1990,1086.54,3534.73,520.65,939.17,887.17
1992,1086.78,3536.74,644.80,951.83,896.67
1994,1087.02,3538.74,294.12,945.33,896.17
1996,1087.25,3540.74,88.73,934.00,890.33
1998,1087.49,3542.74,262.20,938.33,891.17
2000,1087.73,3544.74,257.95,934.67,889.83
2002,1087.96,3546.74,427.90,939.67,893.33
2004,1088.20,3548.73,193.60,945.00,903.00
2006,1088.43,3550.72,406.73,943.17,897.33
2008,1088.67,3552.71,374.32,936.00,891.50
2010,1088.90,3554.69,424.75,929.50,885.33
2012,1089.14,3556.68,402.73,936.67,893.83
2014,1089.38,3558.66,481.23,930.17,886.33
2016,1089.61,3560.64,290.73,926.67,886.00
2018,1089.84,3562.62,149.49,934.83,897.00
2020,1090.08,3564.59,299.87,926.50,885.67
2022,1090.31,3566.56,0.00,923.33,890.00
2024,1090.55,3568.53,196.19,927.83,891.67
2026,1090.78,3570.50,606.95,923.00,882.00
2028,1091.02,3572.47,544.33,923.83,883.33
2030,1091.25,3574.43,175.50,923.00,888.00
2032,1091.48,3576.39,155.01,913.00,878.67
2034,1091.72,3578.35,416.78,918.33,880.50
2036,1091.95,3580.31,307.67,920.67,886.33
2038,1092.18,3582.26,327.65,915.17,881.33
2040,1092.42,3584.22,199.28,908.67,876.33
2042,1092.65,3586.17,148.00,916.00,883.67
2044,1092.88,3588.12,0.00,909.50,881.83
2046,1093.11,3590.06,0.00,906.67,878.83
2047,1093.23,3591.03,20.71,904.33,873.83