File: enlighten/plugins/Raman/MatchingLibrary/785X/sodium acetate.csv
ENLIGHTEN Version,4.1.22
Measurement ID,20250220-204115-875770-WP-01977
Serial Number,WP-01977
Model,WP-785X-F13-R-ILC
Detector,S16011-1106
Label,sodium acetate
Declared Match,
Declared Score,0
Scan Averaging,1
Boxcar,0
Technique,Raman
Baseline Correction Algo,AirPLS
ROI Pixel Start,47
ROI Pixel End,2047
ROI Start Line,0
ROI Stop Line,63
CCD C4,1.38617e-12
Slit Width,25
Cropped,True
Interpolated,False
Wavenumber Correction,-0.100481
Raman Intensity Corrected,True
Deconvolved,True
Region,
High Gain Mode,False
Laser Power mW,
Electrical Dark Correction,False
Battery %,
Device ID,<DeviceID USB:0x24aa:0x1000:0:1>
FW Version,10.0.0.10
FPGA Version,035-001
BLE Version,
Prefix,enlighten
Suffix,
Preset,
Auto-Raman,True
Session Count,0
Plugin Name,
Integration Time,1416
Timestamp,2025-02-20 20:41:15.8758
Note,
Temperature,0
CCD C0,793.274
CCD C1,0.153259
CCD C2,1.40788e-05
CCD C3,-1.132e-08
CCD Offset,0
CCD Gain,1.9
CCD Offset Odd,0
CCD Gain Odd,1.9
Laser Wavelength,785.032
Laser Enable,False
Laser Power %,0
Laser Temperature,0
Pixel Count,2048

Pixel,Wavelength,Wavenumber,Processed,Raw,Dark
0,793.27,132.25,NA,1192.00,1161.00
2,793.58,137.12,NA,1256.00,1213.00
4,793.89,141.99,NA,1205.00,1203.00
6,794.19,146.86,NA,1222.00,1209.00
8,794.50,151.72,NA,1256.00,1230.00
10,794.81,156.58,NA,1275.00,1228.00
12,795.12,161.44,NA,1213.00,1180.00
14,795.42,166.30,NA,1218.00,1180.00
16,795.73,171.16,NA,1249.00,1184.00
18,796.04,176.01,NA,1296.00,1247.00
20,796.35,180.86,NA,1290.00,1232.00
22,796.65,185.71,NA,1347.00,1296.00
24,796.96,190.56,NA,1281.00,1233.00
26,797.27,195.41,NA,1355.00,1290.00
28,797.58,200.25,NA,1311.00,1271.00
30,797.88,205.09,NA,1254.00,1209.00
32,798.19,209.93,NA,1285.00,1233.00
34,798.50,214.77,NA,1300.00,1233.00
36,798.81,219.60,NA,1290.00,1215.00
38,799.12,224.43,NA,1334.00,1232.00
40,799.43,229.27,NA,1607.00,1289.00
42,799.74,234.09,NA,2363.00,1252.00
44,800.04,238.92,NA,3608.00,1340.00
46,800.35,243.75,NA,3996.00,1249.00
48,800.66,248.57,0.00,4074.00,1289.00
50,800.97,253.39,60.86,4159.00,1290.00
52,801.28,258.21,34.16,4163.00,1309.00
54,801.59,263.02,24.48,4180.00,1327.00
56,801.90,267.83,71.79,4165.00,1260.00
58,802.21,272.65,37.26,4165.00,1283.00
60,802.52,277.46,40.42,4174.00,1285.00
62,802.83,282.26,10.74,4191.00,1332.00
64,803.14,287.07,55.13,4256.00,1342.00
66,803.45,291.87,28.23,4235.00,1334.00
68,803.76,296.67,47.92,4248.00,1327.00
70,804.07,301.47,60.86,4199.00,1268.00
72,804.38,306.26,17.04,4170.00,1268.00
74,804.69,311.06,15.27,4172.00,1270.00
76,805.00,315.85,84.74,4231.00,1268.00
78,805.31,320.64,108.32,4275.00,1275.00
80,805.62,325.42,64.97,4282.00,1325.00
82,805.93,330.21,175.30,4330.00,1279.00
84,806.24,334.99,106.77,4229.00,1235.00
86,806.55,339.77,154.31,4324.00,1277.00
88,806.86,344.55,145.15,4347.00,1313.00
90,807.17,349.32,272.73,4410.00,1241.00
92,807.48,354.10,207.09,4391.00,1275.00
94,807.80,358.87,291.75,4504.00,1300.00
96,808.11,363.63,336.43,4522.00,1271.00
98,808.42,368.40,351.58,4518.00,1235.00
100,808.73,373.16,369.79,4544.00,1241.00
102,809.04,377.93,384.59,4542.00,1222.00
104,809.35,382.68,476.75,4658.00,1235.00
106,809.66,387.44,467.81,4670.00,1256.00
108,809.98,392.19,435.62,4586.00,1216.00
110,810.29,396.95,505.81,4746.00,1300.00
112,810.60,401.70,504.20,4715.00,1247.00
114,810.91,406.44,535.77,4755.00,1266.00
116,811.22,411.19,581.36,4814.00,1285.00
118,811.54,415.93,585.67,4846.00,1294.00
120,811.85,420.67,628.53,4833.00,1230.00
122,812.16,425.41,647.00,4871.00,1249.00
124,812.47,430.14,721.40,4989.00,1285.00
126,812.79,434.87,721.62,4943.00,1226.00
128,813.10,439.60,710.01,4907.00,1218.00
130,813.41,444.33,742.23,4975.00,1247.00
132,813.72,449.06,750.85,4968.00,1218.00
134,814.04,453.78,843.30,5104.00,1243.00
136,814.35,458.50,901.01,5135.00,1196.00
138,814.66,463.22,1008.56,5258.00,1201.00
140,814.98,467.93,986.76,5245.00,1222.00
142,815.29,472.65,885.94,5120.00,1220.00
144,815.60,477.36,808.17,5019.00,1249.00
146,815.92,482.06,764.47,4863.00,1182.00
148,816.23,486.77,726.33,4892.00,1283.00
150,816.54,491.47,641.99,4791.00,1315.00
152,816.86,496.17,575.42,4592.00,1230.00
154,817.17,500.87,480.28,4474.00,1270.00
156,817.48,505.57,394.48,4273.00,1220.00
158,817.80,510.26,265.02,4083.00,1213.00
160,818.11,514.95,225.81,4047.00,1273.00
162,818.42,519.64,162.91,3937.00,1262.00
164,818.74,524.32,67.77,3766.00,1247.00
166,819.05,529.00,130.23,3840.00,1277.00
168,819.37,533.68,45.89,3709.00,1260.00
170,819.68,538.36,40.56,3690.00,1268.00
172,819.99,543.04,50.36,3713.00,1304.00
174,820.31,547.71,2.73,3569.00,1249.00
176,820.62,552.38,15.99,3532.00,1199.00
178,820.94,557.05,0.00,3500.00,1224.00
180,821.25,561.71,6.66,3441.00,1171.00
182,821.57,566.37,0.00,3415.00,1203.00
184,821.88,571.03,10.51,3477.00,1239.00
186,822.20,575.69,0.00,3384.00,1239.00
188,822.51,580.34,0.00,3415.00,1224.00
190,822.83,584.99,0.00,3426.00,1252.00
192,823.14,589.64,0.00,3402.00,1228.00
194,823.46,594.29,0.00,3383.00,1249.00
196,823.77,598.93,38.91,3489.00,1235.00
198,824.09,603.57,59.69,3489.00,1197.00
200,824.40,608.21,129.24,3688.00,1237.00
202,824.72,612.85,328.03,4146.00,1260.00
204,825.03,617.48,933.04,5082.00,1245.00
206,825.35,622.11,1975.14,6261.00,1277.00
208,825.66,626.74,2019.20,6336.00,1262.00
210,825.98,631.36,1032.89,5235.00,1218.00
212,826.29,635.99,621.03,4691.00,1243.00
214,826.61,640.61,730.02,5032.00,1245.00
216,826.92,645.22,1595.14,6813.00,1209.00
218,827.24,649.84,4723.39,11020.00,1182.00
220,827.56,654.45,8038.02,14149.00,1258.00
222,827.87,659.06,4831.64,11214.00,1256.00
224,828.19,663.67,1440.82,6661.00,1239.00
226,828.50,668.27,584.25,4831.00,1364.00
228,828.82,672.87,379.29,4100.00,1260.00
230,829.13,677.47,195.89,3707.00,1215.00
232,829.45,682.06,95.71,3572.00,1249.00
234,829.77,686.66,62.39,3614.00,1364.00
236,830.08,691.25,64.18,3457.00,1226.00
238,830.40,695.83,27.38,3392.00,1237.00
240,830.72,700.42,0.00,3297.00,1216.00
242,831.03,705.00,13.50,3223.00,1146.00
244,831.35,709.58,7.78,3274.00,1228.00
246,831.66,714.15,3.73,3162.00,1146.00
248,831.98,718.73,0.00,3204.00,1249.00
250,832.30,723.30,0.00,3117.00,1197.00
252,832.61,727.87,0.00,3162.00,1258.00
254,832.93,732.43,0.00,3024.00,1121.00
256,833.25,736.99,13.59,3191.00,1241.00
258,833.56,741.55,0.00,3115.00,1211.00
260,833.88,746.11,0.00,3105.00,1218.00
262,834.20,750.66,0.00,3103.00,1211.00
264,834.51,755.22,2.55,3141.00,1241.00
266,834.83,759.76,43.95,3172.00,1233.00
268,835.15,764.31,21.57,3191.00,1254.00
270,835.47,768.85,0.00,3071.00,1196.00
272,835.78,773.39,8.01,3113.00,1213.00
274,836.10,777.93,74.08,3195.00,1211.00
276,836.42,782.46,81.44,3198.00,1196.00
278,836.73,787.00,117.78,3252.00,1190.00
280,837.05,791.52,92.08,3206.00,1186.00
282,837.37,796.05,76.86,3253.00,1251.00
284,837.69,800.57,158.70,3289.00,1175.00
286,838.00,805.09,151.66,3286.00,1188.00
288,838.32,809.61,144.63,3295.00,1211.00
290,838.64,814.13,104.21,3286.00,1256.00
292,838.95,818.64,82.23,3200.00,1209.00
294,839.27,823.15,94.68,3198.00,1215.00
296,839.59,827.65,78.58,3179.00,1216.00
298,839.91,832.15,28.64,3090.00,1207.00
300,840.22,836.65,37.18,3187.00,1304.00
302,840.54,841.15,0.50,3020.00,1194.00
304,840.86,845.65,0.00,3081.00,1268.00
306,841.18,850.14,0.00,3035.00,1249.00
308,841.50,854.63,0.00,3176.00,1366.00
310,841.81,859.11,0.00,3016.00,1207.00
312,842.13,863.60,0.00,3020.00,1228.00
314,842.45,868.07,0.00,2984.00,1201.00
316,842.77,872.55,0.00,3058.00,1245.00
318,843.08,877.03,0.00,3128.00,1281.00
320,843.40,881.50,0.00,3037.00,1161.00
322,843.72,885.97,0.00,3153.00,1251.00
324,844.04,890.43,6.39,3162.00,1182.00
326,844.36,894.89,29.42,3233.00,1197.00
328,844.67,899.35,91.59,3422.00,1245.00
330,844.99,903.81,215.88,3629.00,1186.00
332,845.31,908.26,477.51,4318.00,1239.00
334,845.63,912.71,959.83,6152.00,1262.00
336,845.95,917.16,3154.80,12601.00,1241.00
338,846.27,921.61,15495.32,30980.00,1843.00
340,846.58,926.05,30476.64,43121.00,1254.00
342,846.90,930.49,13790.68,28620.00,1252.00
344,847.22,934.92,2822.50,11760.00,1222.00
346,847.54,939.36,952.09,6008.00,1144.00
348,847.86,943.79,453.85,4370.00,1188.00
350,848.18,948.21,256.88,3840.00,1186.00
352,848.49,952.64,139.99,3662.00,1209.00
354,848.81,957.06,22.56,3449.00,1146.00
356,849.13,961.48,5.68,3536.00,1289.00
358,849.45,965.89,12.13,3500.00,1254.00
360,849.77,970.31,0.00,3430.00,1226.00
362,850.09,974.71,0.00,3413.00,1224.00
364,850.40,979.12,0.00,3523.00,1281.00
366,850.72,983.52,0.00,3536.00,1294.00
368,851.04,987.92,9.49,3510.00,1178.00
370,851.36,992.32,70.52,3627.00,1178.00
372,851.68,996.72,117.66,3791.00,1215.00
374,852.00,1001.11,275.57,4072.00,1190.00
376,852.32,1005.50,519.39,4362.00,1146.00
378,852.63,1009.88,637.37,4654.00,1279.00
380,852.95,1014.26,518.36,4506.00,1233.00
382,853.27,1018.64,331.25,4294.00,1260.00
384,853.59,1023.02,192.64,4022.00,1199.00
386,853.91,1027.39,91.44,3840.00,1177.00
388,854.23,1031.76,38.33,3779.00,1182.00
390,854.55,1036.13,42.52,3802.00,1197.00
392,854.87,1040.49,42.77,3815.00,1184.00
394,855.18,1044.86,0.00,3804.00,1252.00
396,855.50,1049.21,22.36,3863.00,1207.00
398,855.82,1053.57,58.13,3924.00,1228.00
400,856.14,1057.92,0.85,3863.00,1215.00
402,856.46,1062.27,48.14,3925.00,1186.00
404,856.78,1066.62,7.00,3865.00,1158.00
406,857.10,1070.96,3.00,3893.00,1167.00
408,857.42,1075.30,6.02,4030.00,1270.00
410,857.74,1079.64,48.85,4043.00,1196.00
412,858.06,1083.97,27.95,4011.00,1178.00
414,858.37,1088.30,27.51,4030.00,1167.00
416,858.69,1092.63,19.28,4041.00,1163.00
418,859.01,1096.95,11.97,4049.00,1161.00
420,859.33,1101.27,67.32,4186.00,1199.00
422,859.65,1105.59,12.94,4155.00,1209.00
424,859.97,1109.91,88.23,4241.00,1175.00
426,860.29,1114.22,32.79,4201.00,1173.00
428,860.61,1118.53,8.64,4168.00,1152.00
430,860.93,1122.84,29.16,4248.00,1186.00
432,861.25,1127.14,2.94,4318.00,1277.00
434,861.56,1131.44,18.61,4269.00,1163.00
436,861.88,1135.74,0.00,4267.00,1186.00
438,862.20,1140.03,0.00,4294.00,1213.00
440,862.52,1144.32,47.52,4430.00,1205.00
442,862.84,1148.61,0.00,4387.00,1222.00
444,863.16,1152.89,0.00,4410.00,1201.00
446,863.48,1157.17,14.10,4467.00,1192.00
448,863.80,1161.45,5.10,4504.00,1186.00
450,864.12,1165.73,0.00,4535.00,1211.00
452,864.44,1170.00,17.92,4605.00,1188.00
454,864.76,1174.27,0.00,4624.00,1207.00
456,865.07,1178.53,0.00,4599.00,1150.00
458,865.39,1182.80,0.00,4751.00,1230.00
460,865.71,1187.06,0.00,4785.00,1184.00
462,866.03,1191.31,0.00,4852.00,1216.00
464,866.35,1195.57,0.00,4913.00,1188.00
466,866.67,1199.82,0.00,5047.00,1222.00
468,866.99,1204.06,0.00,5070.00,1209.00
470,867.31,1208.31,21.71,5300.00,1235.00
472,867.63,1212.55,0.00,5239.00,1215.00
474,867.95,1216.79,0.00,5364.00,1139.00
476,868.27,1221.02,0.00,5545.00,1207.00
478,868.58,1225.25,0.00,5653.00,1158.00
480,868.90,1229.48,0.00,5887.00,1207.00
482,869.22,1233.71,0.00,6073.00,1230.00
484,869.54,1237.93,2.63,6314.00,1264.00
486,869.86,1242.15,78.07,6534.00,1205.00
488,870.18,1246.36,63.24,6591.00,1159.00
490,870.50,1250.58,29.32,6758.00,1196.00
492,870.82,1254.79,12.50,7003.00,1306.00
494,871.14,1258.99,0.00,7039.00,1215.00
496,871.46,1263.20,6.29,7250.00,1224.00
498,871.78,1267.40,6.45,7360.00,1190.00
500,872.10,1271.59,104.28,7662.00,1196.00
502,872.41,1275.79,201.19,7912.00,1171.00
504,872.73,1279.98,188.68,8089.00,1220.00
506,873.05,1284.17,300.61,8356.00,1247.00
508,873.37,1288.35,388.91,8411.00,1102.00
510,873.69,1292.53,446.21,8689.00,1159.00
512,874.01,1296.71,527.96,8903.00,1173.00
514,874.33,1300.88,677.50,9121.00,1127.00
516,874.65,1305.06,660.14,9325.00,1215.00
518,874.97,1309.22,780.96,9564.00,1158.00
520,875.29,1313.39,937.77,9881.00,1220.00
522,875.60,1317.55,989.70,10082.00,1232.00
524,875.92,1321.71,1042.43,10283.00,1203.00
526,876.24,1325.87,1305.11,10785.00,1239.00
528,876.56,1330.02,1463.10,11193.00,1197.00
530,876.88,1334.17,1966.61,12140.00,1235.00
532,877.20,1338.32,3058.94,13366.00,1159.00
534,877.52,1342.46,3242.48,13666.00,1163.00
536,877.84,1346.60,2556.27,13139.00,1199.00
538,878.16,1350.73,2176.76,12605.00,1190.00
540,878.47,1354.87,1864.50,12176.00,1203.00
542,878.79,1359.00,1592.35,11842.00,1192.00
544,879.11,1363.13,1632.93,11908.00,1197.00
546,879.43,1367.25,1528.96,11848.00,1199.00
548,879.75,1371.37,1606.03,11992.00,1177.00
550,880.07,1375.49,1629.82,12091.00,1182.00
552,880.39,1379.60,1687.63,12315.00,1199.00
554,880.71,1383.71,1825.85,12560.00,1190.00
556,881.03,1387.82,2069.27,12979.00,1171.00
558,881.34,1391.93,2187.58,13251.00,1121.00
560,881.66,1396.03,2538.98,13904.00,1180.00
562,881.98,1400.13,2868.36,14572.00,1211.00
564,882.30,1404.22,3358.21,15481.00,1224.00
566,882.62,1408.31,4162.41,16592.00,1171.00
568,882.94,1412.40,4987.47,17621.00,1220.00
570,883.26,1416.49,5200.08,17805.00,1199.00
572,883.57,1420.57,4139.27,16666.00,1247.00
574,883.89,1424.65,2813.61,14965.00,1167.00
576,884.21,1428.73,2074.43,14002.00,1241.00
578,884.53,1432.80,1836.32,13636.00,1260.00
580,884.85,1436.87,1940.20,13923.00,1158.00
582,885.17,1440.93,2318.28,15122.00,1148.00
584,885.49,1445.00,4442.42,18707.00,1165.00
586,885.80,1449.06,10022.26,24611.00,1171.00
588,886.12,1453.11,12364.15,26536.00,1260.00
590,886.44,1457.17,6072.88,20841.00,1218.00
592,886.76,1461.22,2196.65,15643.00,1201.00
594,887.08,1465.26,1088.06,13308.00,1233.00
596,887.40,1469.31,792.77,12457.00,1165.00
598,887.71,1473.35,660.93,12159.00,1144.00
600,888.03,1477.38,450.49,11979.00,1197.00
602,888.35,1481.42,239.58,11798.00,1235.00
604,888.67,1485.45,289.22,11825.00,1215.00
606,888.99,1489.48,261.82,11667.00,1173.00
608,889.31,1493.50,206.08,11591.00,1215.00
610,889.62,1497.52,188.02,11519.00,1218.00
612,889.94,1501.54,175.69,11371.00,1133.00
614,890.26,1505.56,107.54,11276.00,1196.00
616,890.58,1509.57,137.02,11253.00,1190.00
618,890.90,1513.57,102.99,11126.00,1158.00
620,891.21,1517.58,128.57,11124.00,1209.00
622,891.53,1521.58,176.59,11079.00,1203.00
624,891.85,1525.58,221.35,11029.00,1182.00
626,892.17,1529.57,118.19,10900.00,1226.00
628,892.49,1533.57,80.95,10766.00,1224.00
630,892.80,1537.56,113.45,10644.00,1161.00
632,893.12,1541.54,115.35,10572.00,1167.00
634,893.44,1545.52,39.86,10494.00,1213.00
636,893.76,1549.50,0.00,10261.00,1159.00
638,894.07,1553.48,0.00,10245.00,1216.00
640,894.39,1557.45,12.76,10202.00,1188.00
642,894.71,1561.42,39.41,10211.00,1224.00
644,895.03,1565.39,202.75,10219.00,1127.00
646,895.34,1569.35,245.30,10278.00,1232.00
648,895.66,1573.31,95.67,10038.00,1186.00
650,895.98,1577.26,54.63,9906.00,1173.00
652,896.30,1581.22,134.17,9925.00,1140.00
654,896.61,1585.17,80.95,9816.00,1173.00
656,896.93,1589.11,315.87,10063.00,1211.00
658,897.25,1593.06,355.03,9888.00,1154.00
660,897.57,1597.00,177.38,9761.00,1196.00
662,897.88,1600.93,8.96,9477.00,1218.00
664,898.20,1604.87,0.00,9344.00,1201.00
666,898.52,1608.80,0.00,9251.00,1173.00
668,898.84,1612.72,0.03,9150.00,1133.00
670,899.15,1616.65,11.64,9192.00,1199.00
672,899.47,1620.57,164.20,9239.00,1152.00
674,899.79,1624.49,137.24,9184.00,1188.00
676,900.10,1628.40,161.53,9163.00,1163.00
678,900.42,1632.31,116.94,9106.00,1230.00
680,900.74,1636.22,243.08,9074.00,1114.00
682,901.05,1640.12,176.70,9084.00,1262.00
684,901.37,1644.02,236.72,9040.00,1186.00
686,901.69,1647.92,276.68,9059.00,1220.00
688,902.00,1651.82,365.67,9049.00,1161.00
690,902.32,1655.71,344.06,8928.00,1142.00
692,902.64,1659.60,415.30,8970.00,1133.00
694,902.95,1663.48,419.92,8983.00,1197.00
696,903.27,1667.36,414.21,8873.00,1173.00
698,903.59,1671.24,431.12,8878.00,1226.00
700,903.90,1675.11,416.01,8785.00,1213.00
702,904.22,1678.99,393.52,8628.00,1137.00
704,904.54,1682.85,345.65,8664.00,1296.00
706,904.85,1686.72,305.61,8408.00,1154.00
708,905.17,1690.58,314.88,8374.00,1177.00
710,905.49,1694.44,243.95,8187.00,1139.00
712,905.80,1698.29,273.46,8203.00,1177.00
714,906.12,1702.15,344.83,8220.00,1199.00
716,906.43,1706.00,252.92,8055.00,1201.00
718,906.75,1709.84,207.11,7992.00,1226.00
720,907.07,1713.68,171.53,7802.00,1169.00
722,907.38,1717.52,207.28,7794.00,1201.00
724,907.70,1721.36,106.90,7618.00,1175.00
726,908.01,1725.19,75.92,7542.00,1194.00
728,908.33,1729.02,96.37,7514.00,1216.00
730,908.65,1732.85,127.98,7441.00,1173.00
732,908.96,1736.67,91.88,7386.00,1216.00
734,909.28,1740.49,87.50,7267.00,1171.00
736,909.59,1744.30,111.14,7274.00,1209.00
738,909.91,1748.12,80.90,7141.00,1167.00
740,910.22,1751.93,41.07,7081.00,1203.00
742,910.54,1755.73,0.00,7075.00,1338.00
744,910.85,1759.54,66.40,6991.00,1209.00
746,911.17,1763.34,87.14,6889.00,1165.00
748,911.49,1767.13,49.93,6872.00,1196.00
750,911.80,1770.93,1.19,6686.00,1150.00
752,912.12,1774.72,23.71,6756.00,1235.00
754,912.43,1778.50,0.00,6538.00,1144.00
756,912.75,1782.29,9.43,6543.00,1146.00
758,913.06,1786.07,87.44,6572.00,1137.00
760,913.38,1789.84,94.59,6562.00,1169.00
762,913.69,1793.62,37.01,6494.00,1205.00
764,914.01,1797.39,50.39,6443.00,1186.00
766,914.32,1801.15,85.80,6424.00,1188.00
768,914.64,1804.92,47.94,6318.00,1137.00
770,914.95,1808.68,7.34,6293.00,1218.00
772,915.26,1812.44,34.15,6266.00,1211.00
774,915.58,1816.19,125.75,6224.00,1140.00
776,915.89,1819.94,82.69,6207.00,1196.00
778,916.21,1823.69,136.14,6223.00,1190.00
780,916.52,1827.43,109.94,6226.00,1268.00
782,916.84,1831.17,203.90,6164.00,1154.00
784,917.15,1834.91,224.18,6112.00,1137.00
786,917.47,1838.64,255.73,6179.00,1201.00
788,917.78,1842.38,284.88,6111.00,1169.00
790,918.09,1846.10,306.21,6075.00,1146.00
792,918.41,1849.83,232.26,5993.00,1188.00
794,918.72,1853.55,230.12,5887.00,1137.00
796,919.04,1857.27,199.89,5843.00,1165.00
798,919.35,1860.98,225.46,5830.00,1171.00
800,919.66,1864.69,332.96,5883.00,1173.00
802,919.98,1868.40,300.34,5826.00,1196.00
804,920.29,1872.11,364.25,5847.00,1180.00
806,920.60,1875.81,330.74,5765.00,1178.00
808,920.92,1879.51,355.36,5723.00,1150.00
810,921.23,1883.20,347.87,5708.00,1207.00
812,921.55,1886.90,374.39,5606.00,1133.00
814,921.86,1890.58,388.50,5638.00,1196.00
816,922.17,1894.27,372.16,5611.00,1224.00
818,922.49,1897.95,299.84,5473.00,1197.00
820,922.80,1901.63,302.81,5404.00,1180.00
822,923.11,1905.31,394.36,5423.00,1169.00
824,923.42,1908.98,306.50,5336.00,1207.00
826,923.74,1912.65,298.27,5290.00,1205.00
828,924.05,1916.31,288.50,5171.00,1165.00
830,924.36,1919.98,313.65,5156.00,1159.00
832,924.68,1923.64,296.76,5091.00,1142.00
834,924.99,1927.29,361.30,5093.00,1150.00
836,925.30,1930.94,379.27,5025.00,1120.00
838,925.61,1934.59,336.41,5004.00,1167.00
840,925.93,1938.24,283.47,4922.00,1178.00
842,926.24,1941.88,259.15,4869.00,1197.00
844,926.55,1945.52,292.87,4804.00,1158.00
846,926.86,1949.16,275.71,4759.00,1177.00
848,927.18,1952.79,209.01,4641.00,1161.00
850,927.49,1956.42,252.04,4626.00,1148.00
852,927.80,1960.05,215.33,4620.00,1230.00
854,928.11,1963.67,244.94,4552.00,1184.00
856,928.42,1967.29,266.97,4571.00,1215.00
858,928.74,1970.91,232.04,4457.00,1167.00
860,929.05,1974.52,218.30,4385.00,1165.00
862,929.36,1978.13,203.34,4290.00,1144.00
864,929.67,1981.74,207.84,4275.00,1169.00
866,929.98,1985.35,134.01,4189.00,1188.00
868,930.29,1988.95,94.03,4106.00,1190.00
870,930.61,1992.54,106.39,4037.00,1144.00
872,930.92,1996.14,71.93,3986.00,1178.00
874,931.23,1999.73,164.37,4043.00,1201.00
876,931.54,2003.32,99.28,3943.00,1182.00
878,931.85,2006.90,56.37,3863.00,1192.00
880,932.16,2010.48,116.53,3836.00,1165.00
882,932.47,2014.06,80.99,3755.00,1152.00
884,932.78,2017.63,45.72,3707.00,1184.00
886,933.09,2021.21,97.08,3700.00,1180.00
888,933.41,2024.77,68.52,3654.00,1192.00
890,933.72,2028.34,32.34,3631.00,1254.00
892,934.03,2031.90,58.57,3548.00,1186.00
894,934.34,2035.46,9.85,3489.00,1216.00
896,934.65,2039.01,21.45,3390.00,1150.00
898,934.96,2042.57,21.76,3394.00,1199.00
900,935.27,2046.11,0.00,3383.00,1266.00
902,935.58,2049.66,51.14,3261.00,1123.00
904,935.89,2053.20,9.16,3253.00,1186.00
906,936.20,2056.74,2.72,3202.00,1175.00
908,936.51,2060.28,6.95,3170.00,1177.00
910,936.82,2063.81,59.91,3202.00,1207.00
912,937.13,2067.34,29.31,3141.00,1201.00
914,937.44,2070.86,30.30,3090.00,1182.00
916,937.75,2074.39,60.39,3026.00,1135.00
918,938.06,2077.91,0.00,2972.00,1167.00
920,938.37,2081.42,0.00,2927.00,1182.00
922,938.68,2084.94,0.22,2891.00,1150.00
924,938.99,2088.45,22.42,2885.00,1152.00
926,939.30,2091.95,0.00,2855.00,1197.00
928,939.60,2095.46,7.62,2824.00,1163.00
930,939.91,2098.96,0.00,2860.00,1241.00
932,940.22,2102.45,5.33,2794.00,1182.00
934,940.53,2105.95,47.08,2762.00,1144.00
936,940.84,2109.44,29.34,2769.00,1190.00
938,941.15,2112.92,24.03,2733.00,1178.00
940,941.46,2116.41,21.12,2686.00,1161.00
942,941.77,2119.89,30.24,2691.00,1178.00
944,942.07,2123.37,17.46,2655.00,1177.00
946,942.38,2126.84,23.33,2661.00,1209.00
948,942.69,2130.31,52.32,2667.00,1199.00
950,943.00,2133.78,0.00,2551.00,1169.00
952,943.31,2137.24,0.00,2530.00,1197.00
954,943.62,2140.70,0.00,2526.00,1188.00
956,943.92,2144.16,16.70,2521.00,1171.00
958,944.23,2147.62,55.70,2532.00,1171.00
960,944.54,2151.07,0.00,2536.00,1235.00
962,944.85,2154.52,0.00,2534.00,1243.00
964,945.16,2157.96,0.00,2481.00,1211.00
966,945.46,2161.40,49.26,2515.00,1205.00
968,945.77,2164.84,19.65,2374.00,1108.00
970,946.08,2168.28,47.65,2458.00,1180.00
972,946.39,2171.71,29.86,2405.00,1150.00
974,946.69,2175.14,4.64,2390.00,1171.00
976,947.00,2178.57,3.57,2392.00,1188.00
978,947.31,2181.99,10.62,2344.00,1142.00
980,947.61,2185.41,0.00,2354.00,1201.00
982,947.92,2188.82,11.13,2386.00,1209.00
984,948.23,2192.24,12.82,2312.00,1139.00
986,948.53,2195.65,13.14,2363.00,1194.00
988,948.84,2199.05,38.67,2278.00,1101.00
990,949.15,2202.46,27.27,2348.00,1192.00
992,949.45,2205.86,37.79,2329.00,1167.00
994,949.76,2209.25,24.35,2285.00,1139.00
996,950.07,2212.65,24.84,2299.00,1163.00
998,950.37,2216.04,14.18,2257.00,1139.00
1000,950.68,2219.43,25.27,2283.00,1163.00
1002,950.98,2222.81,78.39,2348.00,1199.00
1004,951.29,2226.19,51.02,2270.00,1150.00
1006,951.60,2229.57,56.88,2255.00,1121.00
1008,951.90,2232.94,24.45,2242.00,1146.00
1010,952.21,2236.32,89.32,2278.00,1150.00
1012,952.51,2239.68,60.21,2278.00,1182.00
1014,952.82,2243.05,39.07,2194.00,1102.00
1016,953.12,2246.41,36.53,2323.00,1247.00
1018,953.43,2249.77,119.23,2388.00,1275.00
1020,953.73,2253.12,76.31,2289.00,1213.00
1022,954.04,2256.48,30.16,2164.00,1120.00
1024,954.34,2259.83,11.96,2245.00,1224.00
1026,954.65,2263.17,52.01,2194.00,1150.00
1028,954.95,2266.51,37.89,2194.00,1169.00
1030,955.26,2269.85,11.79,2232.00,1235.00
1032,955.56,2273.19,83.99,2234.00,1196.00
1034,955.87,2276.52,72.17,2230.00,1197.00
1036,956.17,2279.85,18.42,2221.00,1230.00
1038,956.48,2283.18,0.00,2093.00,1137.00
1040,956.78,2286.50,0.00,2109.00,1154.00
1042,957.08,2289.82,62.25,2109.00,1112.00
1044,957.39,2293.14,13.87,2152.00,1192.00
1046,957.69,2296.45,9.70,2090.00,1139.00
1048,957.99,2299.76,75.15,2215.00,1218.00
1050,958.30,2303.07,47.85,2156.00,1190.00
1052,958.60,2306.38,48.29,2139.00,1178.00
1054,958.91,2309.68,38.50,2149.00,1201.00
1056,959.21,2312.98,5.11,2061.00,1140.00
1058,959.51,2316.27,0.00,2080.00,1175.00
1060,959.82,2319.56,24.18,2175.00,1241.00
1062,960.12,2322.85,66.24,2116.00,1158.00
1064,960.42,2326.14,128.34,2135.00,1146.00
1066,960.72,2329.42,192.78,2190.00,1167.00
1068,961.03,2332.70,109.26,2168.00,1192.00
1070,961.33,2335.97,103.74,2169.00,1197.00
1072,961.63,2339.25,126.14,2124.00,1154.00
1074,961.93,2342.52,89.03,2128.00,1182.00
1076,962.24,2345.78,41.49,2074.00,1163.00
1078,962.54,2349.05,55.59,2093.00,1177.00
1080,962.84,2352.31,88.12,2092.00,1167.00
1082,963.14,2355.56,69.47,2050.00,1144.00
1084,963.45,2358.82,57.31,2078.00,1171.00
1086,963.75,2362.07,53.45,2088.00,1186.00
1088,964.05,2365.32,49.57,2128.00,1245.00
1090,964.35,2368.56,50.77,2056.00,1177.00
1092,964.65,2371.80,8.69,2078.00,1233.00
1094,964.95,2375.04,88.46,2065.00,1171.00
1096,965.25,2378.27,25.53,2019.00,1169.00
1098,965.56,2381.51,40.32,2042.00,1182.00
1100,965.86,2384.73,60.02,2046.00,1180.00
1102,966.16,2387.96,63.30,2035.00,1169.00
1104,966.46,2391.18,33.97,2073.00,1233.00
1106,966.76,2394.40,116.24,2046.00,1161.00
1108,967.06,2397.62,54.78,2052.00,1209.00
1110,967.36,2400.83,107.13,2025.00,1144.00
1112,967.66,2404.04,19.04,2042.00,1232.00
1114,967.96,2407.25,69.88,1970.00,1129.00
1116,968.26,2410.45,14.70,1987.00,1175.00
1118,968.56,2413.65,0.41,1938.00,1152.00
1120,968.86,2416.85,79.40,2073.00,1232.00
1122,969.16,2420.04,25.72,1987.00,1194.00
1124,969.46,2423.23,41.58,1944.00,1144.00
1126,969.76,2426.42,89.36,2002.00,1178.00
1128,970.06,2429.60,75.30,1932.00,1118.00
1130,970.36,2432.79,103.81,1993.00,1165.00
1132,970.66,2435.96,50.47,1953.00,1167.00
1134,970.96,2439.14,82.08,1976.00,1171.00
1136,971.26,2442.31,69.14,2012.00,1218.00
1138,971.56,2445.48,136.96,2018.00,1184.00
1140,971.86,2448.65,79.70,1945.00,1158.00
1142,972.16,2451.81,158.04,2023.00,1192.00
1144,972.45,2454.97,91.31,1989.00,1201.00
1146,972.75,2458.13,89.05,1970.00,1186.00
1148,973.05,2461.28,178.63,1970.00,1144.00
1150,973.35,2464.43,217.80,2040.00,1197.00
1152,973.65,2467.58,102.61,1974.00,1188.00
1154,973.95,2470.72,126.10,1993.00,1192.00
1156,974.24,2473.86,169.77,1980.00,1173.00
1158,974.54,2477.00,206.17,1949.00,1135.00
1160,974.84,2480.13,204.02,1997.00,1184.00
1162,975.14,2483.27,194.22,1968.00,1158.00
1164,975.43,2486.40,148.47,1907.00,1131.00
1166,975.73,2489.52,195.56,1957.00,1158.00
1168,976.03,2492.64,154.63,1928.00,1154.00
1170,976.33,2495.76,165.11,1955.00,1180.00
1172,976.62,2498.88,162.45,1907.00,1148.00
1174,976.92,2501.99,159.38,1959.00,1205.00
1176,977.22,2505.10,110.42,1928.00,1197.00
1178,977.51,2508.21,105.73,1911.00,1188.00
1180,977.81,2511.31,124.15,1892.00,1175.00
1182,978.11,2514.41,111.05,1875.00,1173.00
1184,978.40,2517.51,80.43,1887.00,1196.00
1186,978.70,2520.61,41.41,1860.00,1188.00
1188,979.00,2523.70,27.79,1877.00,1222.00
1190,979.29,2526.79,90.96,1845.00,1165.00
1192,979.59,2529.87,161.26,1868.00,1165.00
1194,979.88,2532.95,63.63,1805.00,1152.00
1196,980.18,2536.03,79.31,1864.00,1205.00
1198,980.48,2539.11,61.51,1877.00,1226.00
1200,980.77,2542.18,61.27,1831.00,1178.00
1202,981.07,2545.25,24.70,1849.00,1228.00
1204,981.36,2548.32,67.62,1816.00,1177.00
1206,981.66,2551.38,51.53,1856.00,1235.00
1208,981.95,2554.44,134.86,1824.00,1159.00
1210,982.25,2557.50,8.80,1849.00,1251.00
1212,982.54,2560.56,39.84,1856.00,1239.00
1214,982.84,2563.61,131.98,1890.00,1249.00
1216,983.13,2566.66,37.18,1837.00,1239.00
1218,983.43,2569.70,22.60,1805.00,1209.00
1220,983.72,2572.74,8.94,1820.00,1239.00
1222,984.01,2575.78,34.25,1809.00,1220.00
1224,984.31,2578.82,50.46,1773.00,1184.00
1226,984.60,2581.85,67.22,1807.00,1213.00
1228,984.90,2584.88,53.80,1742.00,1152.00
1230,985.19,2587.91,29.79,1773.00,1194.00
1232,985.48,2590.93,29.41,1790.00,1216.00
1234,985.78,2593.96,110.04,1795.00,1197.00
1236,986.07,2596.97,74.56,1776.00,1196.00
1238,986.36,2599.99,34.98,1841.00,1275.00
1240,986.66,2603.00,59.26,1822.00,1249.00
1242,986.95,2606.01,82.46,1813.00,1241.00
1244,987.24,2609.01,25.49,1786.00,1241.00
1246,987.54,2612.02,43.13,1674.00,1121.00
1248,987.83,2615.02,0.00,1763.00,1237.00
1250,988.12,2618.01,20.48,1775.00,1235.00
1252,988.41,2621.01,67.45,1769.00,1213.00
1254,988.71,2624.00,114.43,1738.00,1171.00
1256,989.00,2626.99,18.13,1756.00,1230.00
1258,989.29,2629.97,106.69,1775.00,1207.00
1260,989.58,2632.95,41.68,1771.00,1239.00
1262,989.87,2635.93,115.40,1797.00,1226.00
1264,990.16,2638.91,90.45,1744.00,1178.00
1266,990.46,2641.88,135.73,1837.00,1245.00
1268,990.75,2644.85,326.09,1955.00,1298.00
1270,991.04,2647.81,558.80,1921.00,1203.00
1272,991.33,2650.78,528.95,1928.00,1213.00
1274,991.62,2653.74,356.63,1864.00,1205.00
1276,991.91,2656.70,298.86,1830.00,1190.00
1278,992.20,2659.65,181.40,1799.00,1220.00
1280,992.49,2662.60,211.65,1756.00,1173.00
1282,992.78,2665.55,201.05,1854.00,1279.00
1284,993.07,2668.50,145.98,1818.00,1268.00
1286,993.36,2671.44,172.99,1799.00,1235.00
1288,993.65,2674.38,23.17,1761.00,1271.00
1290,993.94,2677.31,149.49,1757.00,1215.00
1292,994.23,2680.25,162.70,1750.00,1213.00
1294,994.52,2683.18,162.38,1752.00,1220.00
1296,994.81,2686.10,127.02,1763.00,1235.00
1298,995.10,2689.03,25.84,1714.00,1228.00
1300,995.39,2691.95,29.63,1683.00,1199.00
1302,995.68,2694.87,55.50,1742.00,1258.00
1304,995.97,2697.78,74.14,1727.00,1241.00
1306,996.26,2700.70,56.66,1655.00,1178.00
1308,996.55,2703.61,57.41,1701.00,1224.00
1310,996.84,2706.51,11.38,1716.00,1256.00
1312,997.13,2709.42,8.27,1699.00,1241.00
1314,997.41,2712.32,16.54,1706.00,1241.00
1316,997.70,2715.21,0.00,1672.00,1228.00
1318,997.99,2718.11,31.05,1678.00,1209.00
1320,998.28,2721.00,31.18,1657.00,1196.00
1322,998.57,2723.89,113.12,1740.00,1247.00
1324,998.86,2726.77,56.97,1663.00,1177.00
1326,999.14,2729.66,66.75,1723.00,1228.00
1328,999.43,2732.54,139.98,1731.00,1211.00
1330,999.72,2735.41,212.55,1746.00,1215.00
1332,1000.01,2738.29,272.49,1818.00,1273.00
1334,1000.29,2741.16,291.59,1790.00,1232.00
1336,1000.58,2744.03,218.55,1721.00,1184.00
1338,1000.87,2746.89,264.17,1807.00,1247.00
1340,1001.15,2749.75,122.51,1746.00,1233.00
1342,1001.44,2752.61,150.79,1750.00,1224.00
1344,1001.73,2755.47,166.70,1714.00,1197.00
1346,1002.01,2758.32,344.51,1756.00,1194.00
1348,1002.30,2761.17,102.43,1771.00,1275.00
1350,1002.59,2764.02,77.43,1769.00,1268.00
1352,1002.87,2766.86,10.39,1691.00,1224.00
1354,1003.16,2769.70,76.40,1682.00,1186.00
1356,1003.44,2772.54,157.21,1691.00,1180.00
1358,1003.73,2775.38,57.35,1706.00,1226.00
1360,1004.01,2778.21,0.00,1638.00,1178.00
1362,1004.30,2781.04,65.33,1693.00,1207.00
1364,1004.58,2783.87,50.36,1676.00,1192.00
1366,1004.87,2786.69,37.10,1630.00,1144.00
1368,1005.15,2789.51,0.00,1710.00,1241.00
1370,1005.44,2792.33,31.93,1733.00,1245.00
1372,1005.72,2795.14,64.49,1721.00,1226.00
1374,1006.01,2797.95,6.20,1748.00,1260.00
1376,1006.29,2800.76,0.00,1678.00,1207.00
1378,1006.58,2803.57,0.00,1776.00,1308.00
1380,1006.86,2806.37,0.00,1689.00,1186.00
1382,1007.14,2809.17,0.00,1685.00,1215.00
1384,1007.43,2811.97,0.00,1701.00,1196.00
1386,1007.71,2814.77,0.00,1729.00,1184.00
1388,1008.00,2817.56,20.34,1754.00,1177.00
1390,1008.28,2820.35,61.91,1850.00,1241.00
1392,1008.56,2823.13,71.27,1811.00,1184.00
1394,1008.85,2825.91,177.84,1902.00,1222.00
1396,1009.13,2828.69,207.29,1917.00,1216.00
1398,1009.41,2831.47,503.61,2046.00,1243.00
1400,1009.69,2834.24,520.80,1974.00,1159.00
1402,1009.98,2837.02,681.77,2078.00,1209.00
1404,1010.26,2839.78,518.28,2105.00,1262.00
1406,1010.54,2842.55,471.23,2033.00,1184.00
1408,1010.82,2845.31,436.85,2088.00,1233.00
1410,1011.11,2848.07,264.23,2067.00,1245.00
1412,1011.39,2850.83,140.18,2065.00,1266.00
1414,1011.67,2853.58,191.87,2046.00,1218.00
1416,1011.95,2856.33,65.38,2033.00,1222.00
1418,1012.23,2859.08,29.37,2040.00,1213.00
1420,1012.51,2861.83,1.10,2006.00,1190.00
1422,1012.80,2864.57,0.54,2122.00,1294.00
1424,1013.08,2867.31,0.00,2103.00,1264.00
1426,1013.36,2870.04,0.00,2080.00,1262.00
1428,1013.64,2872.78,0.00,2124.00,1247.00
1430,1013.92,2875.51,0.00,2171.00,1298.00
1432,1014.20,2878.24,0.00,2152.00,1216.00
1434,1014.48,2880.96,0.00,2145.00,1216.00
1436,1014.76,2883.68,0.00,2166.00,1163.00
1438,1015.04,2886.40,0.00,2232.00,1190.00
1440,1015.32,2889.12,91.05,2395.00,1245.00
1442,1015.60,2891.83,221.34,2388.00,1203.00
1444,1015.88,2894.54,781.86,2587.00,1256.00
1446,1016.16,2897.25,1166.24,2606.00,1175.00
1448,1016.44,2899.96,1521.26,2783.00,1243.00
1450,1016.72,2902.66,2120.14,2929.00,1226.00
1452,1017.00,2905.36,2713.98,3147.00,1283.00
1454,1017.28,2908.06,3430.83,3271.00,1197.00
1456,1017.55,2910.75,4586.30,3667.00,1266.00
1458,1017.83,2913.44,5931.53,3971.00,1203.00
1460,1018.11,2916.13,8172.86,4594.00,1235.00
1462,1018.39,2918.81,11054.87,5306.00,1239.00
1464,1018.67,2921.49,14962.40,6137.00,1243.00
1466,1018.95,2924.17,20545.09,7126.00,1222.00
1468,1019.22,2926.85,25081.33,7836.00,1251.00
1470,1019.50,2929.52,25967.72,7859.00,1182.00
1472,1019.78,2932.20,22822.28,7350.00,1169.00
1474,1020.06,2934.86,17003.14,6342.00,1192.00
1476,1020.33,2937.53,12409.36,5547.00,1294.00
1478,1020.61,2940.19,8938.97,4711.00,1232.00
1480,1020.89,2942.85,6488.16,4117.00,1239.00
1482,1021.17,2945.51,4730.93,3648.00,1218.00
1484,1021.44,2948.16,3478.66,3326.00,1218.00
1486,1021.72,2950.81,2763.33,3134.00,1207.00
1488,1022.00,2953.46,2011.70,3031.00,1275.00
1490,1022.27,2956.11,1482.83,2834.00,1197.00
1492,1022.55,2958.75,1117.56,2822.00,1273.00
1494,1022.82,2961.39,977.95,2731.00,1207.00
1496,1023.10,2964.03,551.32,2695.00,1262.00
1498,1023.38,2966.66,582.55,2617.00,1209.00
1500,1023.65,2969.29,627.47,2617.00,1233.00
1502,1023.93,2971.92,283.19,2608.00,1281.00
1504,1024.20,2974.55,40.99,2513.00,1262.00
1506,1024.48,2977.17,44.48,2462.00,1239.00
1508,1024.75,2979.79,191.91,2403.00,1190.00
1510,1025.03,2982.41,228.53,2405.00,1216.00
1512,1025.30,2985.02,0.00,2297.00,1194.00
1514,1025.58,2987.63,8.02,2333.00,1233.00
1516,1025.85,2990.24,0.00,2259.00,1199.00
1518,1026.13,2992.85,23.60,2329.00,1270.00
1520,1026.40,2995.45,66.20,2287.00,1241.00
1522,1026.68,2998.05,122.61,2245.00,1215.00
1524,1026.95,3000.65,444.65,2321.00,1252.00
1526,1027.22,3003.25,583.13,2278.00,1216.00
1528,1027.50,3005.84,623.38,2238.00,1197.00
1530,1027.77,3008.43,798.74,2295.00,1245.00
1532,1028.04,3011.02,517.05,2266.00,1279.00
1534,1028.32,3013.60,528.60,2205.00,1232.00
1536,1028.59,3016.18,856.35,2266.00,1260.00
1538,1028.86,3018.76,1033.16,2162.00,1158.00
1540,1029.14,3021.34,894.94,2173.00,1213.00
1542,1029.41,3023.91,697.13,2124.00,1215.00
1544,1029.68,3026.48,666.61,2063.00,1180.00
1546,1029.95,3029.05,602.52,2099.00,1241.00
1548,1030.22,3031.61,160.27,1981.00,1215.00
1550,1030.50,3034.17,272.18,1974.00,1203.00
1552,1030.77,3036.73,212.30,1944.00,1207.00
1554,1031.04,3039.29,471.04,1987.00,1235.00
1556,1031.31,3041.84,338.82,1877.00,1163.00
1558,1031.58,3044.39,105.32,1957.00,1290.00
1560,1031.85,3046.94,41.07,1906.00,1268.00
1562,1032.13,3049.49,205.90,1843.00,1196.00
1564,1032.40,3052.03,124.30,1875.00,1266.00
1566,1032.67,3054.57,572.83,1824.00,1167.00
1568,1032.94,3057.11,116.65,1864.00,1277.00
1570,1033.21,3059.64,58.28,1742.00,1180.00
1572,1033.48,3062.18,0.00,1786.00,1273.00
1574,1033.75,3064.70,270.90,1822.00,1262.00
1576,1034.02,3067.23,319.52,1828.00,1275.00
1578,1034.29,3069.75,120.17,1701.00,1184.00
1580,1034.56,3072.28,197.83,1757.00,1237.00
1582,1034.83,3074.79,121.35,1657.00,1154.00
1584,1035.10,3077.31,149.85,1738.00,1239.00
1586,1035.37,3079.82,17.59,1676.00,1207.00
1588,1035.64,3082.33,0.00,1744.00,1287.00
1590,1035.91,3084.84,198.78,1742.00,1260.00
1592,1036.17,3087.34,82.77,1661.00,1201.00
1594,1036.44,3089.85,18.76,1752.00,1308.00
1596,1036.71,3092.35,153.92,1666.00,1209.00
1598,1036.98,3094.84,6.73,1611.00,1177.00
1600,1037.25,3097.34,0.00,1607.00,1178.00
1602,1037.52,3099.83,145.67,1655.00,1213.00
1604,1037.78,3102.32,342.47,1685.00,1218.00
1606,1038.05,3104.80,2.92,1678.00,1258.00
1608,1038.32,3107.29,0.00,1640.00,1226.00
1610,1038.59,3109.77,44.76,1651.00,1228.00
1612,1038.85,3112.24,46.42,1621.00,1203.00
1614,1039.12,3114.72,0.00,1674.00,1270.00
1616,1039.39,3117.19,119.10,1585.00,1167.00
1618,1039.66,3119.66,0.00,1644.00,1247.00
1620,1039.92,3122.13,0.00,1664.00,1268.00
1622,1040.19,3124.59,0.00,1630.00,1241.00
1624,1040.45,3127.05,159.61,1602.00,1180.00
1626,1040.72,3129.51,161.46,1657.00,1237.00
1628,1040.99,3131.97,0.00,1668.00,1266.00
1630,1041.25,3134.42,73.62,1708.00,1292.00
1632,1041.52,3136.87,36.89,1606.00,1190.00
1634,1041.78,3139.32,0.77,1655.00,1245.00
1636,1042.05,3141.77,0.00,1784.00,1383.00
1638,1042.32,3144.21,33.31,1636.00,1218.00
1640,1042.58,3146.65,0.00,1702.00,1285.00
1642,1042.85,3149.09,385.78,1704.00,1245.00
1644,1043.11,3151.52,243.01,1666.00,1215.00
1646,1043.38,3153.96,0.00,1706.00,1285.00
1648,1043.64,3156.39,183.72,1668.00,1211.00
1650,1043.90,3158.81,103.31,1689.00,1245.00
1652,1044.17,3161.24,365.56,1721.00,1254.00
1654,1044.43,3163.66,10.91,1647.00,1209.00
1656,1044.70,3166.08,255.86,1784.00,1321.00
1658,1044.96,3168.49,226.90,1735.00,1251.00
1660,1045.22,3170.91,1.11,1663.00,1218.00
1662,1045.49,3173.32,0.00,1697.00,1254.00
1664,1045.75,3175.73,154.56,1729.00,1260.00
1666,1046.01,3178.13,358.49,1687.00,1207.00
1668,1046.28,3180.54,365.34,1778.00,1287.00
1670,1046.54,3182.94,45.68,1752.00,1290.00
1672,1046.80,3185.34,445.26,1767.00,1258.00
1674,1047.07,3187.73,449.56,1710.00,1205.00
1676,1047.33,3190.12,415.45,1754.00,1252.00
1678,1047.59,3192.51,348.05,1778.00,1285.00
1680,1047.85,3194.90,772.78,1835.00,1308.00
1682,1048.11,3197.29,768.07,1831.00,1304.00
1684,1048.38,3199.67,614.20,1775.00,1258.00
1686,1048.64,3202.05,670.28,1830.00,1308.00
1688,1048.90,3204.43,1102.36,1788.00,1230.00
1690,1049.16,3206.80,991.77,1780.00,1232.00
1692,1049.42,3209.17,1109.07,1839.00,1281.00
1694,1049.68,3211.54,1194.74,1784.00,1222.00
1696,1049.94,3213.91,1076.53,1799.00,1249.00
1698,1050.20,3216.27,1179.05,1814.00,1256.00
1700,1050.46,3218.63,1303.04,1885.00,1317.00
1702,1050.72,3220.99,1398.54,1839.00,1262.00
1704,1050.98,3223.35,1007.21,1849.00,1306.00
1706,1051.24,3225.70,1610.45,1824.00,1232.00
1708,1051.50,3228.05,1555.73,1790.00,1205.00
1710,1051.76,3230.40,1457.15,1866.00,1294.00
1712,1052.02,3232.75,2221.45,1881.00,1258.00
1714,1052.28,3235.09,2114.61,1909.00,1296.00
1716,1052.54,3237.43,1824.50,1850.00,1251.00
1718,1052.80,3239.77,1439.08,1803.00,1230.00
1720,1053.06,3242.11,1858.65,1856.00,1254.00
1722,1053.32,3244.44,2426.65,1841.00,1209.00
1724,1053.58,3246.77,2304.77,1932.00,1317.00
1726,1053.84,3249.10,2389.86,1881.00,1258.00
1728,1054.10,3251.42,1901.29,1873.00,1283.00
1730,1054.35,3253.75,1994.02,1847.00,1252.00
1732,1054.61,3256.07,2299.12,1909.00,1296.00
1734,1054.87,3258.39,2299.25,1852.00,1241.00
1736,1055.13,3260.70,2171.93,1860.00,1260.00
1738,1055.38,3263.01,3146.86,1887.00,1224.00
1740,1055.64,3265.32,2565.23,1866.00,1249.00
1742,1055.90,3267.63,2710.82,1820.00,1192.00
1744,1056.16,3269.94,2128.09,1913.00,1323.00
1746,1056.41,3272.24,2752.44,1938.00,1309.00
1748,1056.67,3274.54,2724.84,1879.00,1264.00
1750,1056.93,3276.84,2906.02,1885.00,1266.00
1752,1057.18,3279.13,2774.83,1849.00,1235.00
1754,1057.44,3281.42,2206.36,1807.00,1224.00
1756,1057.69,3283.71,2255.84,1813.00,1228.00
1758,1057.95,3286.00,2290.15,1896.00,1319.00
1760,1058.21,3288.28,2684.57,1824.00,1233.00
1762,1058.46,3290.57,2687.10,1875.00,1285.00
1764,1058.72,3292.85,2086.54,1841.00,1281.00
1766,1058.97,3295.12,1878.89,1775.00,1224.00
1768,1059.23,3297.40,2080.39,1776.00,1218.00
1770,1059.48,3299.67,2172.49,1830.00,1281.00
1772,1059.74,3301.94,2789.92,1765.00,1192.00
1774,1059.99,3304.21,1448.37,1803.00,1302.00
1776,1060.25,3306.47,2262.60,1862.00,1306.00
1778,1060.50,3308.73,1100.46,1740.00,1252.00
1780,1060.76,3310.99,1587.73,1752.00,1237.00
1782,1061.01,3313.25,1458.07,1752.00,1254.00
1784,1061.26,3315.50,2060.98,1759.00,1235.00
1786,1061.52,3317.76,1116.33,1773.00,1302.00
1788,1061.77,3320.01,2031.26,1805.00,1283.00
1790,1062.02,3322.25,1211.39,1729.00,1252.00
1792,1062.28,3324.50,1430.94,1731.00,1247.00
1794,1062.53,3326.74,1624.07,1689.00,1203.00
1796,1062.78,3328.98,1897.54,1746.00,1247.00
1798,1063.04,3331.22,1367.39,1719.00,1243.00
1800,1063.29,3333.45,1247.70,1697.00,1230.00
1802,1063.54,3335.68,1043.17,1704.00,1254.00
1804,1063.79,3337.91,1514.54,1765.00,1292.00
1806,1064.05,3340.14,467.64,1750.00,1328.00
1808,1064.30,3342.36,865.63,1647.00,1203.00
1810,1064.55,3344.59,686.28,1729.00,1302.00
1812,1064.80,3346.81,705.13,1676.00,1254.00
1814,1065.05,3349.02,663.44,1645.00,1230.00
1816,1065.30,3351.24,1054.42,1716.00,1290.00
1818,1065.55,3353.45,942.52,1666.00,1247.00
1820,1065.81,3355.66,262.89,1735.00,1345.00
1822,1066.06,3357.87,513.97,1653.00,1247.00
1824,1066.31,3360.07,94.21,1592.00,1215.00
1826,1066.56,3362.27,119.81,1659.00,1285.00
1828,1066.81,3364.47,1425.27,1623.00,1194.00
1830,1067.06,3366.67,205.55,1615.00,1245.00
1832,1067.31,3368.87,438.51,1611.00,1235.00
1834,1067.56,3371.06,1352.21,1581.00,1173.00
1836,1067.81,3373.25,1624.68,1588.00,1177.00
1838,1068.06,3375.44,1034.78,1594.00,1211.00
1840,1068.31,3377.62,1062.52,1590.00,1209.00
1842,1068.56,3379.81,1339.34,1573.00,1182.00
1844,1068.80,3381.99,1168.88,1701.00,1321.00
1846,1069.05,3384.16,1392.52,1625.00,1243.00
1848,1069.30,3386.34,1535.71,1598.00,1218.00
1850,1069.55,3388.51,1544.10,1592.00,1215.00
1852,1069.80,3390.68,1124.81,1609.00,1251.00
1854,1070.05,3392.85,1869.37,1702.00,1319.00
1856,1070.30,3395.02,1450.21,1592.00,1235.00
1858,1070.54,3397.18,1519.49,1543.00,1190.00
1860,1070.79,3399.34,966.78,1568.00,1237.00
1862,1071.04,3401.50,1433.47,1566.00,1218.00
1864,1071.29,3403.66,2106.36,1530.00,1159.00
1866,1071.53,3405.81,1776.32,1598.00,1247.00
1868,1071.78,3407.96,2055.19,1573.00,1218.00
1870,1072.03,3410.11,1645.55,1587.00,1251.00
1872,1072.27,3412.26,943.26,1573.00,1266.00
1874,1072.52,3414.40,1697.78,1541.00,1211.00
1876,1072.77,3416.54,2168.29,1552.00,1213.00
1878,1073.01,3418.68,2341.44,1596.00,1258.00
1880,1073.26,3420.82,2191.97,1490.00,1159.00
1882,1073.51,3422.96,2769.55,1604.00,1251.00
1884,1073.75,3425.09,1128.83,1537.00,1245.00
1886,1074.00,3427.22,1779.99,1495.00,1188.00
1888,1074.24,3429.35,3431.98,1617.00,1270.00
1890,1074.49,3431.47,1640.17,1503.00,1213.00
1892,1074.73,3433.59,2447.23,1492.00,1173.00
1894,1074.98,3435.71,1362.34,1573.00,1289.00
1896,1075.22,3437.83,1745.29,1516.00,1222.00
1898,1075.47,3439.95,1390.78,1530.00,1256.00
1900,1075.71,3442.06,1291.74,1543.00,1279.00
1902,1075.96,3444.17,2484.31,1509.00,1215.00
1904,1076.20,3446.28,1443.27,1376.00,1114.00
1906,1076.44,3448.38,1401.47,1587.00,1327.00
1908,1076.69,3450.49,1167.35,1547.00,1296.00
1910,1076.93,3452.59,2456.41,1528.00,1237.00
1912,1077.17,3454.69,1563.75,1486.00,1228.00
1914,1077.42,3456.79,2331.04,1507.00,1233.00
1916,1077.66,3458.88,2237.15,1456.00,1196.00
1918,1077.90,3460.97,2857.10,1463.00,1197.00
1920,1078.15,3463.06,3089.88,1543.00,1273.00
1922,1078.39,3465.15,815.66,1469.00,1252.00
1924,1078.63,3467.23,1637.23,1412.00,1158.00
1926,1078.87,3469.32,292.28,1476.00,1273.00
1928,1079.12,3471.40,364.89,1418.00,1215.00
1930,1079.36,3473.47,1175.67,1551.00,1328.00
1932,1079.60,3475.55,417.47,1385.00,1196.00
1934,1079.84,3477.62,2154.08,1473.00,1251.00
1936,1080.08,3479.69,751.01,1404.00,1215.00
1938,1080.33,3481.76,989.66,1387.00,1194.00
1940,1080.57,3483.83,1813.48,1429.00,1216.00
1942,1080.81,3485.89,1518.96,1448.00,1241.00
1944,1081.05,3487.95,59.50,1450.00,1289.00
1946,1081.29,3490.01,1672.02,1446.00,1243.00
1948,1081.53,3492.07,1291.54,1378.00,1197.00
1950,1081.77,3494.12,3012.61,1410.00,1199.00
1952,1082.01,3496.18,1009.82,1448.00,1277.00
1954,1082.25,3498.23,973.26,1389.00,1216.00
1956,1082.49,3500.27,504.53,1397.00,1241.00
1958,1082.73,3502.32,1362.50,1351.00,1178.00
1960,1082.97,3504.36,2148.12,1442.00,1262.00
1962,1083.21,3506.40,1718.50,1374.00,1209.00
1964,1083.45,3508.44,2379.20,1338.00,1159.00
1966,1083.69,3510.48,914.79,1475.00,1327.00
1968,1083.93,3512.51,1247.12,1404.00,1249.00
1970,1084.16,3514.54,2400.04,1393.00,1216.00
1972,1084.40,3516.57,2112.86,1364.00,1203.00
1974,1084.64,3518.60,1258.51,1336.00,1197.00
1976,1084.88,3520.62,2317.40,1418.00,1258.00
1978,1085.12,3522.65,609.24,1435.00,1311.00
1980,1085.36,3524.67,905.34,1376.00,1247.00
1982,1085.59,3526.68,528.72,1332.00,1216.00
1984,1085.83,3528.70,2081.98,1410.00,1268.00
1986,1086.07,3530.71,1412.02,1328.00,1201.00
1988,1086.31,3532.72,1835.82,1387.00,1251.00
1990,1086.54,3534.73,0.00,1292.00,1207.00
1992,1086.78,3536.74,2019.72,1433.00,1296.00
1994,1087.02,3538.74,1967.69,1382.00,1249.00
1996,1087.25,3540.74,708.44,1298.00,1192.00
1998,1087.49,3542.74,2397.44,1366.00,1232.00
2000,1087.73,3544.74,1790.58,1345.00,1224.00
2002,1087.96,3546.74,3327.15,1372.00,1222.00
2004,1088.20,3548.73,1526.72,1404.00,1283.00
2006,1088.43,3550.72,1829.24,1363.00,1233.00
2008,1088.67,3552.71,1785.71,1334.00,1209.00
2010,1088.90,3554.69,2533.52,1294.00,1163.00
2012,1089.14,3556.68,3554.81,1374.00,1233.00
2014,1089.38,3558.66,2377.22,1298.00,1175.00
2016,1089.61,3560.64,1839.02,1308.00,1190.00
2018,1089.84,3562.62,366.86,1345.00,1254.00
2020,1090.08,3564.59,791.54,1296.00,1197.00
2022,1090.31,3566.56,1251.93,1296.00,1192.00
2024,1090.55,3568.53,2681.55,1315.00,1194.00
2026,1090.78,3570.50,2576.83,1271.00,1154.00
2028,1091.02,3572.47,1100.10,1279.00,1182.00
2030,1091.25,3574.43,1322.80,1271.00,1167.00
2032,1091.48,3576.39,1045.67,1222.00,1121.00
2034,1091.72,3578.35,591.99,1213.00,1123.00
2036,1091.95,3580.31,1498.04,1292.00,1190.00
2038,1092.18,3582.26,2498.53,1216.00,1108.00
2040,1092.42,3584.22,3061.01,1216.00,1104.00
2042,1092.65,3586.17,0.00,1232.00,1158.00
2044,1092.88,3588.12,0.00,1190.00,1118.00
2046,1093.11,3590.06,17.26,1207.00,1131.00
2047,1093.23,3591.03,7.02,1180.00,1104.00