File: enlighten/plugins/Raman/MatchingLibrary/785X/sodium carbonate.csv
ENLIGHTEN Version,4.1.22
Measurement ID,20250220-201857-894594-WP-01977
Serial Number,WP-01977
Model,WP-785X-F13-R-ILC
Detector,S16011-1106
Label,sodium carbonate
Declared Match,
Declared Score,0
Scan Averaging,3
Boxcar,0
Technique,Raman
Baseline Correction Algo,AirPLS
ROI Pixel Start,47
ROI Pixel End,2047
ROI Start Line,0
ROI Stop Line,63
CCD C4,1.38617e-12
Slit Width,25
Cropped,True
Interpolated,False
Wavenumber Correction,-0.100481
Raman Intensity Corrected,True
Deconvolved,True
Region,
High Gain Mode,False
Laser Power mW,
Electrical Dark Correction,False
Battery %,
Device ID,<DeviceID USB:0x24aa:0x1000:0:1>
FW Version,10.0.0.10
FPGA Version,035-001
BLE Version,
Prefix,enlighten
Suffix,
Preset,
Auto-Raman,True
Session Count,0
Plugin Name,
Integration Time,495
Timestamp,2025-02-20 20:18:57.8946
Note,
Temperature,0
CCD C0,793.274
CCD C1,0.153259
CCD C2,1.40788e-05
CCD C3,-1.132e-08
CCD Offset,0
CCD Gain,1.9
CCD Offset Odd,0
CCD Gain Odd,1.9
Laser Wavelength,785.032
Laser Enable,False
Laser Power %,0
Laser Temperature,0
Pixel Count,2048

Pixel,Wavelength,Wavenumber,Processed,Raw,Dark
0,793.27,132.25,NA,1010.67,957.00
2,793.58,137.12,NA,1031.67,974.00
4,793.89,141.99,NA,1017.67,961.33
6,794.19,146.86,NA,1031.00,964.67
8,794.50,151.72,NA,1044.67,977.67
10,794.81,156.58,NA,1039.33,976.67
12,795.12,161.44,NA,1035.67,959.33
14,795.42,166.30,NA,1024.00,951.67
16,795.73,171.16,NA,1034.67,964.67
18,796.04,176.01,NA,1058.33,979.33
20,796.35,180.86,NA,1061.00,987.33
22,796.65,185.71,NA,1085.33,999.67
24,796.96,190.56,NA,1063.33,983.00
26,797.27,195.41,NA,1080.33,998.67
28,797.58,200.25,NA,1087.67,999.33
30,797.88,205.09,NA,1073.33,977.00
32,798.19,209.93,NA,1074.00,977.67
34,798.50,214.77,NA,1086.67,968.00
36,798.81,219.60,NA,1111.67,969.00
38,799.12,224.43,NA,1177.67,978.67
40,799.43,229.27,NA,1580.33,996.67
42,799.74,234.09,NA,3049.67,991.00
44,800.04,238.92,NA,5169.67,1019.00
46,800.35,243.75,NA,6040.33,985.67
48,800.66,248.57,355.14,6263.33,1005.00
50,800.97,253.39,364.14,6276.00,1005.67
52,801.28,258.21,335.02,6271.67,1017.00
54,801.59,263.02,221.38,6105.00,1006.33
56,801.90,267.83,71.22,5939.33,1004.33
58,802.21,272.65,2.95,5845.33,1006.33
60,802.52,277.46,0.00,5741.67,1008.33
62,802.83,282.26,0.00,5773.33,1019.67
64,803.14,287.07,0.00,5756.67,1025.33
66,803.45,291.87,0.00,5849.00,1015.00
68,803.76,296.67,11.39,5911.33,1023.33
70,804.07,301.47,26.67,5908.00,998.00
72,804.38,306.26,36.98,5954.33,1003.33
74,804.69,311.06,3.95,5940.33,993.00
76,805.00,315.85,3.34,5972.33,996.33
78,805.31,320.64,28.51,6035.00,1001.33
80,805.62,325.42,69.81,6091.00,1008.00
82,805.93,330.21,21.73,6076.00,1003.00
84,806.24,334.99,39.37,6085.67,979.67
86,806.55,339.77,14.76,6111.67,1005.00
88,806.86,344.55,0.00,6117.00,1010.33
90,807.17,349.32,46.88,6184.33,989.00
92,807.48,354.10,15.35,6188.67,1000.00
94,807.80,358.87,33.35,6258.67,1017.00
96,808.11,363.63,45.52,6267.67,1008.33
98,808.42,368.40,13.33,6249.33,991.67
100,808.73,373.16,24.71,6299.00,993.67
102,809.04,377.93,49.89,6332.33,984.67
104,809.35,382.68,12.49,6315.33,984.00
106,809.66,387.44,6.86,6354.00,1002.00
108,809.98,392.19,3.05,6345.33,978.67
110,810.29,396.95,20.25,6422.67,1008.33
112,810.60,401.70,11.46,6432.67,992.33
114,810.91,406.44,39.26,6487.00,1004.67
116,811.22,411.19,0.00,6450.00,1005.33
118,811.54,415.93,34.80,6540.00,1003.67
120,811.85,420.67,19.10,6515.67,988.00
122,812.16,425.41,63.70,6581.33,986.00
124,812.47,430.14,52.64,6614.00,1005.00
126,812.79,434.87,94.40,6651.67,983.33
128,813.10,439.60,92.70,6664.67,971.00
130,813.41,444.33,95.53,6710.67,989.00
132,813.72,449.06,127.69,6741.33,977.67
134,814.04,453.78,143.30,6786.00,986.67
136,814.35,458.50,120.02,6769.00,975.00
138,814.66,463.22,138.74,6802.33,973.00
140,814.98,467.93,134.88,6821.67,983.33
142,815.29,472.65,143.31,6851.00,985.33
144,815.60,477.36,180.23,6925.33,995.00
146,815.92,482.06,190.66,6932.67,974.00
148,816.23,486.77,203.78,6972.33,997.33
150,816.54,491.47,152.97,6945.33,1009.67
152,816.86,496.17,139.16,6899.67,983.33
154,817.17,500.87,136.97,6904.67,991.00
156,817.48,505.57,48.23,6808.67,986.67
158,817.80,510.26,42.15,6788.67,978.33
160,818.11,514.95,0.00,6723.00,994.33
162,818.42,519.64,0.00,6708.67,990.33
164,818.74,524.32,0.00,6739.67,988.33
166,819.05,529.00,11.42,6794.00,1002.67
168,819.37,533.68,0.00,6767.33,986.00
170,819.68,538.36,0.00,6758.67,995.00
172,819.99,543.04,17.32,6847.33,1005.00
174,820.31,547.71,0.00,6826.67,990.33
176,820.62,552.38,15.95,6875.33,977.67
178,820.94,557.05,65.45,6958.33,986.00
180,821.25,561.71,14.12,6908.00,967.33
182,821.57,566.37,52.30,6981.67,975.67
184,821.88,571.03,39.06,7003.00,991.67
186,822.20,575.69,77.12,7047.00,985.00
188,822.51,580.34,3.78,6987.67,981.00
190,822.83,584.99,0.00,6985.67,986.67
192,823.14,589.64,0.00,6982.00,986.67
194,823.46,594.29,0.00,7010.33,984.33
196,823.77,598.93,0.00,7066.67,987.00
198,824.09,603.57,0.00,7050.00,967.67
200,824.40,608.21,0.00,7134.00,985.33
202,824.72,612.85,0.00,7180.00,998.00
204,825.03,617.48,0.00,7211.67,989.33
206,825.35,622.11,0.31,7280.67,1007.67
208,825.66,626.74,58.62,7411.00,998.67
210,825.98,631.36,134.60,7522.33,983.67
212,826.29,635.99,183.22,7655.33,991.67
214,826.61,640.61,321.04,7863.00,985.00
216,826.92,645.22,347.45,7909.67,974.00
218,827.24,649.84,396.78,8004.00,972.67
220,827.56,654.45,418.03,8100.67,997.67
222,827.87,659.06,378.89,8057.00,991.67
224,828.19,663.67,380.42,8062.33,989.67
226,828.50,668.27,364.56,8111.67,1029.00
228,828.82,672.87,319.74,8064.33,998.00
230,829.13,677.47,396.44,8180.67,977.33
232,829.45,682.06,578.77,8417.00,996.00
234,829.77,686.66,590.04,8533.67,1082.33
236,830.08,691.25,391.90,8281.67,988.00
238,830.40,695.83,404.07,8319.33,978.33
240,830.72,700.42,654.67,8560.33,979.67
242,831.03,705.00,612.27,8464.67,952.67
244,831.35,709.58,276.51,8150.00,984.33
246,831.66,714.15,97.60,7834.33,959.67
248,831.98,718.73,41.32,7731.33,989.00
250,832.30,723.30,17.36,7653.33,971.33
252,832.61,727.87,5.60,7664.00,1003.00
254,832.93,732.43,0.00,7555.33,947.00
256,833.25,736.99,0.00,7583.67,993.00
258,833.56,741.55,22.95,7600.67,977.67
260,833.88,746.11,0.00,7516.00,979.00
262,834.20,750.66,0.00,7535.33,979.67
264,834.51,755.22,0.00,7508.67,986.67
266,834.83,759.76,10.76,7585.67,990.00
268,835.15,764.31,0.00,7534.33,989.00
270,835.47,768.85,0.00,7547.00,971.67
272,835.78,773.39,0.47,7579.67,977.67
274,836.10,777.93,5.34,7593.00,974.33
276,836.42,782.46,42.38,7667.33,978.67
278,836.73,787.00,18.75,7638.67,969.00
280,837.05,791.52,59.43,7702.00,965.00
282,837.37,796.05,25.70,7702.67,992.00
284,837.69,800.57,53.67,7727.33,974.67
286,838.00,805.09,54.70,7730.00,970.33
288,838.32,809.61,15.55,7712.67,976.67
290,838.64,814.13,14.19,7732.00,996.00
292,838.95,818.64,19.56,7724.33,982.33
294,839.27,823.15,22.81,7737.00,978.33
296,839.59,827.65,9.52,7735.33,986.00
298,839.91,832.15,26.68,7764.67,977.00
300,840.22,836.65,0.15,7766.67,1011.67
302,840.54,841.15,0.00,7708.00,977.33
304,840.86,845.65,2.36,7776.33,993.67
306,841.18,850.14,0.00,7773.67,990.67
308,841.50,854.63,0.00,7812.67,1037.33
310,841.81,859.11,0.00,7803.33,975.33
312,842.13,863.60,15.83,7869.33,985.33
314,842.45,868.07,0.00,7855.33,970.33
316,842.77,872.55,0.00,7915.67,993.67
318,843.08,877.03,0.00,7956.00,1013.33
320,843.40,881.50,16.52,7984.33,960.00
322,843.72,885.97,21.63,8049.33,991.67
324,844.04,890.43,42.59,8073.00,964.67
326,844.36,894.89,37.50,8116.33,975.00
328,844.67,899.35,28.23,8171.33,996.33
330,844.99,903.81,89.34,8238.67,958.67
332,845.31,908.26,69.46,8261.00,986.67
334,845.63,912.71,55.81,8277.33,987.67
336,845.95,917.16,18.83,8264.67,988.00
338,846.27,921.61,1.73,8532.67,1257.33
340,846.58,926.05,0.00,8245.67,976.00
342,846.90,930.49,0.00,8296.00,985.00
344,847.22,934.92,0.00,8334.33,985.33
346,847.54,939.36,25.51,8396.00,954.00
348,847.86,943.79,0.00,8394.00,970.33
350,848.18,948.21,0.00,8408.67,970.00
352,848.49,952.64,33.77,8542.67,975.00
354,848.81,957.06,17.45,8556.33,954.67
356,849.13,961.48,0.00,8599.33,1002.00
358,849.45,965.89,0.00,8667.00,997.67
360,849.77,970.31,0.00,8694.67,977.67
362,850.09,974.71,0.00,8740.67,979.33
364,850.40,979.12,0.00,8857.67,999.33
366,850.72,983.52,0.00,8946.33,1008.33
368,851.04,987.92,0.00,8951.00,969.00
370,851.36,992.32,13.13,9077.33,958.67
372,851.68,996.72,0.00,9148.67,986.33
374,852.00,1001.11,0.00,9177.67,968.00
376,852.32,1005.50,0.00,9232.67,960.67
378,852.63,1009.88,0.00,9398.67,1007.67
380,852.95,1014.26,0.00,9493.67,989.67
382,853.27,1018.64,0.00,9629.67,990.33
384,853.59,1023.02,0.00,9734.67,975.00
386,853.91,1027.39,0.00,9830.33,962.67
388,854.23,1031.76,0.00,10054.33,969.00
390,854.55,1036.13,0.00,10289.33,970.67
392,854.87,1040.49,0.00,10559.33,974.67
394,855.18,1044.86,0.11,10989.00,981.00
396,855.50,1049.21,130.33,11794.00,974.67
398,855.82,1053.57,869.22,13203.00,988.67
400,856.14,1057.92,1959.49,16069.00,976.00
402,856.46,1062.27,4725.32,22481.33,988.00
404,856.78,1066.62,16597.69,36331.67,966.00
406,857.10,1070.96,20704.75,39589.33,964.00
408,857.42,1075.30,5130.04,24137.33,1002.33
410,857.74,1079.64,939.92,15241.00,969.67
412,858.06,1083.97,142.85,12896.67,966.00
414,858.37,1088.30,0.00,11924.67,966.67
416,858.69,1092.63,0.00,11658.00,964.67
418,859.01,1096.95,0.00,11735.00,955.00
420,859.33,1101.27,0.00,11795.00,980.33
422,859.65,1105.59,0.00,11933.00,976.00
424,859.97,1109.91,0.00,12079.67,964.67
426,860.29,1114.22,0.00,12157.33,972.00
428,860.61,1118.53,0.00,12329.33,960.33
430,860.93,1122.84,0.00,12419.67,974.67
432,861.25,1127.14,0.00,12563.67,991.00
434,861.56,1131.44,0.00,12672.67,964.00
436,861.88,1135.74,0.00,12871.67,973.67
438,862.20,1140.03,0.00,12982.67,981.00
440,862.52,1144.32,0.00,13155.00,977.00
442,862.84,1148.61,26.06,13388.00,991.67
444,863.16,1152.89,63.93,13552.33,971.67
446,863.48,1157.17,32.90,13672.00,975.67
448,863.80,1161.45,46.32,13826.33,973.33
450,864.12,1165.73,13.38,13938.67,982.33
452,864.44,1170.00,0.00,14039.67,971.67
454,864.76,1174.27,0.00,14196.67,977.67
456,865.07,1178.53,0.00,14321.33,958.33
458,865.39,1182.80,8.82,14529.00,982.33
460,865.71,1187.06,0.00,14631.33,972.00
462,866.03,1191.31,8.65,14827.33,977.00
464,866.35,1195.57,35.03,15004.00,973.33
466,866.67,1199.82,0.00,15124.33,983.33
468,866.99,1204.06,0.00,15240.33,977.67
470,867.31,1208.31,0.00,15398.33,985.33
472,867.63,1212.55,0.00,15506.00,971.67
474,867.95,1216.79,0.00,15656.00,964.67
476,868.27,1221.02,0.00,15856.00,984.67
478,868.58,1225.25,0.00,16086.00,959.00
480,868.90,1229.48,0.00,16464.67,986.67
482,869.22,1233.71,0.00,16694.67,989.00
484,869.54,1237.93,0.00,16945.67,1004.33
486,869.86,1242.15,0.00,17251.00,978.67
488,870.18,1246.36,0.00,17448.33,950.00
490,870.50,1250.58,0.00,17807.00,981.33
492,870.82,1254.79,0.00,18161.33,1006.67
494,871.14,1258.99,0.00,18474.33,989.00
496,871.46,1263.20,0.00,18941.33,988.67
498,871.78,1267.40,0.00,19482.00,968.33
500,872.10,1271.59,0.18,20004.00,972.00
502,872.41,1275.79,43.70,20613.00,972.33
504,872.73,1279.98,203.64,21216.67,972.33
506,873.05,1284.17,335.84,21836.00,986.00
508,873.37,1288.35,591.42,22513.00,939.33
510,873.69,1292.53,784.51,23095.67,963.33
512,874.01,1296.71,1081.88,23833.67,974.33
514,874.33,1300.88,1366.73,24536.00,955.67
516,874.65,1305.06,1763.34,25418.67,971.00
518,874.97,1309.22,2073.50,26158.67,964.00
520,875.29,1313.39,2423.45,26970.00,981.67
522,875.60,1317.55,2757.92,27737.00,987.33
524,875.92,1321.71,3030.31,28411.33,974.00
526,876.24,1325.87,3267.60,29040.33,985.67
528,876.56,1330.02,3477.69,29591.33,970.33
530,876.88,1334.17,3566.06,30008.00,989.33
532,877.20,1338.32,3654.39,30360.67,960.00
534,877.52,1342.46,3697.95,30682.33,960.33
536,877.84,1346.60,3747.76,31037.33,979.67
538,878.16,1350.73,3905.29,31456.67,972.33
540,878.47,1354.87,3968.09,31761.67,970.00
542,878.79,1359.00,3930.58,31950.33,971.00
544,879.11,1363.13,3884.85,32104.67,985.67
546,879.43,1367.25,3703.94,32061.67,968.33
548,879.75,1371.37,3537.31,32009.00,964.67
550,880.07,1375.49,3353.68,31925.00,965.33
552,880.39,1379.60,2998.35,31686.33,980.33
554,880.71,1383.71,2788.10,31625.67,972.00
556,881.03,1387.82,2736.83,31700.33,964.00
558,881.34,1391.93,2817.67,31900.67,954.00
560,881.66,1396.03,2606.93,31819.33,966.00
562,881.98,1400.13,2290.48,31606.00,983.00
564,882.30,1404.22,1846.99,31182.67,979.00
566,882.62,1408.31,1496.94,30835.67,970.00
568,882.94,1412.40,1183.71,30550.00,981.67
570,883.26,1416.49,728.27,30154.67,968.33
572,883.57,1420.57,425.07,29889.00,985.33
574,883.89,1424.65,385.97,29778.33,954.67
576,884.21,1428.73,333.00,29610.00,987.33
578,884.53,1432.80,364.56,29584.67,1002.33
580,884.85,1436.87,128.37,29183.33,959.33
582,885.17,1440.93,100.20,29050.33,960.00
584,885.49,1445.00,103.24,28933.00,962.67
586,885.80,1449.06,18.46,28685.67,961.67
588,886.12,1453.11,11.12,28607.00,992.00
590,886.44,1457.17,0.00,28371.33,977.00
592,886.76,1461.22,0.00,28223.33,977.00
594,887.08,1465.26,0.00,28128.67,983.67
596,887.40,1469.31,0.00,28062.33,966.00
598,887.71,1473.35,0.00,28046.00,958.00
600,888.03,1477.38,0.29,28050.33,973.00
602,888.35,1481.42,0.00,27986.00,990.33
604,888.67,1485.45,84.42,28112.00,981.00
606,888.99,1489.48,177.23,28146.00,957.33
608,889.31,1493.50,184.37,28140.00,981.67
610,889.62,1497.52,193.14,28109.67,974.33
612,889.94,1501.54,63.31,27926.67,954.67
614,890.26,1505.56,28.71,27833.00,966.67
616,890.58,1509.57,21.18,27755.00,969.67
618,890.90,1513.57,63.88,27782.00,962.00
620,891.21,1517.58,72.61,27768.00,971.00
622,891.53,1521.58,247.79,27914.00,969.33
624,891.85,1525.58,411.40,28081.67,971.00
626,892.17,1529.57,672.19,28359.00,979.33
628,892.49,1533.57,1067.66,28675.00,979.67
630,892.80,1537.56,1032.11,28501.33,960.67
632,893.12,1541.54,594.18,27997.67,967.67
634,893.44,1545.52,256.53,27470.00,986.67
636,893.76,1549.50,94.42,27111.00,954.67
638,894.07,1553.48,0.00,26822.33,982.00
640,894.39,1557.45,8.06,26729.67,960.67
642,894.71,1561.42,45.14,26697.00,982.33
644,895.03,1565.39,110.35,26613.00,948.00
646,895.34,1569.35,56.78,26476.00,988.00
648,895.66,1573.31,116.28,26396.00,963.33
650,895.98,1577.26,211.55,26395.33,967.00
652,896.30,1581.22,0.00,26004.33,958.67
654,896.61,1585.17,0.00,25897.67,968.33
656,896.93,1589.11,40.82,25847.33,984.33
658,897.25,1593.06,15.08,25669.67,955.67
660,897.57,1597.00,3.33,25567.00,976.67
662,897.88,1600.93,0.00,25408.67,973.67
664,898.20,1604.87,13.24,25402.67,974.33
666,898.52,1608.80,125.20,25375.00,963.33
668,898.84,1612.72,198.23,25339.33,959.33
670,899.15,1616.65,236.69,25320.33,983.00
672,899.47,1620.57,349.93,25309.00,958.67
674,899.79,1624.49,268.95,25117.33,971.00
676,900.10,1628.40,190.72,24900.67,962.33
678,900.42,1632.31,177.94,24802.33,982.33
680,900.74,1636.22,95.58,24541.67,939.67
682,901.05,1640.12,128.09,24507.67,999.33
684,901.37,1644.02,149.79,24393.67,975.33
686,901.69,1647.92,192.19,24327.00,976.00
688,902.00,1651.82,308.96,24312.33,961.00
690,902.32,1655.71,318.92,24215.33,958.67
692,902.64,1659.60,342.95,24116.00,963.33
694,902.95,1663.48,441.44,24092.67,978.33
696,903.27,1667.36,351.12,23872.33,960.33
698,903.59,1671.24,202.02,23592.00,987.67
700,903.90,1675.11,221.33,23461.67,974.00
702,904.22,1678.99,143.40,23214.33,946.67
704,904.54,1682.85,55.19,23012.33,1005.33
706,904.85,1686.72,136.52,22950.33,959.33
708,905.17,1690.58,82.29,22780.67,963.33
710,905.49,1694.44,173.97,22739.33,960.67
712,905.80,1698.29,344.15,22750.00,964.00
714,906.12,1702.15,283.06,22572.67,973.33
716,906.43,1706.00,264.92,22415.67,973.00
718,906.75,1709.84,308.40,22328.33,988.00
720,907.07,1713.68,190.02,22011.00,956.00
722,907.38,1717.52,181.84,21864.00,976.67
724,907.70,1721.36,63.82,21635.33,968.33
726,908.01,1725.19,1.52,21378.33,975.00
728,908.33,1729.02,0.00,21208.33,983.00
730,908.65,1732.85,34.09,21133.67,968.67
732,908.96,1736.67,78.66,21028.00,987.00
734,909.28,1740.49,76.18,20873.00,960.67
736,909.59,1744.30,132.29,20832.67,981.67
738,909.91,1748.12,145.61,20679.33,965.33
740,910.22,1751.93,214.35,20596.33,974.00
742,910.54,1755.73,138.82,20426.67,1019.00
744,910.85,1759.54,17.37,20186.67,982.33
746,911.17,1763.34,0.00,19906.00,962.67
748,911.49,1767.13,0.00,19745.33,974.67
750,911.80,1770.93,0.00,19599.00,954.67
752,912.12,1774.72,0.00,19572.33,983.00
754,912.43,1778.50,3.37,19463.00,959.33
756,912.75,1782.29,31.40,19407.67,958.67
758,913.06,1786.07,142.71,19449.00,960.00
760,913.38,1789.84,145.71,19320.00,971.67
762,913.69,1793.62,270.32,19327.33,980.33
764,914.01,1797.39,141.21,19113.67,971.00
766,914.32,1801.15,42.05,18899.67,962.00
768,914.64,1804.92,6.43,18727.00,960.00
770,914.95,1808.68,0.00,18574.00,974.00
772,915.26,1812.44,0.00,18471.00,981.67
774,915.58,1816.19,0.00,18354.00,945.67
776,915.89,1819.94,26.42,18357.67,970.67
778,916.21,1823.69,99.03,18315.33,973.00
780,916.52,1827.43,128.33,18271.33,995.33
782,916.84,1831.17,228.64,18239.00,957.67
784,917.15,1834.91,301.57,18196.67,958.33
786,917.47,1838.64,316.76,18130.33,975.33
788,917.78,1842.38,278.35,17986.67,972.00
790,918.09,1846.10,298.95,17908.00,962.67
792,918.41,1849.83,231.76,17724.00,972.67
794,918.72,1853.55,212.84,17569.67,953.67
796,919.04,1857.27,183.74,17445.67,962.67
798,919.35,1860.98,236.65,17390.33,971.33
800,919.66,1864.69,322.32,17343.00,962.00
802,919.98,1868.40,372.85,17284.33,975.33
804,920.29,1872.11,440.13,17212.33,968.33
806,920.60,1875.81,507.32,17141.33,952.33
808,920.92,1879.51,541.79,17085.67,962.00
810,921.23,1883.20,515.75,16948.67,985.67
812,921.55,1886.90,579.45,16833.00,954.67
814,921.86,1890.58,557.85,16717.33,979.00
816,922.17,1894.27,467.19,16502.33,985.33
818,922.49,1897.95,461.79,16342.67,973.33
820,922.80,1901.63,403.36,16150.33,963.33
822,923.11,1905.31,367.68,15984.00,958.67
824,923.42,1908.98,352.55,15845.00,972.00
826,923.74,1912.65,354.13,15720.33,987.00
828,924.05,1916.31,390.46,15617.00,961.33
830,924.36,1919.98,336.29,15443.00,956.67
832,924.68,1923.64,420.30,15397.67,961.33
834,924.99,1927.29,437.71,15265.67,957.00
836,925.30,1930.94,451.50,15142.00,948.33
838,925.61,1934.59,311.74,14912.67,957.00
840,925.93,1938.24,242.74,14713.00,962.67
842,926.24,1941.88,243.89,14562.33,971.00
844,926.55,1945.52,177.68,14398.00,962.00
846,926.86,1949.16,48.75,14137.33,972.00
848,927.18,1952.79,113.68,14051.00,955.33
850,927.49,1956.42,112.00,13874.67,960.00
852,927.80,1960.05,160.76,13826.67,1023.67
854,928.11,1963.67,138.04,13608.67,968.67
856,928.42,1967.29,152.50,13489.00,982.33
858,928.74,1970.91,231.89,13382.33,971.00
860,929.05,1974.52,234.25,13212.00,965.33
862,929.36,1978.13,155.79,12992.33,958.33
864,929.67,1981.74,76.15,12769.33,969.67
866,929.98,1985.35,49.41,12581.00,966.00
868,930.29,1988.95,18.28,12420.33,969.67
870,930.61,1992.54,0.00,12167.67,956.33
872,930.92,1996.14,11.16,12088.33,964.00
874,931.23,1999.73,0.00,11879.67,978.33
876,931.54,2003.32,0.01,11800.67,968.67
878,931.85,2006.90,0.14,11668.00,966.00
880,932.16,2010.48,10.22,11542.67,958.00
882,932.47,2014.06,4.66,11403.33,961.33
884,932.78,2017.63,35.20,11332.00,974.00
886,933.09,2021.21,9.80,11163.00,964.67
888,933.41,2024.77,59.32,11078.67,971.67
890,933.72,2028.34,97.95,11004.67,988.00
892,934.03,2031.90,1.45,10780.00,972.67
894,934.34,2035.46,0.00,10637.67,983.00
896,934.65,2039.01,0.00,10469.00,960.67
898,934.96,2042.57,0.00,10315.00,979.67
900,935.27,2046.11,0.00,10260.33,993.67
902,935.58,2049.66,0.00,10121.33,941.00
904,935.89,2053.20,9.83,10102.67,964.67
906,936.20,2056.74,0.00,9956.33,966.33
908,936.51,2060.28,14.36,9933.33,968.00
910,936.82,2063.81,71.18,9882.00,972.33
912,937.13,2067.34,11.25,9749.33,972.67
914,937.44,2070.86,55.66,9696.67,971.67
916,937.75,2074.39,11.98,9567.33,962.00
918,938.06,2077.91,0.00,9448.00,958.33
920,938.37,2081.42,0.00,9359.33,966.67
922,938.68,2084.94,0.00,9260.67,967.00
924,938.99,2088.45,0.00,9173.33,962.00
926,939.30,2091.95,0.00,9140.33,973.67
928,939.60,2095.46,2.52,9091.00,960.67
930,939.91,2098.96,3.16,9041.00,979.67
932,940.22,2102.45,42.46,9005.67,971.33
934,940.53,2105.95,0.00,8889.33,952.67
936,940.84,2109.44,33.62,8888.00,968.33
938,941.15,2112.92,7.33,8800.00,970.00
940,941.46,2116.41,60.54,8774.67,961.67
942,941.77,2119.89,8.51,8683.00,969.67
944,942.07,2123.37,39.78,8645.00,957.67
946,942.38,2126.84,17.48,8584.33,967.67
948,942.69,2130.31,0.00,8507.00,974.33
950,943.00,2133.78,12.27,8450.00,964.00
952,943.31,2137.24,20.30,8418.33,972.67
954,943.62,2140.70,0.00,8321.67,972.67
956,943.92,2144.16,0.00,8288.00,966.67
958,944.23,2147.62,17.56,8267.33,971.00
960,944.54,2151.07,3.22,8229.67,989.67
962,944.85,2154.52,16.19,8207.67,993.00
964,945.16,2157.96,78.37,8179.00,978.33
966,945.46,2161.40,68.15,8128.67,977.67
968,945.77,2164.84,28.54,8030.67,948.33
970,946.08,2168.28,16.03,7985.00,964.67
972,946.39,2171.71,56.15,7972.33,960.67
974,946.69,2175.14,18.97,7906.33,959.33
976,947.00,2178.57,0.00,7812.00,959.33
978,947.31,2181.99,11.64,7798.00,951.67
980,947.61,2185.41,2.70,7768.67,966.33
982,947.92,2188.82,5.29,7742.67,973.33
984,948.23,2192.24,8.36,7693.00,954.33
986,948.53,2195.65,16.13,7695.33,969.67
988,948.84,2199.05,89.48,7687.00,938.67
990,949.15,2202.46,114.33,7685.33,971.67
992,949.45,2205.86,73.09,7646.67,965.00
994,949.76,2209.25,30.38,7555.00,950.00
996,950.07,2212.65,88.60,7570.33,960.00
998,950.37,2216.04,39.84,7498.33,952.33
1000,950.68,2219.43,20.04,7466.67,967.33
1002,950.98,2222.81,135.48,7511.00,965.67
1004,951.29,2226.19,68.52,7429.33,958.00
1006,951.60,2229.57,41.79,7382.00,942.33
1008,951.90,2232.94,25.41,7333.67,954.00
1010,952.21,2236.32,57.98,7321.67,955.67
1012,952.51,2239.68,55.34,7292.67,968.00
1014,952.82,2243.05,79.30,7260.33,945.67
1016,953.12,2246.41,113.63,7294.33,983.67
1018,953.43,2249.77,124.63,7278.00,1000.67
1020,953.73,2253.12,87.98,7199.67,973.33
1022,954.04,2256.48,64.67,7130.33,945.67
1024,954.34,2259.83,68.07,7125.33,982.67
1026,954.65,2263.17,108.67,7088.00,958.33
1028,954.95,2266.51,53.14,7034.00,968.00
1030,955.26,2269.85,0.00,6963.00,983.67
1032,955.56,2273.19,11.84,6945.33,976.67
1034,955.87,2276.52,47.86,6947.00,980.33
1036,956.17,2279.85,16.98,6891.33,981.00
1038,956.48,2283.18,32.47,6842.00,951.33
1040,956.78,2286.50,50.59,6827.00,958.00
1042,957.08,2289.82,13.48,6763.00,947.00
1044,957.39,2293.14,67.37,6798.33,960.67
1046,957.69,2296.45,88.44,6752.33,950.33
1048,957.99,2299.76,64.75,6747.67,986.00
1050,958.30,2303.07,81.95,6718.67,972.33
1052,958.60,2306.38,113.89,6691.00,962.67
1054,958.91,2309.68,34.45,6619.33,967.33
1056,959.21,2312.98,8.88,6552.00,951.33
1058,959.51,2316.27,43.24,6554.00,958.33
1060,959.82,2319.56,31.12,6534.33,982.33
1062,960.12,2322.85,6.65,6459.00,956.00
1064,960.42,2326.14,0.00,6414.33,950.33
1066,960.72,2329.42,2.93,6421.33,972.33
1068,961.03,2332.70,21.54,6415.00,978.67
1070,961.33,2335.97,38.09,6369.33,963.33
1072,961.63,2339.25,27.55,6344.67,963.00
1074,961.93,2342.52,32.08,6323.00,959.00
1076,962.24,2345.78,71.89,6323.67,967.00
1078,962.54,2349.05,83.70,6293.00,963.33
1080,962.84,2352.31,82.73,6266.33,962.00
1082,963.14,2355.56,40.85,6201.67,953.00
1084,963.45,2358.82,54.26,6191.00,964.00
1086,963.75,2362.07,54.96,6186.67,979.67
1088,964.05,2365.32,12.64,6134.00,987.00
1090,964.35,2368.56,32.16,6104.33,967.67
1092,964.65,2371.80,3.05,6066.33,979.67
1094,964.95,2375.04,0.00,6008.33,960.67
1096,965.25,2378.27,27.14,6011.67,955.67
1098,965.56,2381.51,92.96,6020.67,966.67
1100,965.86,2384.73,62.69,5977.67,966.00
1102,966.16,2387.96,92.92,5974.67,966.00
1104,966.46,2391.18,107.54,5965.67,980.00
1106,966.76,2394.40,111.72,5921.67,960.67
1108,967.06,2397.62,96.92,5903.00,975.00
1110,967.36,2400.83,87.47,5841.67,951.33
1112,967.66,2404.04,82.83,5837.33,980.33
1114,967.96,2407.25,65.16,5781.67,955.00
1116,968.26,2410.45,17.35,5725.00,962.00
1118,968.56,2413.65,13.08,5688.67,956.67
1120,968.86,2416.85,0.85,5679.67,986.00
1122,969.16,2420.04,0.00,5628.33,968.67
1124,969.46,2423.23,11.20,5614.00,956.33
1126,969.76,2426.42,37.66,5622.67,970.00
1128,970.06,2429.60,96.65,5598.33,948.33
1130,970.36,2432.79,52.44,5565.33,966.67
1132,970.66,2435.96,112.60,5575.00,961.33
1134,970.96,2439.14,88.58,5527.67,961.33
1136,971.26,2442.31,135.50,5545.33,971.00
1138,971.56,2445.48,69.50,5485.67,973.67
1140,971.86,2448.65,71.86,5441.00,955.00
1142,972.16,2451.81,16.11,5398.67,972.67
1144,972.45,2454.97,9.17,5358.67,961.33
1146,972.75,2458.13,0.00,5322.00,963.33
1148,973.05,2461.28,0.00,5285.00,955.00
1150,973.35,2464.43,0.00,5276.33,969.33
1152,973.65,2467.58,78.12,5299.00,957.00
1154,973.95,2470.72,0.00,5219.00,959.33
1156,974.24,2473.86,24.42,5234.00,964.00
1158,974.54,2477.00,68.69,5216.67,955.33
1160,974.84,2480.13,168.21,5244.00,964.67
1162,975.14,2483.27,137.62,5213.33,967.33
1164,975.43,2486.40,146.54,5182.33,945.67
1166,975.73,2489.52,54.57,5114.33,959.33
1168,976.03,2492.64,117.98,5127.33,958.67
1170,976.33,2495.76,76.17,5085.33,966.00
1172,976.62,2498.88,77.32,5045.00,949.33
1174,976.92,2501.99,57.11,5037.33,978.67
1176,977.22,2505.10,0.00,4958.00,966.33
1178,977.51,2508.21,61.55,4977.33,963.33
1180,977.81,2511.31,42.22,4951.00,964.67
1182,978.11,2514.41,7.62,4904.33,966.00
1184,978.40,2517.51,53.79,4912.67,967.33
1186,978.70,2520.61,65.52,4879.67,955.67
1188,979.00,2523.70,65.23,4873.67,975.33
1190,979.29,2526.79,85.56,4851.67,960.67
1192,979.59,2529.87,74.76,4831.67,966.33
1194,979.88,2532.95,54.44,4776.67,955.00
1196,980.18,2536.03,133.31,4800.00,968.33
1198,980.48,2539.11,122.59,4789.33,978.33
1200,980.77,2542.18,56.13,4719.67,965.33
1202,981.07,2545.25,105.41,4721.33,971.67
1204,981.36,2548.32,84.42,4668.33,961.33
1206,981.66,2551.38,8.80,4634.33,983.00
1208,981.95,2554.44,3.31,4593.67,963.33
1210,982.25,2557.50,0.00,4568.33,988.67
1212,982.54,2560.56,3.75,4568.00,983.00
1214,982.84,2563.61,12.27,4551.67,989.33
1216,983.13,2566.66,17.88,4529.00,988.00
1218,983.43,2569.70,140.35,4553.33,974.67
1220,983.72,2572.74,46.47,4495.33,983.00
1222,984.01,2575.78,69.41,4476.67,970.67
1224,984.31,2578.82,42.34,4422.67,956.33
1226,984.60,2581.85,104.39,4445.67,977.33
1228,984.90,2584.88,66.58,4393.67,955.67
1230,985.19,2587.91,14.44,4359.67,971.00
1232,985.48,2590.93,102.53,4380.33,974.67
1234,985.78,2593.96,124.06,4366.67,977.00
1236,986.07,2596.97,10.31,4289.33,969.67
1238,986.36,2599.99,0.00,4272.67,988.67
1240,986.66,2603.00,54.09,4277.33,988.00
1242,986.95,2606.01,56.46,4255.33,984.67
1244,987.24,2609.01,0.00,4201.33,981.67
1246,987.54,2612.02,61.96,4174.67,932.33
1248,987.83,2615.02,35.75,4181.67,981.00
1250,988.12,2618.01,146.22,4214.00,987.33
1252,988.41,2621.01,121.95,4164.00,975.00
1254,988.71,2624.00,69.06,4117.67,965.00
1256,989.00,2626.99,49.76,4105.00,974.33
1258,989.29,2629.97,27.65,4073.67,976.00
1260,989.58,2632.95,43.75,4059.67,979.00
1262,989.87,2635.93,71.78,4044.67,979.67
1264,990.16,2638.91,50.56,4000.00,962.67
1266,990.46,2641.88,25.81,3999.67,990.33
1268,990.75,2644.85,53.77,4007.67,1004.00
1270,991.04,2647.81,34.07,3945.67,975.67
1272,991.33,2650.78,8.04,3909.67,973.33
1274,991.62,2653.74,8.49,3890.00,971.67
1276,991.91,2656.70,0.00,3833.33,966.33
1278,992.20,2659.65,34.37,3875.00,974.33
1280,992.49,2662.60,88.86,3852.33,966.67
1282,992.78,2665.55,22.87,3843.00,1000.00
1284,993.07,2668.50,5.03,3809.67,992.00
1286,993.36,2671.44,77.02,3812.00,982.67
1288,993.65,2674.38,43.19,3796.00,999.33
1290,993.94,2677.31,49.36,3759.67,977.00
1292,994.23,2680.25,47.45,3737.00,974.33
1294,994.52,2683.18,35.25,3711.67,974.67
1296,994.81,2686.10,106.53,3714.67,973.67
1298,995.10,2689.03,69.79,3698.33,980.33
1300,995.39,2691.95,5.98,3651.67,977.00
1302,995.68,2694.87,0.00,3640.00,997.33
1304,995.97,2697.78,142.76,3671.33,988.33
1306,996.26,2700.70,57.17,3599.67,963.33
1308,996.55,2703.61,0.00,3574.33,979.67
1310,996.84,2706.51,6.40,3575.67,988.00
1312,997.13,2709.42,24.70,3556.33,980.33
1314,997.41,2712.32,97.69,3561.67,985.67
1316,997.70,2715.21,59.27,3520.67,976.33
1318,997.99,2718.11,74.14,3508.33,972.33
1320,998.28,2721.00,59.02,3489.67,973.00
1322,998.57,2723.89,40.92,3478.33,987.33
1324,998.86,2726.77,140.19,3470.67,966.33
1326,999.14,2729.66,169.49,3464.33,971.00
1328,999.43,2732.54,73.00,3426.67,975.67
1330,999.72,2735.41,60.41,3404.00,974.67
1332,1000.01,2738.29,77.58,3406.00,993.67
1334,1000.29,2741.16,114.42,3378.67,975.00
1336,1000.58,2744.03,59.76,3348.33,969.00
1338,1000.87,2746.89,18.25,3345.67,991.67
1340,1001.15,2749.75,3.87,3304.33,981.67
1342,1001.44,2752.61,102.64,3315.33,972.00
1344,1001.73,2755.47,139.03,3301.33,972.33
1346,1002.01,2758.32,0.00,3238.67,972.67
1348,1002.30,2761.17,43.01,3268.00,992.33
1350,1002.59,2764.02,0.00,3233.00,1000.33
1352,1002.87,2766.86,60.32,3227.33,981.00
1354,1003.16,2769.70,159.04,3231.00,974.33
1356,1003.44,2772.54,106.12,3197.00,962.67
1358,1003.73,2775.38,6.19,3173.00,988.00
1360,1004.01,2778.21,71.47,3158.00,960.67
1362,1004.30,2781.04,122.47,3159.67,970.67
1364,1004.58,2783.87,67.34,3128.67,972.00
1366,1004.87,2786.69,28.55,3094.00,958.67
1368,1005.15,2789.51,14.35,3101.00,982.67
1370,1005.44,2792.33,8.49,3082.00,983.67
1372,1005.72,2795.14,91.07,3087.67,983.00
1374,1006.01,2797.95,10.53,3062.33,995.00
1376,1006.29,2800.76,26.61,3030.00,969.00
1378,1006.58,2803.57,3.27,3041.33,1003.67
1380,1006.86,2806.37,0.00,2981.00,970.33
1382,1007.14,2809.17,9.39,2991.33,976.00
1384,1007.43,2811.97,35.69,2982.00,974.67
1386,1007.71,2814.77,76.08,2964.00,962.00
1388,1008.00,2817.56,9.87,2933.00,964.33
1390,1008.28,2820.35,202.18,2989.00,983.00
1392,1008.56,2823.13,101.40,2931.00,967.33
1394,1008.85,2825.91,58.27,2924.67,978.67
1396,1009.13,2828.69,0.00,2893.33,984.33
1398,1009.41,2831.47,24.70,2901.67,996.33
1400,1009.69,2834.24,126.87,2875.67,958.00
1402,1009.98,2837.02,0.00,2845.00,977.67
1404,1010.26,2839.78,15.82,2854.00,991.67
1406,1010.54,2842.55,49.10,2827.33,969.00
1408,1010.82,2845.31,13.69,2820.00,982.33
1410,1011.11,2848.07,34.34,2817.67,982.67
1412,1011.39,2850.83,0.00,2786.33,982.33
1414,1011.67,2853.58,57.47,2804.33,981.67
1416,1011.95,2856.33,54.98,2792.00,984.33
1418,1012.23,2859.08,28.57,2765.00,974.33
1420,1012.51,2861.83,0.00,2742.67,973.00
1422,1012.80,2864.57,60.92,2795.33,1010.00
1424,1013.08,2867.31,0.00,2753.33,997.33
1426,1013.36,2870.04,72.15,2771.33,996.33
1428,1013.64,2872.78,18.49,2736.33,993.67
1430,1013.92,2875.51,152.00,2765.00,1002.67
1432,1014.20,2878.24,54.28,2714.33,981.67
1434,1014.48,2880.96,81.58,2711.33,979.00
1436,1014.76,2883.68,77.12,2685.00,964.00
1438,1015.04,2886.40,68.25,2681.33,974.00
1440,1015.32,2889.12,72.31,2685.33,987.33
1442,1015.60,2891.83,81.21,2666.00,972.33
1444,1015.88,2894.54,0.00,2658.33,994.33
1446,1016.16,2897.25,1.37,2623.67,964.67
1448,1016.44,2899.96,0.00,2631.33,983.67
1450,1016.72,2902.66,4.03,2631.00,983.00
1452,1017.00,2905.36,80.06,2662.33,1005.33
1454,1017.28,2908.06,269.36,2655.00,975.33
1456,1017.55,2910.75,57.56,2640.67,999.33
1458,1017.83,2913.44,34.66,2602.33,971.67
1460,1018.11,2916.13,134.97,2629.33,984.00
1462,1018.39,2918.81,211.48,2625.67,981.67
1464,1018.67,2921.49,134.64,2607.00,978.67
1466,1018.95,2924.17,0.00,2564.00,981.00
1468,1019.22,2926.85,55.36,2589.00,990.33
1470,1019.50,2929.52,124.43,2572.00,966.33
1472,1019.78,2932.20,48.64,2548.67,966.33
1474,1020.06,2934.86,55.43,2547.33,970.33
1476,1020.33,2937.53,97.18,2578.33,999.67
1478,1020.61,2940.19,32.31,2542.00,982.33
1480,1020.89,2942.85,0.00,2530.00,987.00
1482,1021.17,2945.51,106.21,2537.67,972.33
1484,1021.44,2948.16,75.97,2523.33,977.00
1486,1021.72,2950.81,139.57,2518.67,966.33
1488,1022.00,2953.46,5.15,2522.33,1002.33
1490,1022.27,2956.11,43.88,2501.00,976.67
1492,1022.55,2958.75,121.03,2527.00,993.33
1494,1022.82,2961.39,114.35,2508.00,983.33
1496,1023.10,2964.03,25.37,2503.33,1005.67
1498,1023.38,2966.66,225.88,2499.67,975.00
1500,1023.65,2969.29,166.49,2499.00,993.33
1502,1023.93,2971.92,94.30,2482.33,989.67
1504,1024.20,2974.55,27.24,2457.33,985.33
1506,1024.48,2977.17,85.36,2461.00,981.67
1508,1024.75,2979.79,0.00,2415.33,970.00
1510,1025.03,2982.41,158.26,2448.00,979.67
1512,1025.30,2985.02,52.32,2414.00,969.00
1514,1025.58,2987.63,33.53,2410.00,974.00
1516,1025.85,2990.24,7.24,2390.33,966.67
1518,1026.13,2992.85,8.15,2406.00,989.00
1520,1026.40,2995.45,0.00,2380.33,987.67
1522,1026.68,2998.05,100.98,2390.67,971.67
1524,1026.95,3000.65,68.77,2395.67,989.67
1526,1027.22,3003.25,114.31,2383.33,974.67
1528,1027.50,3005.84,87.26,2369.00,968.67
1530,1027.77,3008.43,77.71,2377.00,984.33
1532,1028.04,3011.02,13.78,2367.67,994.67
1534,1028.32,3013.60,127.67,2366.67,980.33
1536,1028.59,3016.18,40.48,2352.00,986.33
1538,1028.86,3018.76,61.86,2314.67,951.00
1540,1029.14,3021.34,131.04,2351.67,985.00
1542,1029.41,3023.91,117.91,2327.67,972.00
1544,1029.68,3026.48,96.66,2308.00,960.67
1546,1029.95,3029.05,0.00,2306.00,984.67
1548,1030.22,3031.61,60.27,2305.00,972.33
1550,1030.50,3034.17,24.37,2283.33,965.33
1552,1030.77,3036.73,73.49,2289.67,970.67
1554,1031.04,3039.29,0.00,2274.67,985.67
1556,1031.31,3041.84,0.00,2244.33,960.67
1558,1031.58,3044.39,0.00,2287.00,997.33
1560,1031.85,3046.94,36.05,2291.33,998.00
1562,1032.13,3049.49,141.82,2270.00,966.33
1564,1032.40,3052.03,77.83,2290.33,995.00
1566,1032.67,3054.57,74.51,2260.00,967.33
1568,1032.94,3057.11,199.14,2297.67,994.67
1570,1033.21,3059.64,160.89,2252.33,963.33
1572,1033.48,3062.18,152.57,2276.67,988.67
1574,1033.75,3064.70,55.75,2268.67,994.67
1576,1034.02,3067.23,43.28,2264.33,995.33
1578,1034.29,3069.75,93.58,2229.00,958.33
1580,1034.56,3072.28,127.15,2248.67,982.67
1582,1034.83,3074.79,73.53,2216.00,957.33
1584,1035.10,3077.31,7.62,2233.33,988.00
1586,1035.37,3079.82,0.00,2203.67,978.33
1588,1035.64,3082.33,77.98,2251.67,1004.67
1590,1035.91,3084.84,0.00,2207.67,993.33
1592,1036.17,3087.34,3.82,2207.00,975.00
1594,1036.44,3089.85,5.62,2236.67,1005.67
1596,1036.71,3092.35,86.61,2214.67,974.33
1598,1036.98,3094.84,53.27,2192.67,958.67
1600,1037.25,3097.34,0.00,2188.67,963.67
1602,1037.52,3099.83,43.29,2207.67,974.00
1604,1037.78,3102.32,37.01,2208.67,979.33
1606,1038.05,3104.80,119.22,2226.67,991.00
1608,1038.32,3107.29,0.00,2193.00,981.67
1610,1038.59,3109.77,41.29,2205.33,979.67
1612,1038.85,3112.24,84.88,2202.67,971.67
1614,1039.12,3114.72,6.39,2220.33,1000.67
1616,1039.39,3117.19,114.09,2189.00,955.33
1618,1039.66,3119.66,5.00,2216.67,999.33
1620,1039.92,3122.13,0.00,2213.00,999.33
1622,1040.19,3124.59,0.00,2191.00,978.00
1624,1040.45,3127.05,152.49,2211.67,979.67
1626,1040.72,3129.51,151.87,2219.00,988.00
1628,1040.99,3131.97,143.77,2222.00,988.67
1630,1041.25,3134.42,0.00,2200.33,997.33
1632,1041.52,3136.87,21.42,2187.67,960.67
1634,1041.78,3139.32,0.00,2195.33,977.67
1636,1042.05,3141.77,301.60,2294.00,1032.67
1638,1042.32,3144.21,6.30,2210.33,973.00
1640,1042.58,3146.65,0.00,2243.67,1003.33
1642,1042.85,3149.09,0.00,2234.00,987.67
1644,1043.11,3151.52,12.02,2237.67,979.67
1646,1043.38,3153.96,0.00,2256.00,995.00
1648,1043.64,3156.39,46.13,2256.00,980.33
1650,1043.90,3158.81,0.00,2250.33,979.67
1652,1044.17,3161.24,88.96,2285.67,992.33
1654,1044.43,3163.66,0.00,2248.67,972.33
1656,1044.70,3166.08,115.04,2322.00,1006.67
1658,1044.96,3168.49,0.00,2283.33,982.00
1660,1045.22,3170.91,255.86,2314.33,973.67
1662,1045.49,3173.32,134.16,2329.67,977.33
1664,1045.75,3175.73,0.00,2317.00,998.67
1666,1046.01,3178.13,0.00,2325.33,973.33
1668,1046.28,3180.54,28.35,2368.00,991.33
1670,1046.54,3182.94,0.00,2382.33,1000.67
1672,1046.80,3185.34,158.53,2403.67,989.67
1674,1047.07,3187.73,18.56,2390.33,974.67
1676,1047.33,3190.12,0.00,2397.33,986.67
1678,1047.59,3192.51,169.78,2449.00,989.33
1680,1047.85,3194.90,306.86,2501.67,1015.33
1682,1048.11,3197.29,62.59,2492.33,1002.00
1684,1048.38,3199.67,27.32,2493.00,985.33
1686,1048.64,3202.05,0.00,2524.67,1010.00
1688,1048.90,3204.43,114.41,2539.00,985.33
1690,1049.16,3206.80,290.54,2557.33,981.00
1692,1049.42,3209.17,500.15,2590.33,990.33
1694,1049.68,3211.54,506.70,2587.67,972.33
1696,1049.94,3213.91,496.43,2620.33,986.00
1698,1050.20,3216.27,344.19,2631.00,989.00
1700,1050.46,3218.63,389.20,2681.33,1018.00
1702,1050.72,3220.99,536.09,2677.67,994.33
1704,1050.98,3223.35,754.43,2700.33,997.33
1706,1051.24,3225.70,1031.02,2707.67,982.33
1708,1051.50,3228.05,1227.54,2717.33,978.33
1710,1051.76,3230.40,1481.48,2762.67,1002.00
1712,1052.02,3232.75,1420.63,2754.67,993.00
1714,1052.28,3235.09,1659.19,2788.33,1004.33
1716,1052.54,3237.43,1892.47,2791.00,988.67
1718,1052.80,3239.77,2157.37,2805.00,981.00
1720,1053.06,3242.11,2045.64,2799.00,984.33
1722,1053.32,3244.44,2836.83,2840.33,970.00
1724,1053.58,3246.77,3168.46,2895.33,1007.67
1726,1053.84,3249.10,3188.88,2875.67,989.00
1728,1054.10,3251.42,3199.69,2873.33,984.33
1730,1054.35,3253.75,3424.66,2889.00,982.00
1732,1054.61,3256.07,3469.61,2911.33,1002.67
1734,1054.87,3258.39,3466.57,2891.33,987.33
1736,1055.13,3260.70,3638.27,2897.33,985.33
1738,1055.38,3263.01,3733.36,2904.33,988.33
1740,1055.64,3265.32,3604.94,2896.33,991.67
1742,1055.90,3267.63,3820.13,2884.33,968.00
1744,1056.16,3269.94,3514.47,2899.00,1008.67
1746,1056.41,3272.24,3784.88,2912.33,1010.67
1748,1056.67,3274.54,3870.67,2897.33,994.67
1750,1056.93,3276.84,3564.88,2878.33,995.67
1752,1057.18,3279.13,2950.00,2828.00,986.00
1754,1057.44,3281.42,3069.97,2825.00,978.67
1756,1057.69,3283.71,2798.81,2804.67,981.33
1758,1057.95,3286.00,2626.22,2819.00,1011.67
1760,1058.21,3288.28,2505.45,2777.67,983.33
1762,1058.46,3290.57,2640.66,2797.67,1000.67
1764,1058.72,3292.85,2237.83,2770.33,1000.00
1766,1058.97,3295.12,1972.97,2734.00,978.00
1768,1059.23,3297.40,1309.70,2698.67,985.00
1770,1059.48,3299.67,1361.98,2700.67,997.33
1772,1059.74,3301.94,1659.86,2671.33,966.00
1774,1059.99,3304.21,1297.80,2670.67,999.33
1776,1060.25,3306.47,1237.74,2668.67,1010.00
1778,1060.50,3308.73,1032.55,2612.00,976.00
1780,1060.76,3310.99,1343.20,2619.67,981.00
1782,1061.01,3313.25,1085.86,2590.67,986.00
1784,1061.26,3315.50,1299.09,2580.00,980.33
1786,1061.52,3317.76,1086.49,2567.33,996.00
1788,1061.77,3320.01,1338.94,2566.67,1001.33
1790,1062.02,3322.25,1135.66,2524.00,986.67
1792,1062.28,3324.50,1023.83,2513.67,992.00
1794,1062.53,3326.74,635.55,2468.67,975.67
1796,1062.78,3328.98,262.43,2441.00,986.33
1798,1063.04,3331.22,480.63,2433.00,986.33
1800,1063.29,3333.45,833.73,2426.33,983.00
1802,1063.54,3335.68,570.22,2402.33,983.33
1804,1063.79,3337.91,0.00,2375.00,1006.00
1806,1064.05,3340.14,142.70,2386.67,1020.33
1808,1064.30,3342.36,491.54,2341.33,975.00
1810,1064.55,3344.59,118.56,2324.33,993.00
1812,1064.80,3346.81,542.58,2318.67,983.00
1814,1065.05,3349.02,47.42,2277.67,981.67
1816,1065.30,3351.24,792.81,2314.33,1000.67
1818,1065.55,3353.45,314.85,2262.33,986.33
1820,1065.81,3355.66,120.23,2270.00,1018.33
1822,1066.06,3357.87,285.15,2226.67,983.67
1824,1066.31,3360.07,441.16,2204.67,969.67
1826,1066.56,3362.27,400.50,2212.00,992.33
1828,1066.81,3364.47,82.60,2162.67,974.33
1830,1067.06,3366.67,0.00,2156.67,988.33
1832,1067.31,3368.87,41.45,2146.00,990.33
1834,1067.56,3371.06,280.84,2111.33,958.00
1836,1067.81,3373.25,204.05,2098.00,964.33
1838,1068.06,3375.44,128.37,2088.00,973.33
1840,1068.31,3377.62,447.61,2083.33,972.67
1842,1068.56,3379.81,768.31,2064.67,958.00
1844,1068.80,3381.99,430.06,2092.00,1009.00
1846,1069.05,3384.16,339.00,2059.67,992.33
1848,1069.30,3386.34,415.79,2040.33,984.67
1850,1069.55,3388.51,408.25,2011.67,974.00
1852,1069.80,3390.68,492.60,2011.67,987.00
1854,1070.05,3392.85,503.85,2025.33,1012.67
1856,1070.30,3395.02,587.58,1989.67,982.00
1858,1070.54,3397.18,47.67,1939.67,970.33
1860,1070.79,3399.34,0.00,1941.00,988.67
1862,1071.04,3401.50,834.47,1943.33,974.00
1864,1071.29,3403.66,836.25,1909.00,958.33
1866,1071.53,3405.81,469.77,1908.33,981.00
1868,1071.78,3407.96,252.37,1888.67,979.00
1870,1072.03,3410.11,145.09,1884.67,990.00
1872,1072.27,3412.26,138.20,1872.00,988.00
1874,1072.52,3414.40,38.47,1840.33,975.00
1876,1072.77,3416.54,95.63,1836.00,980.33
1878,1073.01,3418.68,201.78,1838.67,993.67
1880,1073.26,3420.82,890.96,1807.00,957.67
1882,1073.51,3422.96,685.82,1816.33,984.33
1884,1073.75,3425.09,81.37,1793.00,989.67
1886,1074.00,3427.22,655.32,1776.67,962.00
1888,1074.24,3429.35,0.00,1778.33,1002.67
1890,1074.49,3431.47,1008.43,1764.00,968.00
1892,1074.73,3433.59,0.00,1713.00,965.00
1894,1074.98,3435.71,433.88,1753.00,996.00
1896,1075.22,3437.83,996.30,1740.33,976.00
1898,1075.47,3439.95,103.02,1717.67,995.00
1900,1075.71,3442.06,277.82,1716.33,999.33
1902,1075.96,3444.17,645.90,1696.00,979.00
1904,1076.20,3446.28,858.03,1648.67,937.33
1906,1076.44,3448.38,849.69,1704.33,1005.00
1908,1076.69,3450.49,935.94,1683.00,993.00
1910,1076.93,3452.59,1126.79,1663.33,979.33
1912,1077.17,3454.69,586.92,1641.00,981.00
1914,1077.42,3456.79,1106.96,1646.33,979.00
1916,1077.66,3458.88,432.11,1605.33,969.00
1918,1077.90,3460.97,93.64,1583.00,967.67
1920,1078.15,3463.06,577.18,1613.00,994.33
1922,1078.39,3465.15,95.23,1577.67,983.00
1924,1078.63,3467.23,409.25,1550.00,957.00
1926,1078.87,3469.32,304.69,1568.33,988.67
1928,1079.12,3471.40,267.88,1542.67,973.67
1930,1079.36,3473.47,542.83,1577.67,1008.67
1932,1079.60,3475.55,291.17,1518.33,967.00
1934,1079.84,3477.62,50.35,1519.33,986.00
1936,1080.08,3479.69,659.32,1511.33,973.33
1938,1080.33,3481.76,662.51,1495.33,968.33
1940,1080.57,3483.83,377.38,1486.33,973.67
1942,1080.81,3485.89,0.00,1476.00,985.67
1944,1081.05,3487.95,327.70,1487.33,991.67
1946,1081.29,3490.01,245.22,1469.33,985.33
1948,1081.53,3492.07,471.33,1450.67,970.33
1950,1081.77,3494.12,113.64,1439.33,975.67
1952,1082.01,3496.18,39.91,1440.33,986.67
1954,1082.25,3498.23,419.40,1424.00,969.00
1956,1082.49,3500.27,567.39,1432.67,983.33
1958,1082.73,3502.32,852.14,1407.67,960.00
1960,1082.97,3504.36,462.06,1417.00,984.00
1962,1083.21,3506.40,1.02,1396.33,981.67
1964,1083.45,3508.44,669.82,1375.33,953.67
1966,1083.69,3510.48,251.64,1416.33,1010.67
1968,1083.93,3512.51,596.00,1396.00,985.67
1970,1084.16,3514.54,0.00,1366.33,981.67
1972,1084.40,3516.57,0.00,1359.00,980.33
1974,1084.64,3518.60,679.03,1354.33,966.00
1976,1084.88,3520.62,1646.61,1388.33,993.33
1978,1085.12,3522.65,0.00,1359.67,1001.67
1980,1085.36,3524.67,115.88,1344.33,985.67
1982,1085.59,3526.68,103.87,1322.67,969.67
1984,1085.83,3528.70,367.35,1346.00,992.33
1986,1086.07,3530.71,0.00,1308.33,970.00
1988,1086.31,3532.72,92.63,1321.00,985.67
1990,1086.54,3534.73,19.92,1297.33,968.67
1992,1086.78,3536.74,0.00,1323.33,1004.67
1994,1087.02,3538.74,51.29,1308.33,988.67
1996,1087.25,3540.74,172.72,1278.67,961.00
1998,1087.49,3542.74,682.34,1308.33,988.00
2000,1087.73,3544.74,865.16,1296.67,980.67
2002,1087.96,3546.74,0.00,1277.67,980.33
2004,1088.20,3548.73,440.68,1298.00,993.67
2006,1088.43,3550.72,109.02,1276.67,986.00
2008,1088.67,3552.71,595.70,1271.33,976.67
2010,1088.90,3554.69,1523.34,1256.33,956.33
2012,1089.14,3556.68,1208.30,1270.67,980.33
2014,1089.38,3558.66,521.11,1238.00,960.00
2016,1089.61,3560.64,0.00,1224.67,970.00
2018,1089.84,3562.62,602.40,1265.00,990.00
2020,1090.08,3564.59,567.52,1232.67,967.33
2022,1090.31,3566.56,1566.13,1238.67,964.67
2024,1090.55,3568.53,343.51,1221.33,971.33
2026,1090.78,3570.50,1736.79,1217.67,950.67
2028,1091.02,3572.47,416.76,1201.33,957.33
2030,1091.25,3574.43,0.00,1200.00,969.00
2032,1091.48,3576.39,951.53,1190.00,945.00
2034,1091.72,3578.35,1078.96,1183.00,939.67
2036,1091.95,3580.31,580.95,1190.00,957.67
2038,1092.18,3582.26,306.24,1168.00,943.67
2040,1092.42,3584.22,1044.46,1168.33,937.33
2042,1092.65,3586.17,0.00,1162.33,952.00
2044,1092.88,3588.12,271.67,1156.00,939.00
2046,1093.11,3590.06,1.87,1147.67,939.33
2047,1093.23,3591.03,0.00,1135.33,935.33