File: enlighten/plugins/Raman/MatchingLibrary/785X/sodium hydrogen citrate.csv
ENLIGHTEN Version,4.1.22
Measurement ID,20250220-204437-066725-WP-01977
Serial Number,WP-01977
Model,WP-785X-F13-R-ILC
Detector,S16011-1106
Label,sodium hydrogen citrate
Declared Match,
Declared Score,0
Scan Averaging,1
Boxcar,0
Technique,Raman
Baseline Correction Algo,AirPLS
ROI Pixel Start,47
ROI Pixel End,2047
ROI Start Line,0
ROI Stop Line,63
CCD C4,1.38617e-12
Slit Width,25
Cropped,True
Interpolated,False
Wavenumber Correction,-0.100481
Raman Intensity Corrected,True
Deconvolved,True
Region,
High Gain Mode,False
Laser Power mW,
Electrical Dark Correction,False
Battery %,
Device ID,<DeviceID USB:0x24aa:0x1000:0:1>
FW Version,10.0.0.10
FPGA Version,035-001
BLE Version,
Prefix,enlighten
Suffix,
Preset,
Auto-Raman,True
Session Count,0
Plugin Name,
Integration Time,2000
Timestamp,2025-02-20 20:44:37.0667
Note,
Temperature,0
CCD C0,793.274
CCD C1,0.153259
CCD C2,1.40788e-05
CCD C3,-1.132e-08
CCD Offset,0
CCD Gain,1.9
CCD Offset Odd,0
CCD Gain Odd,1.9
Laser Wavelength,785.032
Laser Enable,False
Laser Power %,0
Laser Temperature,0
Pixel Count,2048

Pixel,Wavelength,Wavenumber,Processed,Raw,Dark
0,793.27,132.25,NA,1385.00,1296.00
2,793.58,137.12,NA,1476.00,1380.00
4,793.89,141.99,NA,1431.00,1338.00
6,794.19,146.86,NA,1458.00,1347.00
8,794.50,151.72,NA,1513.00,1416.00
10,794.81,156.58,NA,1495.00,1391.00
12,795.12,161.44,NA,1446.00,1325.00
14,795.42,166.30,NA,1450.00,1309.00
16,795.73,171.16,NA,1448.00,1332.00
18,796.04,176.01,NA,1539.00,1399.00
20,796.35,180.86,NA,1530.00,1402.00
22,796.65,185.71,NA,1634.00,1490.00
24,796.96,190.56,NA,1541.00,1391.00
26,797.27,195.41,NA,1623.00,1476.00
28,797.58,200.25,NA,1625.00,1456.00
30,797.88,205.09,NA,1526.00,1370.00
32,798.19,209.93,NA,1554.00,1383.00
34,798.50,214.77,NA,1560.00,1382.00
36,798.81,219.60,NA,1588.00,1376.00
38,799.12,224.43,NA,1710.00,1380.00
40,799.43,229.27,NA,2371.00,1459.00
42,799.74,234.09,NA,4499.00,1440.00
44,800.04,238.92,NA,7762.00,1571.00
46,800.35,243.75,NA,8962.00,1448.00
48,800.66,248.57,243.88,9065.00,1488.00
50,800.97,253.39,156.73,9047.00,1495.00
52,801.28,258.21,116.18,9080.00,1513.00
54,801.59,263.02,312.98,9334.00,1518.00
56,801.90,267.83,545.63,9518.00,1480.00
58,802.21,272.65,676.87,9727.00,1505.00
60,802.52,277.46,628.21,9682.00,1490.00
62,802.83,282.26,543.16,9689.00,1547.00
64,803.14,287.07,549.17,9701.00,1558.00
66,803.45,291.87,621.17,9750.00,1526.00
68,803.76,296.67,613.26,9833.00,1571.00
70,804.07,301.47,781.65,10010.00,1484.00
72,804.38,306.26,976.40,10268.00,1465.00
74,804.69,311.06,1698.27,10914.00,1461.00
76,805.00,315.85,1487.06,10722.00,1437.00
78,805.31,320.64,680.68,9944.00,1507.00
80,805.62,325.42,385.87,9568.00,1518.00
82,805.93,330.21,192.13,9232.00,1492.00
84,806.24,334.99,253.36,9112.00,1393.00
86,806.55,339.77,54.43,9028.00,1467.00
88,806.86,344.55,0.00,8915.00,1520.00
90,807.17,349.32,0.00,8797.00,1429.00
92,807.48,354.10,0.00,8822.00,1452.00
94,807.80,358.87,4.35,9044.00,1516.00
96,808.11,363.63,88.63,9159.00,1490.00
98,808.42,368.40,273.74,9380.00,1427.00
100,808.73,373.16,508.63,9837.00,1442.00
102,809.04,377.93,1126.24,10724.00,1435.00
104,809.35,382.68,2046.00,11812.00,1406.00
106,809.66,387.44,2644.96,12687.00,1458.00
108,809.98,392.19,2637.70,12780.00,1391.00
110,810.29,396.95,2519.83,12751.00,1497.00
112,810.60,401.70,2280.77,12326.00,1437.00
114,810.91,406.44,1698.92,11614.00,1444.00
116,811.22,411.19,1020.80,10840.00,1514.00
118,811.54,415.93,652.61,10287.00,1490.00
120,811.85,420.67,458.52,9898.00,1406.00
122,812.16,425.41,352.57,9748.00,1414.00
124,812.47,430.14,166.63,9581.00,1461.00
126,812.79,434.87,127.60,9488.00,1412.00
128,813.10,439.60,108.16,9418.00,1359.00
130,813.41,444.33,240.93,9649.00,1423.00
132,813.72,449.06,260.00,9689.00,1402.00
134,814.04,453.78,673.89,10240.00,1420.00
136,814.35,458.50,991.64,10572.00,1364.00
138,814.66,463.22,1469.59,11141.00,1355.00
140,814.98,467.93,1614.69,11352.00,1393.00
142,815.29,472.65,1357.14,11149.00,1416.00
144,815.60,477.36,1308.27,11153.00,1425.00
146,815.92,482.06,1639.39,11508.00,1345.00
148,816.23,486.77,2499.53,12561.00,1463.00
150,816.54,491.47,2751.90,12822.00,1528.00
152,816.86,496.17,2058.84,11924.00,1382.00
154,817.17,500.87,1401.94,11098.00,1442.00
156,817.48,505.57,1177.04,10578.00,1385.00
158,817.80,510.26,1032.16,10274.00,1383.00
160,818.11,514.95,989.32,10257.00,1459.00
162,818.42,519.64,1152.94,10464.00,1475.00
164,818.74,524.32,1333.80,10631.00,1437.00
166,819.05,529.00,1579.77,11048.00,1476.00
168,819.37,533.68,1795.63,11434.00,1448.00
170,819.68,538.36,2500.03,12463.00,1452.00
172,819.99,543.04,3393.59,13748.00,1490.00
174,820.31,547.71,4373.52,14855.00,1418.00
176,820.62,552.38,4564.83,14982.00,1364.00
178,820.94,557.05,3716.49,13981.00,1440.00
180,821.25,561.71,2632.82,12463.00,1336.00
182,821.57,566.37,2101.23,11654.00,1363.00
184,821.88,571.03,2311.42,11627.00,1412.00
186,822.20,575.69,2271.84,11284.00,1427.00
188,822.51,580.34,1372.13,10105.00,1404.00
190,822.83,584.99,547.64,8943.00,1435.00
192,823.14,589.64,137.87,8191.00,1408.00
194,823.46,594.29,5.11,7825.00,1391.00
196,823.77,598.93,0.00,7601.00,1421.00
198,824.09,603.57,0.00,7481.00,1342.00
200,824.40,608.21,0.00,7477.00,1427.00
202,824.72,612.85,0.00,7529.00,1497.00
204,825.03,617.48,10.99,7591.00,1439.00
206,825.35,622.11,133.22,7812.00,1469.00
208,825.66,626.74,325.79,8015.00,1444.00
210,825.98,631.36,568.50,8436.00,1410.00
212,826.29,635.99,1078.16,9268.00,1410.00
214,826.61,640.61,1882.82,10393.00,1456.00
216,826.92,645.22,2617.63,11141.00,1383.00
218,827.24,649.84,2285.65,10786.00,1355.00
220,827.56,654.45,1550.68,9976.00,1450.00
222,827.87,659.06,1266.55,9418.00,1437.00
224,828.19,663.67,1272.80,9211.00,1408.00
226,828.50,668.27,1046.26,8985.00,1560.00
228,828.82,672.87,814.65,8518.00,1476.00
230,829.13,677.47,610.59,8022.00,1391.00
232,829.45,682.06,364.35,7635.00,1418.00
234,829.77,686.66,60.63,7375.00,1609.00
236,830.08,691.25,0.40,6974.00,1410.00
238,830.40,695.83,0.00,6819.00,1404.00
240,830.72,700.42,0.00,6779.00,1382.00
242,831.03,705.00,0.00,6695.00,1296.00
244,831.35,709.58,43.09,6974.00,1410.00
246,831.66,714.15,106.09,6891.00,1281.00
248,831.98,718.73,78.81,7012.00,1414.00
250,832.30,723.30,8.58,6893.00,1374.00
252,832.61,727.87,0.00,6912.00,1452.00
254,832.93,732.43,0.00,6631.00,1256.00
256,833.25,736.99,0.00,6876.00,1452.00
258,833.56,741.55,0.00,6895.00,1383.00
260,833.88,746.11,0.00,6898.00,1361.00
262,834.20,750.66,0.00,6955.00,1391.00
264,834.51,755.22,24.34,7103.00,1421.00
266,834.83,759.76,61.80,7252.00,1446.00
268,835.15,764.31,145.24,7400.00,1446.00
270,835.47,768.85,226.94,7496.00,1344.00
272,835.78,773.39,431.54,7982.00,1391.00
274,836.10,777.93,846.55,8740.00,1378.00
276,836.42,782.46,1628.81,10067.00,1385.00
278,836.73,787.00,2811.02,11481.00,1359.00
280,837.05,791.52,3213.40,11855.00,1325.00
282,837.37,796.05,1682.62,10236.00,1431.00
284,837.69,800.57,636.82,8651.00,1361.00
286,838.00,805.09,390.91,8163.00,1353.00
288,838.32,809.61,598.17,8541.00,1374.00
290,838.64,814.13,1414.01,9738.00,1437.00
292,838.95,818.64,2382.41,10830.00,1389.00
294,839.27,823.15,1934.81,10636.00,1357.00
296,839.59,827.65,1629.11,10834.00,1410.00
298,839.91,832.15,2630.88,13055.00,1363.00
300,840.22,836.65,6453.42,18948.00,1526.00
302,840.54,841.15,11704.37,24448.00,1363.00
304,840.86,845.65,10098.43,23073.00,1469.00
306,841.18,850.14,4803.59,16632.00,1446.00
308,841.50,854.63,2159.06,12168.00,1583.00
310,841.81,859.11,1105.42,9615.00,1382.00
312,842.13,863.60,563.72,8535.00,1387.00
314,842.45,868.07,142.15,7848.00,1345.00
316,842.77,872.55,5.38,7637.00,1412.00
318,843.08,877.03,0.00,7555.00,1497.00
320,843.40,881.50,0.00,7335.00,1315.00
322,843.72,885.97,36.07,7774.00,1437.00
324,844.04,890.43,397.82,8449.00,1323.00
326,844.36,894.89,1385.24,10158.00,1370.00
328,844.67,899.35,3071.71,12603.00,1439.00
330,844.99,903.81,4425.45,14337.00,1317.00
332,845.31,908.26,4143.73,14496.00,1467.00
334,845.63,912.71,3885.05,13799.00,1423.00
336,845.95,917.16,3145.33,12430.00,1397.00
338,846.27,921.61,971.45,10549.00,2243.00
340,846.58,926.05,128.71,7984.00,1385.00
342,846.90,930.49,57.62,7736.00,1408.00
344,847.22,934.92,367.04,8436.00,1382.00
346,847.54,939.36,1469.35,9879.00,1311.00
348,847.86,943.79,2789.98,11434.00,1330.00
350,848.18,948.21,2574.54,11527.00,1328.00
352,848.49,952.64,2092.84,11364.00,1383.00
354,848.81,957.06,2689.95,12478.00,1294.00
356,849.13,961.48,4894.44,15648.00,1494.00
358,849.45,965.89,7197.41,17888.00,1480.00
360,849.77,970.31,5612.35,15967.00,1387.00
362,850.09,974.71,2303.37,11732.00,1385.00
364,850.40,979.12,802.90,9061.00,1467.00
366,850.72,983.52,253.26,7821.00,1511.00
368,851.04,987.92,35.70,7119.00,1317.00
370,851.36,992.32,0.00,6895.00,1328.00
372,851.68,996.72,0.00,6821.00,1363.00
374,852.00,1001.11,0.00,6729.00,1317.00
376,852.32,1005.50,0.00,6661.00,1309.00
378,852.63,1009.88,0.00,6923.00,1475.00
380,852.95,1014.26,0.00,6936.00,1401.00
382,853.27,1018.64,0.00,7060.00,1444.00
384,853.59,1023.02,19.47,7122.00,1325.00
386,853.91,1027.39,287.19,7538.00,1328.00
388,854.23,1031.76,538.25,8110.00,1364.00
390,854.55,1036.13,946.10,9084.00,1364.00
392,854.87,1040.49,2072.61,11130.00,1336.00
394,855.18,1044.86,4364.84,14262.00,1418.00
396,855.50,1049.21,5988.68,15927.00,1385.00
398,855.82,1053.57,4190.46,14135.00,1427.00
400,856.14,1057.92,1909.21,11048.00,1370.00
402,856.46,1062.27,928.66,9239.00,1383.00
404,856.78,1066.62,623.56,8489.00,1321.00
406,857.10,1070.96,570.40,8337.00,1304.00
408,857.42,1075.30,644.22,8677.00,1458.00
410,857.74,1079.64,1009.87,9456.00,1355.00
412,858.06,1083.97,1812.03,11364.00,1332.00
414,858.37,1088.30,4398.05,15730.00,1330.00
416,858.69,1092.63,9648.45,21822.00,1327.00
418,859.01,1096.95,10308.57,22669.00,1306.00
420,859.33,1101.27,5808.97,18052.00,1383.00
422,859.65,1105.59,3560.75,14726.00,1359.00
424,859.97,1109.91,3498.61,13858.00,1319.00
426,860.29,1114.22,4418.36,14272.00,1338.00
428,860.61,1118.53,3424.74,12890.00,1306.00
430,860.93,1122.84,1472.07,10538.00,1342.00
432,861.25,1127.14,457.73,8852.00,1439.00
434,861.56,1131.44,168.08,8064.00,1334.00
436,861.88,1135.74,33.77,7834.00,1334.00
438,862.20,1140.03,0.00,7724.00,1374.00
440,862.52,1144.32,0.00,7722.00,1364.00
442,862.84,1148.61,0.00,7743.00,1408.00
444,863.16,1152.89,0.12,7758.00,1336.00
446,863.48,1157.17,3.23,7800.00,1351.00
448,863.80,1161.45,0.00,7726.00,1353.00
450,864.12,1165.73,0.00,7726.00,1383.00
452,864.44,1170.00,0.00,7794.00,1327.00
454,864.76,1174.27,0.00,7982.00,1374.00
456,865.07,1178.53,0.00,8036.00,1292.00
458,865.39,1182.80,26.75,8472.00,1372.00
460,865.71,1187.06,288.42,9027.00,1359.00
462,866.03,1191.31,886.40,10274.00,1393.00
464,866.35,1195.57,2174.43,12121.00,1345.00
466,866.67,1199.82,3516.10,13687.00,1395.00
468,866.99,1204.06,2889.72,13152.00,1380.00
470,867.31,1208.31,1281.28,11354.00,1414.00
472,867.63,1212.55,457.56,10050.00,1357.00
474,867.95,1216.79,66.30,9397.00,1287.00
476,868.27,1221.02,0.00,9218.00,1363.00
478,868.58,1225.25,0.00,9192.00,1292.00
480,868.90,1229.48,0.00,9346.00,1389.00
482,869.22,1233.71,0.00,9636.00,1404.00
484,869.54,1237.93,0.07,9961.00,1486.00
486,869.86,1242.15,78.47,10414.00,1361.00
488,870.18,1246.36,490.05,11371.00,1294.00
490,870.50,1250.58,1758.00,14183.00,1395.00
492,870.82,1254.79,5545.96,18999.00,1522.00
494,871.14,1258.99,7888.08,21013.00,1397.00
496,871.46,1263.20,3923.57,17617.00,1414.00
498,871.78,1267.40,1163.16,13780.00,1344.00
500,872.10,1271.59,471.18,12349.00,1342.00
502,872.41,1275.79,348.76,12093.00,1327.00
504,872.73,1279.98,592.50,12672.00,1363.00
506,873.05,1284.17,1118.37,13645.00,1410.00
508,873.37,1288.35,2103.77,14752.00,1232.00
510,873.69,1292.53,2235.36,15109.00,1313.00
512,874.01,1296.71,1435.76,14422.00,1325.00
514,874.33,1300.88,614.16,13414.00,1271.00
516,874.65,1305.06,206.42,12945.00,1347.00
518,874.97,1309.22,135.03,12846.00,1302.00
520,875.29,1313.39,88.17,12983.00,1380.00
522,875.60,1317.55,84.30,13137.00,1395.00
524,875.92,1321.71,82.35,13209.00,1357.00
526,876.24,1325.87,17.28,13321.00,1395.00
528,876.56,1330.02,0.00,13313.00,1334.00
530,876.88,1334.17,6.98,13594.00,1402.00
532,877.20,1338.32,63.68,13682.00,1296.00
534,877.52,1342.46,21.21,13765.00,1292.00
536,877.84,1346.60,43.88,14033.00,1391.00
538,878.16,1350.73,169.00,14316.00,1332.00
540,878.47,1354.87,421.96,14766.00,1372.00
542,878.79,1359.00,915.50,15386.00,1338.00
544,879.11,1363.13,1213.64,15943.00,1370.00
546,879.43,1367.25,1758.09,16721.00,1334.00
548,879.75,1371.37,2288.52,17490.00,1325.00
550,880.07,1375.49,2661.93,18130.00,1330.00
552,880.39,1379.60,3146.68,18955.00,1364.00
554,880.71,1383.71,3705.20,19831.00,1359.00
556,881.03,1387.82,4483.79,20913.00,1327.00
558,881.34,1391.93,5295.70,22168.00,1268.00
560,881.66,1396.03,5950.40,23787.00,1306.00
562,881.98,1400.13,7661.58,26982.00,1382.00
564,882.30,1404.22,11794.84,32391.00,1399.00
566,882.62,1408.31,16662.11,37300.00,1340.00
568,882.94,1412.40,15768.29,36241.00,1376.00
570,883.26,1416.49,10296.33,30272.00,1338.00
572,883.57,1420.57,6319.41,24822.00,1435.00
574,883.89,1424.65,4884.33,21913.00,1302.00
576,884.21,1428.73,4133.88,20508.00,1418.00
578,884.53,1432.80,3842.51,20003.00,1454.00
580,884.85,1436.87,4220.28,20053.00,1330.00
582,885.17,1440.93,4361.68,19804.00,1290.00
584,885.49,1445.00,3101.53,18280.00,1328.00
586,885.80,1449.06,1782.61,16527.00,1281.00
588,886.12,1453.11,867.39,15217.00,1420.00
590,886.44,1457.17,421.07,14386.00,1368.00
592,886.76,1461.22,90.66,13894.00,1380.00
594,887.08,1465.26,0.00,13564.00,1404.00
596,887.40,1469.31,0.00,13332.00,1292.00
598,887.71,1473.35,0.00,13353.00,1311.00
600,888.03,1477.38,0.00,13359.00,1370.00
602,888.35,1481.42,55.31,13492.00,1391.00
604,888.67,1485.45,47.56,13389.00,1376.00
606,888.99,1489.48,42.18,13311.00,1313.00
608,889.31,1493.50,153.02,13444.00,1387.00
610,889.62,1497.52,122.69,13340.00,1353.00
612,889.94,1501.54,91.17,13197.00,1270.00
614,890.26,1505.56,40.03,13165.00,1338.00
616,890.58,1509.57,92.82,13201.00,1334.00
618,890.90,1513.57,159.02,13165.00,1296.00
620,891.21,1517.58,69.75,13082.00,1357.00
622,891.53,1521.58,97.46,13135.00,1368.00
624,891.85,1525.58,141.48,13093.00,1336.00
626,892.17,1529.57,196.88,13104.00,1355.00
628,892.49,1533.57,96.47,12983.00,1359.00
630,892.80,1537.56,28.88,12791.00,1315.00
632,893.12,1541.54,108.15,12829.00,1298.00
634,893.44,1545.52,53.29,12808.00,1380.00
636,893.76,1549.50,1.83,12632.00,1308.00
638,894.07,1553.48,0.00,12563.00,1380.00
640,894.39,1557.45,55.66,12622.00,1296.00
642,894.71,1561.42,16.45,12643.00,1368.00
644,895.03,1565.39,36.15,12573.00,1270.00
646,895.34,1569.35,214.40,12896.00,1410.00
648,895.66,1573.31,437.64,12972.00,1302.00
650,895.98,1577.26,506.53,13051.00,1308.00
652,896.30,1581.22,535.28,13082.00,1309.00
654,896.61,1585.17,721.29,13289.00,1349.00
656,896.93,1589.11,778.54,13404.00,1395.00
658,897.25,1593.06,800.64,13344.00,1296.00
660,897.57,1597.00,932.32,13499.00,1363.00
662,897.88,1600.93,1350.96,13904.00,1340.00
664,898.20,1604.87,1289.96,13811.00,1340.00
666,898.52,1608.80,1199.68,13674.00,1298.00
668,898.84,1612.72,1302.38,13756.00,1266.00
670,899.15,1616.65,1290.74,13852.00,1402.00
672,899.47,1620.57,1732.91,14278.00,1292.00
674,899.79,1624.49,2079.13,14705.00,1338.00
676,900.10,1628.40,2496.49,15179.00,1287.00
678,900.42,1632.31,2890.69,15829.00,1380.00
680,900.74,1636.22,3277.33,16260.00,1239.00
682,901.05,1640.12,4007.23,17346.00,1448.00
684,901.37,1644.02,4797.20,18040.00,1372.00
686,901.69,1647.92,5176.81,18333.00,1359.00
688,902.00,1651.82,4673.66,17672.00,1311.00
690,902.32,1655.71,3635.86,16398.00,1287.00
692,902.64,1659.60,2805.57,15263.00,1298.00
694,902.95,1663.48,2094.42,14280.00,1361.00
696,903.27,1667.36,1605.93,13513.00,1334.00
698,903.59,1671.24,1237.59,13004.00,1423.00
700,903.90,1675.11,1038.77,12567.00,1361.00
702,904.22,1678.99,714.39,11967.00,1262.00
704,904.54,1682.85,569.51,11954.00,1501.00
706,904.85,1686.72,394.58,11464.00,1306.00
708,905.17,1690.58,291.37,11299.00,1334.00
710,905.49,1694.44,219.41,11107.00,1294.00
712,905.80,1698.29,320.69,11149.00,1317.00
714,906.12,1702.15,137.69,10946.00,1372.00
716,906.43,1706.00,43.97,10733.00,1361.00
718,906.75,1709.84,51.98,10684.00,1429.00
720,907.07,1713.68,37.93,10418.00,1306.00
722,907.38,1717.52,32.95,10380.00,1347.00
724,907.70,1721.36,0.00,10158.00,1327.00
726,908.01,1725.19,0.00,10016.00,1345.00
728,908.33,1729.02,0.00,10014.00,1385.00
730,908.65,1732.85,33.67,9919.00,1323.00
732,908.96,1736.67,41.64,9854.00,1363.00
734,909.28,1740.49,33.61,9718.00,1319.00
736,909.59,1744.30,0.00,9613.00,1353.00
738,909.91,1748.12,70.56,9592.00,1340.00
740,910.22,1751.93,25.99,9484.00,1374.00
742,910.54,1755.73,7.33,9526.00,1522.00
744,910.85,1759.54,0.00,9300.00,1402.00
746,911.17,1763.34,0.00,9106.00,1319.00
748,911.49,1767.13,0.00,9053.00,1347.00
750,911.80,1770.93,0.00,8865.00,1275.00
752,912.12,1774.72,0.00,8935.00,1387.00
754,912.43,1778.50,0.00,8820.00,1287.00
756,912.75,1782.29,76.31,8842.00,1271.00
758,913.06,1786.07,34.64,8746.00,1277.00
760,913.38,1789.84,19.78,8729.00,1330.00
762,913.69,1793.62,69.16,8778.00,1387.00
764,914.01,1797.39,74.52,8683.00,1336.00
766,914.32,1801.15,58.30,8580.00,1302.00
768,914.64,1804.92,81.07,8514.00,1285.00
770,914.95,1808.68,60.64,8522.00,1359.00
772,915.26,1812.44,31.80,8465.00,1363.00
774,915.58,1816.19,19.79,8279.00,1268.00
776,915.89,1819.94,105.57,8385.00,1338.00
778,916.21,1823.69,109.36,8355.00,1349.00
780,916.52,1827.43,206.39,8451.00,1421.00
782,916.84,1831.17,221.45,8254.00,1271.00
784,917.15,1834.91,202.11,8197.00,1268.00
786,917.47,1838.64,263.34,8258.00,1338.00
788,917.78,1842.38,166.90,8089.00,1330.00
790,918.09,1846.10,180.58,8022.00,1308.00
792,918.41,1849.83,201.67,8047.00,1366.00
794,918.72,1853.55,238.36,7914.00,1252.00
796,919.04,1857.27,272.61,7950.00,1327.00
798,919.35,1860.98,242.75,7888.00,1336.00
800,919.66,1864.69,217.09,7789.00,1313.00
802,919.98,1868.40,302.26,7827.00,1327.00
804,920.29,1872.11,361.09,7806.00,1321.00
806,920.60,1875.81,429.49,7815.00,1298.00
808,920.92,1879.51,396.34,7764.00,1313.00
810,921.23,1883.20,497.01,7869.00,1387.00
812,921.55,1886.90,403.76,7578.00,1270.00
814,921.86,1890.58,388.40,7639.00,1389.00
816,922.17,1894.27,456.10,7635.00,1372.00
818,922.49,1897.95,411.26,7531.00,1370.00
820,922.80,1901.63,432.14,7424.00,1311.00
822,923.11,1905.31,435.80,7371.00,1315.00
824,923.42,1908.98,399.79,7333.00,1355.00
826,923.74,1912.65,437.13,7303.00,1347.00
828,924.05,1916.31,414.71,7185.00,1319.00
830,924.36,1919.98,427.50,7109.00,1287.00
832,924.68,1923.64,427.24,7050.00,1277.00
834,924.99,1927.29,436.84,7003.00,1279.00
836,925.30,1930.94,488.54,6933.00,1241.00
838,925.61,1934.59,491.73,6944.00,1304.00
840,925.93,1938.24,353.23,6790.00,1306.00
842,926.24,1941.88,364.89,6756.00,1317.00
844,926.55,1945.52,396.96,6667.00,1289.00
846,926.86,1949.16,386.01,6674.00,1355.00
848,927.18,1952.79,376.85,6542.00,1302.00
850,927.49,1956.42,436.23,6564.00,1300.00
852,927.80,1960.05,291.49,6502.00,1421.00
854,928.11,1963.67,388.26,6422.00,1321.00
856,928.42,1967.29,360.61,6367.00,1366.00
858,928.74,1970.91,320.33,6242.00,1327.00
860,929.05,1974.52,346.85,6179.00,1294.00
862,929.36,1978.13,280.17,6063.00,1296.00
864,929.67,1981.74,223.15,5981.00,1327.00
866,929.98,1985.35,214.59,5919.00,1330.00
868,930.29,1988.95,233.62,5898.00,1344.00
870,930.61,1992.54,199.43,5719.00,1270.00
872,930.92,1996.14,186.86,5695.00,1313.00
874,931.23,1999.73,156.80,5674.00,1351.00
876,931.54,2003.32,126.22,5606.00,1351.00
878,931.85,2006.90,100.41,5473.00,1313.00
880,932.16,2010.48,181.48,5458.00,1290.00
882,932.47,2014.06,241.87,5458.00,1294.00
884,932.78,2017.63,133.37,5372.00,1344.00
886,933.09,2021.21,72.17,5243.00,1328.00
888,933.41,2024.77,80.64,5239.00,1370.00
890,933.72,2028.34,19.07,5182.00,1425.00
892,934.03,2031.90,25.66,5066.00,1349.00
894,934.34,2035.46,23.68,5008.00,1355.00
896,934.65,2039.01,29.13,4911.00,1306.00
898,934.96,2042.57,0.00,4884.00,1389.00
900,935.27,2046.11,22.02,4958.00,1439.00
902,935.58,2049.66,27.85,4696.00,1232.00
904,935.89,2053.20,0.00,4727.00,1340.00
906,936.20,2056.74,0.00,4660.00,1342.00
908,936.51,2060.28,0.00,4617.00,1330.00
910,936.82,2063.81,14.43,4679.00,1380.00
912,937.13,2067.34,99.41,4635.00,1328.00
914,937.44,2070.86,26.80,4527.00,1319.00
916,937.75,2074.39,36.46,4478.00,1287.00
918,938.06,2077.91,0.00,4402.00,1298.00
920,938.37,2081.42,23.12,4421.00,1323.00
922,938.68,2084.94,33.52,4351.00,1275.00
924,938.99,2088.45,35.45,4339.00,1306.00
926,939.30,2091.95,140.38,4438.00,1353.00
928,939.60,2095.46,65.88,4288.00,1304.00
930,939.91,2098.96,131.49,4391.00,1385.00
932,940.22,2102.45,59.86,4246.00,1334.00
934,940.53,2105.95,66.49,4172.00,1289.00
936,940.84,2109.44,23.80,4110.00,1309.00
938,941.15,2112.92,68.25,4163.00,1344.00
940,941.46,2116.41,33.05,4026.00,1287.00
942,941.77,2119.89,35.87,4047.00,1349.00
944,942.07,2123.37,1.15,3946.00,1309.00
946,942.38,2126.84,3.99,3981.00,1368.00
948,942.69,2130.31,0.71,3944.00,1370.00
950,943.00,2133.78,15.98,3865.00,1302.00
952,943.31,2137.24,0.00,3829.00,1344.00
954,943.62,2140.70,0.00,3838.00,1355.00
956,943.92,2144.16,74.25,3840.00,1304.00
958,944.23,2147.62,0.00,3791.00,1347.00
960,944.54,2151.07,30.12,3876.00,1408.00
962,944.85,2154.52,8.46,3842.00,1418.00
964,945.16,2157.96,2.64,3783.00,1382.00
966,945.46,2161.40,59.74,3802.00,1363.00
968,945.77,2164.84,128.32,3679.00,1233.00
970,946.08,2168.28,59.76,3728.00,1315.00
972,946.39,2171.71,0.59,3645.00,1319.00
974,946.69,2175.14,21.13,3671.00,1321.00
976,947.00,2178.57,123.48,3692.00,1313.00
978,947.31,2181.99,93.66,3624.00,1275.00
980,947.61,2185.41,63.76,3643.00,1330.00
982,947.92,2188.82,64.89,3675.00,1380.00
984,948.23,2192.24,40.37,3525.00,1266.00
986,948.53,2195.65,35.87,3553.00,1321.00
988,948.84,2199.05,8.66,3419.00,1232.00
990,949.15,2202.46,94.36,3576.00,1342.00
992,949.45,2205.86,110.80,3551.00,1317.00
994,949.76,2209.25,19.09,3441.00,1281.00
996,950.07,2212.65,0.00,3430.00,1330.00
998,950.37,2216.04,108.28,3439.00,1252.00
1000,950.68,2219.43,73.69,3434.00,1304.00
1002,950.98,2222.81,37.30,3445.00,1349.00
1004,951.29,2226.19,39.49,3367.00,1287.00
1006,951.60,2229.57,83.84,3354.00,1256.00
1008,951.90,2232.94,62.24,3327.00,1256.00
1010,952.21,2236.32,45.87,3326.00,1285.00
1012,952.51,2239.68,80.54,3360.00,1317.00
1014,952.82,2243.05,29.64,3214.00,1226.00
1016,953.12,2246.41,22.58,3358.00,1389.00
1018,953.43,2249.77,83.01,3455.00,1459.00
1020,953.73,2253.12,35.50,3329.00,1380.00
1022,954.04,2256.48,0.00,3130.00,1241.00
1024,954.34,2259.83,66.83,3312.00,1378.00
1026,954.65,2263.17,57.21,3196.00,1283.00
1028,954.95,2266.51,6.26,3198.00,1325.00
1030,955.26,2269.85,0.39,3267.00,1423.00
1032,955.56,2273.19,34.87,3206.00,1336.00
1034,955.87,2276.52,0.00,3170.00,1363.00
1036,956.17,2279.85,29.89,3215.00,1380.00
1038,956.48,2283.18,7.89,3067.00,1256.00
1040,956.78,2286.50,48.82,3119.00,1285.00
1042,957.08,2289.82,82.67,3071.00,1235.00
1044,957.39,2293.14,10.33,3117.00,1338.00
1046,957.69,2296.45,53.93,3075.00,1268.00
1048,957.99,2299.76,99.12,3234.00,1412.00
1050,958.30,2303.07,101.91,3168.00,1347.00
1052,958.60,2306.38,88.60,3128.00,1328.00
1054,958.91,2309.68,129.56,3124.00,1308.00
1056,959.21,2312.98,10.41,2986.00,1264.00
1058,959.51,2316.27,25.97,3043.00,1311.00
1060,959.82,2319.56,0.00,3062.00,1380.00
1062,960.12,2322.85,58.50,3014.00,1275.00
1064,960.42,2326.14,22.34,2993.00,1294.00
1066,960.72,2329.42,129.43,3081.00,1321.00
1068,961.03,2332.70,134.04,3079.00,1332.00
1070,961.33,2335.97,67.02,3041.00,1327.00
1072,961.63,2339.25,40.62,2997.00,1300.00
1074,961.93,2342.52,61.04,3009.00,1315.00
1076,962.24,2345.78,101.91,3005.00,1304.00
1078,962.54,2349.05,45.55,2991.00,1325.00
1080,962.84,2352.31,73.93,2984.00,1306.00
1082,963.14,2355.56,124.50,2969.00,1285.00
1084,963.45,2358.82,107.68,2978.00,1300.00
1086,963.75,2362.07,11.85,2971.00,1364.00
1088,964.05,2365.32,34.62,3048.00,1431.00
1090,964.35,2368.56,15.14,2910.00,1317.00
1092,964.65,2371.80,8.69,2938.00,1351.00
1094,964.95,2375.04,3.92,2891.00,1319.00
1096,965.25,2378.27,29.90,2870.00,1281.00
1098,965.56,2381.51,36.82,2914.00,1332.00
1100,965.86,2384.73,173.28,2980.00,1325.00
1102,966.16,2387.96,82.21,2910.00,1313.00
1104,966.46,2391.18,74.81,2971.00,1374.00
1106,966.76,2394.40,132.33,2925.00,1309.00
1108,967.06,2397.62,155.81,2995.00,1378.00
1110,967.36,2400.83,61.01,2864.00,1296.00
1112,967.66,2404.04,62.68,2969.00,1408.00
1114,967.96,2407.25,215.98,2878.00,1245.00
1116,968.26,2410.45,94.71,2885.00,1328.00
1118,968.56,2413.65,67.37,2811.00,1273.00
1120,968.86,2416.85,78.38,2952.00,1420.00
1122,969.16,2420.04,27.74,2836.00,1338.00
1124,969.46,2423.23,0.00,2743.00,1281.00
1126,969.76,2426.42,35.78,2826.00,1327.00
1128,970.06,2429.60,115.11,2773.00,1247.00
1130,970.36,2432.79,81.45,2813.00,1311.00
1132,970.66,2435.96,84.70,2794.00,1292.00
1134,970.96,2439.14,123.93,2832.00,1313.00
1136,971.26,2442.31,121.03,2874.00,1364.00
1138,971.56,2445.48,189.78,2872.00,1327.00
1140,971.86,2448.65,250.91,2853.00,1281.00
1142,972.16,2451.81,231.29,2912.00,1357.00
1144,972.45,2454.97,275.36,2904.00,1327.00
1146,972.75,2458.13,231.38,2883.00,1344.00
1148,973.05,2461.28,267.96,2834.00,1279.00
1150,973.35,2464.43,181.17,2841.00,1338.00
1152,973.65,2467.58,191.79,2828.00,1321.00
1154,973.95,2470.72,265.52,2866.00,1328.00
1156,974.24,2473.86,310.26,2838.00,1289.00
1158,974.54,2477.00,394.36,2864.00,1271.00
1160,974.84,2480.13,304.19,2878.00,1344.00
1162,975.14,2483.27,346.27,2864.00,1311.00
1164,975.43,2486.40,343.58,2796.00,1254.00
1166,975.73,2489.52,363.23,2843.00,1298.00
1168,976.03,2492.64,328.50,2815.00,1300.00
1170,976.33,2495.76,289.10,2838.00,1347.00
1172,976.62,2498.88,214.24,2722.00,1279.00
1174,976.92,2501.99,296.85,2843.00,1366.00
1176,977.22,2505.10,268.92,2807.00,1355.00
1178,977.51,2508.21,230.07,2747.00,1321.00
1180,977.81,2511.31,220.62,2728.00,1323.00
1182,978.11,2514.41,222.39,2707.00,1313.00
1184,978.40,2517.51,256.11,2739.00,1323.00
1186,978.70,2520.61,193.12,2707.00,1325.00
1188,979.00,2523.70,150.65,2709.00,1368.00
1190,979.29,2526.79,241.75,2686.00,1308.00
1192,979.59,2529.87,197.24,2663.00,1313.00
1194,979.88,2532.95,181.43,2635.00,1296.00
1196,980.18,2536.03,241.93,2716.00,1345.00
1198,980.48,2539.11,199.11,2731.00,1402.00
1200,980.77,2542.18,310.82,2691.00,1317.00
1202,981.07,2545.25,168.62,2697.00,1397.00
1204,981.36,2548.32,235.08,2642.00,1311.00
1206,981.66,2551.38,195.98,2695.00,1404.00
1208,981.95,2554.44,214.48,2610.00,1311.00
1210,982.25,2557.50,79.13,2650.00,1427.00
1212,982.54,2560.56,159.47,2654.00,1395.00
1214,982.84,2563.61,118.88,2644.00,1404.00
1216,983.13,2566.66,45.97,2606.00,1416.00
1218,983.43,2569.70,105.65,2602.00,1389.00
1220,983.72,2572.74,132.62,2606.00,1399.00
1222,984.01,2575.78,295.62,2619.00,1347.00
1224,984.31,2578.82,201.44,2532.00,1309.00
1226,984.60,2581.85,212.31,2579.00,1359.00
1228,984.90,2584.88,214.95,2492.00,1283.00
1230,985.19,2587.91,110.75,2494.00,1338.00
1232,985.48,2590.93,121.21,2564.00,1408.00
1234,985.78,2593.96,80.48,2492.00,1374.00
1236,986.07,2596.97,118.58,2477.00,1344.00
1238,986.36,2599.99,74.22,2542.00,1437.00
1240,986.66,2603.00,104.68,2511.00,1406.00
1242,986.95,2606.01,57.22,2505.00,1433.00
1244,987.24,2609.01,33.28,2460.00,1408.00
1246,987.54,2612.02,42.21,2283.00,1239.00
1248,987.83,2615.02,249.76,2483.00,1366.00
1250,988.12,2618.01,111.76,2437.00,1383.00
1252,988.41,2621.01,72.07,2409.00,1366.00
1254,988.71,2624.00,2.39,2316.00,1325.00
1256,989.00,2626.99,20.04,2378.00,1383.00
1258,989.29,2629.97,23.37,2342.00,1359.00
1260,989.58,2632.95,125.21,2403.00,1389.00
1262,989.87,2635.93,153.58,2405.00,1387.00
1264,990.16,2638.91,46.56,2278.00,1308.00
1266,990.46,2641.88,64.37,2365.00,1387.00
1268,990.75,2644.85,0.00,2418.00,1492.00
1270,991.04,2647.81,95.82,2323.00,1357.00
1272,991.33,2650.78,4.42,2329.00,1406.00
1274,991.62,2653.74,33.84,2306.00,1366.00
1276,991.91,2656.70,33.65,2287.00,1355.00
1278,992.20,2659.65,81.76,2317.00,1376.00
1280,992.49,2662.60,56.13,2264.00,1342.00
1282,992.78,2665.55,41.70,2363.00,1452.00
1284,993.07,2668.50,127.61,2376.00,1437.00
1286,993.36,2671.44,91.25,2325.00,1408.00
1288,993.65,2674.38,88.11,2350.00,1437.00
1290,993.94,2677.31,113.65,2327.00,1406.00
1292,994.23,2680.25,92.39,2285.00,1383.00
1294,994.52,2683.18,128.88,2302.00,1395.00
1296,994.81,2686.10,111.12,2299.00,1391.00
1298,995.10,2689.03,22.35,2266.00,1404.00
1300,995.39,2691.95,45.68,2240.00,1374.00
1302,995.68,2694.87,198.86,2354.00,1440.00
1304,995.97,2697.78,127.85,2306.00,1425.00
1306,996.26,2700.70,174.41,2213.00,1315.00
1308,996.55,2703.61,110.97,2251.00,1389.00
1310,996.84,2706.51,299.98,2354.00,1421.00
1312,997.13,2709.42,101.76,2253.00,1397.00
1314,997.41,2712.32,182.95,2295.00,1414.00
1316,997.70,2715.21,148.96,2226.00,1374.00
1318,997.99,2718.11,197.52,2230.00,1366.00
1320,998.28,2721.00,57.94,2158.00,1347.00
1322,998.57,2723.89,48.95,2243.00,1435.00
1324,998.86,2726.77,12.37,2109.00,1325.00
1326,999.14,2729.66,125.69,2194.00,1366.00
1328,999.43,2732.54,106.69,2187.00,1385.00
1330,999.72,2735.41,186.96,2168.00,1349.00
1332,1000.01,2738.29,217.49,2257.00,1423.00
1334,1000.29,2741.16,100.84,2164.00,1359.00
1336,1000.58,2744.03,6.49,2074.00,1323.00
1338,1000.87,2746.89,87.34,2217.00,1439.00
1340,1001.15,2749.75,109.94,2145.00,1374.00
1342,1001.44,2752.61,17.12,2131.00,1391.00
1344,1001.73,2755.47,17.96,2076.00,1336.00
1346,1002.01,2758.32,5.96,2076.00,1342.00
1348,1002.30,2761.17,7.84,2173.00,1439.00
1350,1002.59,2764.02,31.59,2188.00,1448.00
1352,1002.87,2766.86,197.95,2156.00,1374.00
1354,1003.16,2769.70,123.54,2107.00,1345.00
1356,1003.44,2772.54,78.29,2071.00,1319.00
1358,1003.73,2775.38,161.77,2147.00,1370.00
1360,1004.01,2778.21,113.35,2059.00,1304.00
1362,1004.30,2781.04,86.28,2103.00,1353.00
1364,1004.58,2783.87,103.60,2107.00,1349.00
1366,1004.87,2786.69,15.48,2002.00,1281.00
1368,1005.15,2789.51,57.06,2143.00,1410.00
1370,1005.44,2792.33,90.99,2179.00,1433.00
1372,1005.72,2795.14,50.97,2164.00,1429.00
1374,1006.01,2797.95,16.29,2166.00,1444.00
1376,1006.29,2800.76,149.76,2093.00,1330.00
1378,1006.58,2803.57,23.96,2202.00,1475.00
1380,1006.86,2806.37,76.97,2082.00,1332.00
1382,1007.14,2809.17,30.51,2101.00,1366.00
1384,1007.43,2811.97,48.00,2071.00,1327.00
1386,1007.71,2814.77,108.38,2069.00,1302.00
1388,1008.00,2817.56,0.00,2061.00,1334.00
1390,1008.28,2820.35,28.69,2154.00,1406.00
1392,1008.56,2823.13,0.00,2069.00,1347.00
1394,1008.85,2825.91,137.95,2168.00,1376.00
1396,1009.13,2828.69,22.53,2130.00,1364.00
1398,1009.41,2831.47,8.03,2187.00,1418.00
1400,1009.69,2834.24,0.00,2061.00,1302.00
1402,1009.98,2837.02,105.77,2152.00,1344.00
1404,1010.26,2839.78,0.00,2204.00,1425.00
1406,1010.54,2842.55,2.48,2122.00,1325.00
1408,1010.82,2845.31,58.42,2205.00,1374.00
1410,1011.11,2848.07,11.69,2230.00,1410.00
1412,1011.39,2850.83,50.14,2255.00,1412.00
1414,1011.67,2853.58,69.23,2238.00,1385.00
1416,1011.95,2856.33,131.03,2261.00,1383.00
1418,1012.23,2859.08,334.05,2285.00,1349.00
1420,1012.51,2861.83,295.78,2270.00,1334.00
1422,1012.80,2864.57,224.02,2422.00,1494.00
1424,1013.08,2867.31,145.67,2357.00,1435.00
1426,1013.36,2870.04,49.36,2350.00,1442.00
1428,1013.64,2872.78,71.94,2327.00,1402.00
1430,1013.92,2875.51,294.96,2460.00,1482.00
1432,1014.20,2878.24,211.48,2363.00,1404.00
1434,1014.48,2880.96,88.00,2306.00,1355.00
1436,1014.76,2883.68,4.12,2274.00,1342.00
1438,1015.04,2886.40,130.05,2304.00,1332.00
1440,1015.32,2889.12,69.03,2390.00,1429.00
1442,1015.60,2891.83,24.28,2299.00,1330.00
1444,1015.88,2894.54,0.00,2374.00,1418.00
1446,1016.16,2897.25,0.00,2264.00,1294.00
1448,1016.44,2899.96,0.00,2388.00,1416.00
1450,1016.72,2902.66,0.00,2371.00,1383.00
1452,1017.00,2905.36,0.00,2452.00,1478.00
1454,1017.28,2908.06,1.29,2378.00,1336.00
1456,1017.55,2910.75,0.00,2458.00,1412.00
1458,1017.83,2913.44,93.64,2475.00,1319.00
1460,1018.11,2916.13,275.11,2602.00,1406.00
1462,1018.39,2918.81,893.37,2735.00,1404.00
1464,1018.67,2921.49,1364.03,2790.00,1357.00
1466,1018.95,2924.17,1751.62,2910.00,1383.00
1468,1019.22,2926.85,2666.40,3183.00,1420.00
1470,1019.50,2929.52,3599.86,3377.00,1338.00
1472,1019.78,2932.20,4863.64,3745.00,1336.00
1474,1020.06,2934.86,8064.27,4523.00,1351.00
1476,1020.33,2937.53,13326.48,5672.00,1484.00
1478,1020.61,2940.19,19558.65,6716.00,1389.00
1480,1020.89,2942.85,23158.27,7599.00,1446.00
1482,1021.17,2945.51,24573.03,8020.00,1391.00
1484,1021.44,2948.16,29675.64,8926.00,1406.00
1486,1021.72,2950.81,37557.21,9807.00,1366.00
1488,1022.00,2953.46,39935.77,9951.00,1482.00
1490,1022.27,2956.11,31308.44,8651.00,1402.00
1492,1022.55,2958.75,18119.34,6642.00,1439.00
1494,1022.82,2961.39,10516.56,5120.00,1387.00
1496,1023.10,2964.03,7072.54,4260.00,1439.00
1498,1023.38,2966.66,5724.41,3694.00,1359.00
1500,1023.65,2969.29,4927.11,3468.00,1418.00
1502,1023.93,2971.92,4572.14,3396.00,1427.00
1504,1024.20,2974.55,4201.36,3356.00,1427.00
1506,1024.48,2977.17,5561.91,3665.00,1399.00
1508,1024.75,2979.79,8092.25,4072.00,1338.00
1510,1025.03,2982.41,12713.01,4827.00,1383.00
1512,1025.30,2985.02,17912.45,5475.00,1344.00
1514,1025.58,2987.63,20786.73,5898.00,1401.00
1516,1025.85,2990.24,20528.22,5875.00,1340.00
1518,1026.13,2992.85,17258.18,5575.00,1444.00
1520,1026.40,2995.45,14143.39,5044.00,1414.00
1522,1026.68,2998.05,13325.32,4746.00,1378.00
1524,1026.95,3000.65,12836.26,4544.00,1452.00
1526,1027.22,3003.25,10619.62,4049.00,1368.00
1528,1027.50,3005.84,6435.54,3436.00,1363.00
1530,1027.77,3008.43,3397.79,2999.00,1427.00
1532,1028.04,3011.02,2005.57,2705.00,1439.00
1534,1028.32,3013.60,1286.33,2458.00,1393.00
1536,1028.59,3016.18,894.29,2363.00,1401.00
1538,1028.86,3018.76,441.22,2128.00,1260.00
1540,1029.14,3021.34,115.39,2181.00,1404.00
1542,1029.41,3023.91,47.81,2080.00,1353.00
1544,1029.68,3026.48,0.00,1991.00,1344.00
1546,1029.95,3029.05,0.00,2025.00,1412.00
1548,1030.22,3031.61,0.00,1987.00,1366.00
1550,1030.50,3034.17,182.96,1964.00,1334.00
1552,1030.77,3036.73,0.00,1934.00,1359.00
1554,1031.04,3039.29,20.98,1987.00,1410.00
1556,1031.31,3041.84,44.94,1860.00,1294.00
1558,1031.58,3044.39,0.00,2016.00,1490.00
1560,1031.85,3046.94,0.00,1951.00,1459.00
1562,1032.13,3049.49,129.65,1866.00,1325.00
1564,1032.40,3052.03,0.00,1947.00,1452.00
1566,1032.67,3054.57,415.95,1887.00,1327.00
1568,1032.94,3057.11,63.75,1974.00,1469.00
1570,1033.21,3059.64,47.24,1816.00,1315.00
1572,1033.48,3062.18,0.00,1928.00,1456.00
1574,1033.75,3064.70,91.68,1930.00,1437.00
1576,1034.02,3067.23,51.77,1907.00,1429.00
1578,1034.29,3069.75,178.98,1795.00,1308.00
1580,1034.56,3072.28,261.35,1904.00,1406.00
1582,1034.83,3074.79,0.00,1778.00,1328.00
1584,1035.10,3077.31,158.20,1913.00,1431.00
1586,1035.37,3079.82,133.67,1833.00,1357.00
1588,1035.64,3082.33,0.00,1940.00,1497.00
1590,1035.91,3084.84,217.33,1888.00,1406.00
1592,1036.17,3087.34,147.90,1828.00,1370.00
1594,1036.44,3089.85,333.26,1964.00,1488.00
1596,1036.71,3092.35,278.95,1841.00,1357.00
1598,1036.98,3094.84,59.45,1778.00,1330.00
1600,1037.25,3097.34,242.99,1773.00,1304.00
1602,1037.52,3099.83,321.11,1828.00,1355.00
1604,1037.78,3102.32,45.81,1835.00,1391.00
1606,1038.05,3104.80,14.07,1913.00,1473.00
1608,1038.32,3107.29,0.00,1824.00,1391.00
1610,1038.59,3109.77,373.71,1839.00,1361.00
1612,1038.85,3112.24,406.28,1845.00,1363.00
1614,1039.12,3114.72,82.60,1906.00,1444.00
1616,1039.39,3117.19,0.00,1746.00,1313.00
1618,1039.66,3119.66,45.36,1904.00,1437.00
1620,1039.92,3122.13,193.30,1917.00,1435.00
1622,1040.19,3124.59,628.94,1896.00,1380.00
1624,1040.45,3127.05,4.03,1813.00,1351.00
1626,1040.72,3129.51,99.83,1896.00,1418.00
1628,1040.99,3131.97,158.02,1926.00,1437.00
1630,1041.25,3134.42,225.66,1962.00,1463.00
1632,1041.52,3136.87,129.39,1822.00,1330.00
1634,1041.78,3139.32,139.50,1904.00,1404.00
1636,1042.05,3141.77,0.00,2093.00,1617.00
1638,1042.32,3144.21,283.43,1913.00,1389.00
1640,1042.58,3146.65,0.00,1974.00,1503.00
1642,1042.85,3149.09,337.43,1932.00,1399.00
1644,1043.11,3151.52,142.20,1947.00,1414.00
1646,1043.38,3153.96,4.85,1966.00,1444.00
1648,1043.64,3156.39,0.00,1915.00,1389.00
1650,1043.90,3158.81,52.38,1949.00,1395.00
1652,1044.17,3161.24,243.21,2002.00,1423.00
1654,1044.43,3163.66,548.79,1926.00,1328.00
1656,1044.70,3166.08,796.48,2118.00,1495.00
1658,1044.96,3168.49,412.74,2018.00,1408.00
1660,1045.22,3170.91,147.29,1981.00,1389.00
1662,1045.49,3173.32,131.38,1995.00,1399.00
1664,1045.75,3175.73,204.52,2042.00,1425.00
1666,1046.01,3178.13,34.10,1987.00,1380.00
1668,1046.28,3180.54,9.76,2067.00,1459.00
1670,1046.54,3182.94,0.00,2082.00,1476.00
1672,1046.80,3185.34,739.89,2120.00,1433.00
1674,1047.07,3187.73,265.32,2012.00,1372.00
1676,1047.33,3190.12,609.40,2082.00,1402.00
1678,1047.59,3192.51,857.95,2141.00,1425.00
1680,1047.85,3194.90,727.94,2215.00,1511.00
1682,1048.11,3197.29,671.36,2166.00,1467.00
1684,1048.38,3199.67,842.87,2158.00,1437.00
1686,1048.64,3202.05,404.00,2183.00,1494.00
1688,1048.90,3204.43,999.04,2168.00,1418.00
1690,1049.16,3206.80,776.84,2135.00,1410.00
1692,1049.42,3209.17,921.25,2215.00,1482.00
1694,1049.68,3211.54,1434.70,2141.00,1370.00
1696,1049.94,3213.91,965.24,2152.00,1421.00
1698,1050.20,3216.27,1441.91,2192.00,1418.00
1700,1050.46,3218.63,1664.79,2308.00,1511.00
1702,1050.72,3220.99,1448.60,2224.00,1444.00
1704,1050.98,3223.35,2201.66,2293.00,1452.00
1706,1051.24,3225.70,2372.84,2242.00,1402.00
1708,1051.50,3228.05,2773.62,2223.00,1363.00
1710,1051.76,3230.40,2978.68,2359.00,1478.00
1712,1052.02,3232.75,2667.59,2297.00,1425.00
1714,1052.28,3235.09,2688.98,2371.00,1492.00
1716,1052.54,3237.43,3099.89,2321.00,1420.00
1718,1052.80,3239.77,3674.09,2319.00,1389.00
1720,1053.06,3242.11,4104.54,2361.00,1408.00
1722,1053.32,3244.44,4265.93,2342.00,1380.00
1724,1053.58,3246.77,4091.34,2473.00,1522.00
1726,1053.84,3249.10,4466.85,2397.00,1414.00
1728,1054.10,3251.42,4350.18,2416.00,1444.00
1730,1054.35,3253.75,4673.84,2390.00,1406.00
1732,1054.61,3256.07,5361.83,2475.00,1456.00
1734,1054.87,3258.39,5351.43,2437.00,1420.00
1736,1055.13,3260.70,4822.95,2393.00,1404.00
1738,1055.38,3263.01,4955.58,2407.00,1408.00
1740,1055.64,3265.32,5424.33,2441.00,1425.00
1742,1055.90,3267.63,5801.79,2371.00,1345.00
1744,1056.16,3269.94,5321.39,2479.00,1486.00
1746,1056.41,3272.24,5538.22,2515.00,1503.00
1748,1056.67,3274.54,5005.97,2441.00,1471.00
1750,1056.93,3276.84,5591.78,2448.00,1454.00
1752,1057.18,3279.13,5570.76,2384.00,1401.00
1754,1057.44,3281.42,5049.28,2329.00,1376.00
1756,1057.69,3283.71,4707.46,2335.00,1399.00
1758,1057.95,3286.00,4753.42,2441.00,1505.00
1760,1058.21,3288.28,4668.85,2312.00,1389.00
1762,1058.46,3290.57,4182.28,2371.00,1486.00
1764,1058.72,3292.85,4115.02,2327.00,1456.00
1766,1058.97,3295.12,4169.95,2266.00,1402.00
1768,1059.23,3297.40,4387.46,2240.00,1364.00
1770,1059.48,3299.67,3543.20,2297.00,1463.00
1772,1059.74,3301.94,2622.43,2147.00,1366.00
1774,1059.99,3304.21,3314.67,2293.00,1473.00
1776,1060.25,3306.47,3337.81,2321.00,1513.00
1778,1060.50,3308.73,3473.01,2187.00,1385.00
1780,1060.76,3310.99,3244.56,2188.00,1406.00
1782,1061.01,3313.25,3463.06,2232.00,1440.00
1784,1061.26,3315.50,3147.24,2168.00,1395.00
1786,1061.52,3317.76,2669.83,2204.00,1458.00
1788,1061.77,3320.01,2068.74,2211.00,1494.00
1790,1062.02,3322.25,1705.21,2084.00,1383.00
1792,1062.28,3324.50,1599.71,2131.00,1440.00
1794,1062.53,3326.74,2188.52,2074.00,1364.00
1796,1062.78,3328.98,2369.65,2112.00,1406.00
1798,1063.04,3331.22,1482.01,2073.00,1412.00
1800,1063.29,3333.45,1177.72,2042.00,1395.00
1802,1063.54,3335.68,1322.64,2059.00,1406.00
1804,1063.79,3337.91,1388.22,2124.00,1471.00
1806,1064.05,3340.14,1286.62,2177.00,1530.00
1808,1064.30,3342.36,495.23,1970.00,1366.00
1810,1064.55,3344.59,1473.68,2082.00,1433.00
1812,1064.80,3346.81,1123.03,2018.00,1395.00
1814,1065.05,3349.02,874.04,1987.00,1383.00
1816,1065.30,3351.24,1524.62,2112.00,1486.00
1818,1065.55,3353.45,1113.43,2002.00,1401.00
1820,1065.81,3355.66,1212.67,2145.00,1543.00
1822,1066.06,3357.87,836.76,1993.00,1406.00
1824,1066.31,3360.07,325.84,1926.00,1366.00
1826,1066.56,3362.27,276.22,2004.00,1452.00
1828,1066.81,3364.47,1447.06,1966.00,1366.00
1830,1067.06,3366.67,1762.38,1989.00,1397.00
1832,1067.31,3368.87,1008.29,1951.00,1395.00
1834,1067.56,3371.06,1292.72,1871.00,1306.00
1836,1067.81,3373.25,724.45,1871.00,1328.00
1838,1068.06,3375.44,872.44,1907.00,1353.00
1840,1068.31,3377.62,531.92,1902.00,1368.00
1842,1068.56,3379.81,543.87,1860.00,1334.00
1844,1068.80,3381.99,1225.12,2056.00,1514.00
1846,1069.05,3384.16,2127.29,1976.00,1420.00
1848,1069.30,3386.34,1949.98,1944.00,1399.00
1850,1069.55,3388.51,1195.53,1881.00,1359.00
1852,1069.80,3390.68,676.11,1919.00,1420.00
1854,1070.05,3392.85,1355.29,2050.00,1526.00
1856,1070.30,3395.02,1099.68,1911.00,1406.00
1858,1070.54,3397.18,813.34,1831.00,1345.00
1860,1070.79,3399.34,821.94,1879.00,1401.00
1862,1071.04,3401.50,2008.38,1873.00,1364.00
1864,1071.29,3403.66,1582.39,1784.00,1294.00
1866,1071.53,3405.81,1873.00,1915.00,1410.00
1868,1071.78,3407.96,857.94,1856.00,1389.00
1870,1072.03,3410.11,875.20,1881.00,1418.00
1872,1072.27,3412.26,1052.75,1879.00,1423.00
1874,1072.52,3414.40,3223.59,1875.00,1366.00
1876,1072.77,3416.54,2411.42,1845.00,1368.00
1878,1073.01,3418.68,2010.45,1926.00,1458.00
1880,1073.26,3420.82,1314.94,1714.00,1271.00
1882,1073.51,3422.96,1365.48,1866.00,1427.00
1884,1073.75,3425.09,1337.63,1837.00,1406.00
1886,1074.00,3427.22,1144.68,1765.00,1347.00
1888,1074.24,3429.35,2393.84,1913.00,1459.00
1890,1074.49,3431.47,1615.63,1776.00,1355.00
1892,1074.73,3433.59,1951.84,1738.00,1313.00
1894,1074.98,3435.71,1489.86,1871.00,1469.00
1896,1075.22,3437.83,2161.94,1805.00,1389.00
1898,1075.47,3439.95,1449.70,1826.00,1437.00
1900,1075.71,3442.06,2194.84,1854.00,1448.00
1902,1075.96,3444.17,1699.39,1761.00,1376.00
1904,1076.20,3446.28,1996.60,1623.00,1233.00
1906,1076.44,3448.38,1900.78,1883.00,1501.00
1908,1076.69,3450.49,2501.38,1841.00,1450.00
1910,1076.93,3452.59,1159.85,1775.00,1431.00
1912,1077.17,3454.69,1809.44,1727.00,1370.00
1914,1077.42,3456.79,592.65,1735.00,1414.00
1916,1077.66,3458.88,121.50,1678.00,1376.00
1918,1077.90,3460.97,1368.93,1685.00,1344.00
1920,1078.15,3463.06,1468.10,1805.00,1473.00
1922,1078.39,3465.15,791.97,1723.00,1420.00
1924,1078.63,3467.23,1815.39,1657.00,1334.00
1926,1078.87,3469.32,2290.50,1771.00,1439.00
1928,1079.12,3471.40,1812.43,1687.00,1370.00
1930,1079.36,3473.47,1457.90,1858.00,1554.00
1932,1079.60,3475.55,1888.28,1642.00,1330.00
1934,1079.84,3477.62,3100.55,1740.00,1402.00
1936,1080.08,3479.69,3469.43,1682.00,1347.00
1938,1080.33,3481.76,3773.48,1659.00,1328.00
1940,1080.57,3483.83,3318.66,1704.00,1389.00
1942,1080.81,3485.89,2758.29,1687.00,1385.00
1944,1081.05,3487.95,1822.68,1746.00,1465.00
1946,1081.29,3490.01,1711.25,1706.00,1427.00
1948,1081.53,3492.07,1574.23,1625.00,1357.00
1950,1081.77,3494.12,3779.09,1674.00,1366.00
1952,1082.01,3496.18,4093.29,1706.00,1408.00
1954,1082.25,3498.23,3434.79,1636.00,1353.00
1956,1082.49,3500.27,1505.48,1636.00,1393.00
1958,1082.73,3502.32,2233.38,1587.00,1323.00
1960,1082.97,3504.36,1739.20,1676.00,1429.00
1962,1083.21,3506.40,2313.37,1604.00,1351.00
1964,1083.45,3508.44,3126.47,1560.00,1302.00
1966,1083.69,3510.48,3530.73,1750.00,1495.00
1968,1083.93,3512.51,3031.77,1659.00,1416.00
1970,1084.16,3514.54,1530.31,1590.00,1376.00
1972,1084.40,3516.57,1454.86,1596.00,1383.00
1974,1084.64,3518.60,1421.82,1541.00,1332.00
1976,1084.88,3520.62,1172.78,1663.00,1467.00
1978,1085.12,3522.65,1642.92,1678.00,1480.00
1980,1085.36,3524.67,2401.97,1611.00,1404.00
1982,1085.59,3526.68,1718.48,1560.00,1364.00
1984,1085.83,3528.70,1179.98,1632.00,1444.00
1986,1086.07,3530.71,799.17,1535.00,1359.00
1988,1086.31,3532.72,2456.85,1632.00,1425.00
1990,1086.54,3534.73,1842.13,1530.00,1349.00
1992,1086.78,3536.74,4693.94,1678.00,1456.00
1994,1087.02,3538.74,1234.31,1585.00,1420.00
1996,1087.25,3540.74,3588.29,1537.00,1321.00
1998,1087.49,3542.74,1679.75,1575.00,1397.00
2000,1087.73,3544.74,1571.33,1558.00,1387.00
2002,1087.96,3546.74,1996.30,1562.00,1391.00
2004,1088.20,3548.73,3853.55,1657.00,1461.00
2006,1088.43,3550.72,1685.65,1581.00,1421.00
2008,1088.67,3552.71,2822.11,1551.00,1366.00
2010,1088.90,3554.69,1367.09,1471.00,1315.00
2012,1089.14,3556.68,1011.66,1551.00,1406.00
2014,1089.38,3558.66,3033.16,1505.00,1332.00
2016,1089.61,3560.64,2251.00,1499.00,1345.00
2018,1089.84,3562.62,2856.72,1573.00,1408.00
2020,1090.08,3564.59,1327.79,1478.00,1330.00
2022,1090.31,3566.56,824.40,1473.00,1330.00
2024,1090.55,3568.53,0.00,1469.00,1355.00
2026,1090.78,3570.50,2168.74,1446.00,1287.00
2028,1091.02,3572.47,2190.89,1442.00,1298.00
2030,1091.25,3574.43,2987.91,1469.00,1319.00
2032,1091.48,3576.39,0.00,1349.00,1243.00
2034,1091.72,3578.35,296.55,1355.00,1239.00
2036,1091.95,3580.31,630.41,1459.00,1334.00
2038,1092.18,3582.26,25.33,1361.00,1251.00
2040,1092.42,3584.22,417.86,1349.00,1233.00
2042,1092.65,3586.17,3007.69,1401.00,1258.00
2044,1092.88,3588.12,1607.76,1376.00,1249.00
2046,1093.11,3590.06,943.07,1372.00,1239.00
2047,1093.23,3591.03,80.97,1319.00,1207.00