File: enlighten/plugins/Raman/MatchingLibrary/785X/tetrahydrofuran.csv
ENLIGHTEN Version,4.1.22
Measurement ID,20250220-200823-789974-WP-01977
Serial Number,WP-01977
Model,WP-785X-F13-R-ILC
Detector,S16011-1106
Label,tetrahydrofuran
Declared Match,
Declared Score,0
Scan Averaging,6
Boxcar,0
Technique,Raman
Baseline Correction Algo,AirPLS
ROI Pixel Start,47
ROI Pixel End,2047
ROI Start Line,0
ROI Stop Line,63
CCD C4,1.38617e-12
Slit Width,25
Cropped,True
Interpolated,False
Wavenumber Correction,-0.100481
Raman Intensity Corrected,True
Deconvolved,True
Region,
High Gain Mode,False
Laser Power mW,
Electrical Dark Correction,False
Battery %,
Device ID,<DeviceID USB:0x24aa:0x1000:0:1>
FW Version,10.0.0.10
FPGA Version,035-001
BLE Version,
Prefix,enlighten
Suffix,
Preset,
Auto-Raman,True
Session Count,0
Plugin Name,
Integration Time,168
Timestamp,2025-02-20 20:08:23.79
Note,
Temperature,0
CCD C0,793.274
CCD C1,0.153259
CCD C2,1.40788e-05
CCD C3,-1.132e-08
CCD Offset,0
CCD Gain,1.9
CCD Offset Odd,0
CCD Gain Odd,1.9
Laser Wavelength,785.032
Laser Enable,False
Laser Power %,0
Laser Temperature,0
Pixel Count,2048

Pixel,Wavelength,Wavenumber,Processed,Raw,Dark
0,793.27,132.25,NA,888.33,879.17
2,793.58,137.12,NA,892.33,885.33
4,793.89,141.99,NA,890.33,883.83
6,794.19,146.86,NA,890.00,883.83
8,794.50,151.72,NA,896.50,890.00
10,794.81,156.58,NA,895.67,887.83
12,795.12,161.44,NA,890.67,881.83
14,795.42,166.30,NA,886.33,882.67
16,795.73,171.16,NA,890.17,880.33
18,796.04,176.01,NA,899.17,891.17
20,796.35,180.86,NA,897.83,889.83
22,796.65,185.71,NA,909.17,896.33
24,796.96,190.56,NA,898.00,892.50
26,797.27,195.41,NA,907.33,894.83
28,797.58,200.25,NA,904.17,891.67
30,797.88,205.09,NA,894.50,889.17
32,798.19,209.93,NA,900.83,889.33
34,798.50,214.77,NA,896.83,888.83
36,798.81,219.60,NA,902.33,885.17
38,799.12,224.43,NA,911.33,889.33
40,799.43,229.27,NA,965.67,894.50
42,799.74,234.09,NA,1130.00,892.00
44,800.04,238.92,NA,1398.83,899.17
46,800.35,243.75,NA,1530.50,886.00
48,800.66,248.57,93.96,1579.00,891.67
50,800.97,253.39,154.28,1636.67,896.83
52,801.28,258.21,167.59,1679.17,904.67
54,801.59,263.02,210.87,1714.50,893.17
56,801.90,267.83,249.85,1764.50,898.17
58,802.21,272.65,322.10,1839.50,892.50
60,802.52,277.46,367.76,1896.33,894.67
62,802.83,282.26,406.10,1940.67,899.33
64,803.14,287.07,431.31,1961.17,898.50
66,803.45,291.87,414.65,1935.67,899.50
68,803.76,296.67,346.36,1850.00,899.33
70,804.07,301.47,297.96,1776.50,893.83
72,804.38,306.26,242.72,1694.67,891.67
74,804.69,311.06,197.78,1625.17,894.33
76,805.00,315.85,145.25,1552.83,893.00
78,805.31,320.64,114.23,1502.00,893.50
80,805.62,325.42,99.54,1473.00,899.17
82,805.93,330.21,78.75,1436.50,897.33
84,806.24,334.99,64.64,1401.17,889.00
86,806.55,339.77,55.10,1383.50,895.17
88,806.86,344.55,45.42,1362.67,897.33
90,807.17,349.32,38.45,1334.33,888.33
92,807.48,354.10,27.93,1317.17,894.17
94,807.80,358.87,9.12,1289.83,900.83
96,808.11,363.63,6.40,1274.67,894.00
98,808.42,368.40,0.00,1234.00,891.17
100,808.73,373.16,0.00,1236.50,888.33
102,809.04,377.93,0.00,1223.50,886.00
104,809.35,382.68,0.00,1221.67,889.67
106,809.66,387.44,0.00,1214.17,896.33
108,809.98,392.19,0.00,1211.33,884.33
110,810.29,396.95,0.00,1220.17,897.67
112,810.60,401.70,16.59,1247.67,887.67
114,810.91,406.44,48.03,1288.33,892.67
116,811.22,411.19,99.16,1340.50,892.67
118,811.54,415.93,99.82,1346.50,893.67
120,811.85,420.67,65.14,1302.33,889.00
122,812.16,425.41,37.76,1264.17,889.67
124,812.47,430.14,23.84,1245.50,894.50
126,812.79,434.87,20.73,1229.83,887.67
128,813.10,439.60,8.64,1209.67,885.67
130,813.41,444.33,13.33,1214.50,887.67
132,813.72,449.06,13.21,1211.17,886.00
134,814.04,453.78,15.20,1223.17,895.17
136,814.35,458.50,31.18,1232.83,886.17
138,814.66,463.22,45.18,1241.67,883.33
140,814.98,467.93,36.60,1234.17,886.33
142,815.29,472.65,17.76,1216.33,892.67
144,815.60,477.36,20.71,1214.17,889.33
146,815.92,482.06,23.72,1213.83,888.33
148,816.23,486.77,25.06,1219.50,893.83
150,816.54,491.47,35.17,1231.50,898.67
152,816.86,496.17,31.67,1213.83,887.67
154,817.17,500.87,13.39,1193.33,890.83
156,817.48,505.57,3.47,1172.50,889.50
158,817.80,510.26,0.00,1156.33,886.00
160,818.11,514.95,2.04,1169.00,891.00
162,818.42,519.64,0.00,1159.67,890.33
164,818.74,524.32,0.00,1154.83,890.50
166,819.05,529.00,0.00,1157.50,893.00
168,819.37,533.68,0.00,1154.67,891.17
170,819.68,538.36,0.44,1164.33,892.33
172,819.99,543.04,0.46,1171.33,896.67
174,820.31,547.71,5.65,1178.50,889.50
176,820.62,552.38,28.62,1206.67,885.67
178,820.94,557.05,36.06,1230.33,890.67
180,821.25,561.71,61.40,1264.83,880.50
182,821.57,566.37,99.60,1327.67,882.67
184,821.88,571.03,142.69,1404.00,888.00
186,822.20,575.69,194.15,1488.33,890.17
188,822.51,580.34,238.17,1552.33,887.33
190,822.83,584.99,283.96,1632.50,893.00
192,823.14,589.64,302.99,1666.67,891.50
194,823.46,594.29,312.60,1675.17,885.00
196,823.77,598.93,295.88,1664.83,889.50
198,824.09,603.57,279.40,1636.17,882.83
200,824.40,608.21,279.10,1640.17,887.00
202,824.72,612.85,251.02,1613.00,896.33
204,825.03,617.48,250.62,1602.67,890.50
206,825.35,622.11,236.64,1592.83,895.67
208,825.66,626.74,237.56,1595.17,893.67
210,825.98,631.36,232.47,1583.33,884.67
212,826.29,635.99,250.79,1614.50,887.33
214,826.61,640.61,263.19,1642.33,890.83
216,826.92,645.22,287.53,1675.67,884.17
218,827.24,649.84,301.50,1699.50,882.00
220,827.56,654.45,323.26,1738.50,890.83
222,827.87,659.06,324.89,1744.17,891.67
224,828.19,663.67,299.03,1707.00,889.67
226,828.50,668.27,266.05,1662.67,900.17
228,828.82,672.87,213.65,1583.50,895.17
230,829.13,677.47,173.19,1510.00,885.83
232,829.45,682.06,128.26,1445.00,890.17
234,829.77,686.66,89.85,1400.00,905.00
236,830.08,691.25,71.92,1352.00,890.17
238,830.40,695.83,44.04,1312.00,890.83
240,830.72,700.42,28.89,1282.50,886.33
242,831.03,705.00,14.29,1251.33,877.33
244,831.35,709.58,5.11,1251.17,886.33
246,831.66,714.15,0.88,1236.50,879.17
248,831.98,718.73,0.00,1238.83,888.33
250,832.30,723.30,0.00,1226.33,886.33
252,832.61,727.87,0.00,1243.17,893.67
254,832.93,732.43,0.00,1232.83,877.33
256,833.25,736.99,0.00,1265.00,892.83
258,833.56,741.55,0.00,1289.50,886.00
260,833.88,746.11,8.50,1337.67,888.00
262,834.20,750.66,37.80,1383.00,887.00
264,834.51,755.22,36.69,1405.83,890.50
266,834.83,759.76,19.13,1406.17,888.17
268,835.15,764.31,10.91,1417.17,891.67
270,835.47,768.85,29.45,1443.67,880.50
272,835.78,773.39,30.48,1459.83,884.00
274,836.10,777.93,0.90,1453.50,886.83
276,836.42,782.46,0.00,1448.67,887.67
278,836.73,787.00,0.00,1448.33,885.83
280,837.05,791.52,0.00,1471.33,881.67
282,837.37,796.05,0.00,1507.33,890.67
284,837.69,800.57,0.00,1565.00,883.33
286,838.00,805.09,0.00,1613.00,886.33
288,838.32,809.61,0.00,1670.17,885.67
290,838.64,814.13,3.14,1748.83,892.50
292,838.95,818.64,22.52,1824.00,887.17
294,839.27,823.15,69.33,1937.83,888.33
296,839.59,827.65,133.46,2059.17,888.67
298,839.91,832.15,191.56,2181.00,886.33
300,840.22,836.65,274.57,2350.17,896.50
302,840.54,841.15,364.46,2504.50,884.33
304,840.86,845.65,457.62,2691.83,891.00
306,841.18,850.14,574.73,2899.50,889.83
308,841.50,854.63,682.35,3098.67,904.67
310,841.81,859.11,732.81,3209.50,888.33
312,842.13,863.60,804.91,3374.17,888.33
314,842.45,868.07,902.60,3571.50,883.50
316,842.77,872.55,1081.66,3931.17,891.00
318,843.08,877.03,1408.87,4543.67,900.50
320,843.40,881.50,1907.55,5430.17,879.67
322,843.72,885.97,2625.40,6760.83,892.17
324,844.04,890.43,3743.62,8799.83,885.33
326,844.36,894.89,5494.92,11968.17,887.50
328,844.67,899.35,8090.11,16842.50,893.50
330,844.99,903.81,12037.81,24209.83,882.17
332,845.31,908.26,19320.61,35056.33,895.17
334,845.63,912.71,27297.58,43918.17,889.33
336,845.95,917.16,23920.20,39829.00,895.50
338,846.27,921.61,12933.18,26046.67,960.67
340,846.58,926.05,6452.50,15168.67,892.17
342,846.90,930.49,3773.89,9557.33,890.17
344,847.22,934.92,2451.27,6778.33,892.17
346,847.54,939.36,1674.84,5292.67,878.83
348,847.86,943.79,1216.05,4464.67,886.00
350,848.18,948.21,910.61,3917.17,885.83
352,848.49,952.64,708.33,3562.50,884.00
354,848.81,957.06,521.98,3243.83,880.50
356,849.13,961.48,367.68,3014.50,896.67
358,849.45,965.89,235.30,2802.83,891.67
360,849.77,970.31,128.01,2632.33,887.83
362,850.09,974.71,43.97,2524.50,891.17
364,850.40,979.12,10.47,2461.33,895.17
366,850.72,983.52,15.77,2466.50,899.67
368,851.04,987.92,47.49,2485.50,879.83
370,851.36,992.32,81.77,2540.67,884.00
372,851.68,996.72,162.04,2667.17,889.00
374,852.00,1001.11,268.86,2838.83,886.00
376,852.32,1005.50,427.44,3111.67,882.33
378,852.63,1009.88,687.82,3586.83,899.00
380,852.95,1014.26,1071.45,4258.67,892.83
382,853.27,1018.64,1684.88,5300.17,892.83
384,853.59,1023.02,2538.21,6586.83,887.50
386,853.91,1027.39,3404.24,7705.83,888.00
388,854.23,1031.76,3537.60,7832.17,886.00
390,854.55,1036.13,2741.00,6792.50,886.33
392,854.87,1040.49,1754.82,5348.67,887.00
394,855.18,1044.86,1080.44,4207.17,892.67
396,855.50,1049.21,734.43,3536.83,891.17
398,855.82,1053.57,584.02,3223.33,892.67
400,856.14,1057.92,538.63,3114.50,887.33
402,856.46,1062.27,603.36,3174.50,887.00
404,856.78,1066.62,722.37,3281.83,881.17
406,857.10,1070.96,735.17,3258.67,881.83
408,857.42,1075.30,596.31,3061.83,895.17
410,857.74,1079.64,376.55,2712.00,882.00
412,858.06,1083.97,207.44,2414.67,883.00
414,858.37,1088.30,93.35,2199.17,882.17
416,858.69,1092.63,11.39,2077.67,880.00
418,859.01,1096.95,0.00,1981.83,880.17
420,859.33,1101.27,0.00,1955.83,882.83
422,859.65,1105.59,0.00,1924.83,886.67
424,859.97,1109.91,0.00,1919.33,881.83
426,860.29,1114.22,0.00,1965.67,884.50
428,860.61,1118.53,20.75,2049.33,881.33
430,860.93,1122.84,91.86,2130.67,885.67
432,861.25,1127.14,92.61,2176.67,891.67
434,861.56,1131.44,127.62,2243.67,879.33
436,861.88,1135.74,184.18,2337.00,885.67
438,862.20,1140.03,230.63,2417.83,886.00
440,862.52,1144.32,239.32,2458.17,886.00
442,862.84,1148.61,259.95,2512.83,890.33
444,863.16,1152.89,299.29,2591.50,886.50
446,863.48,1157.17,342.86,2682.17,886.83
448,863.80,1161.45,437.10,2847.50,887.33
450,864.12,1165.73,564.15,3063.00,891.50
452,864.44,1170.00,685.37,3257.17,883.83
454,864.76,1174.27,807.08,3451.67,884.00
456,865.07,1178.53,875.44,3567.83,876.83
458,865.39,1182.80,875.28,3601.33,890.17
460,865.71,1187.06,883.72,3627.33,886.83
462,866.03,1191.31,831.44,3586.33,891.17
464,866.35,1195.57,855.68,3631.50,886.67
466,866.67,1199.82,906.93,3734.50,889.00
468,866.99,1204.06,1026.60,3964.00,884.67
470,867.31,1208.31,1224.84,4328.00,890.33
472,867.63,1212.55,1571.14,4888.33,887.67
474,867.95,1216.79,2061.46,5628.50,876.33
476,868.27,1221.02,2465.96,6264.00,884.67
478,868.58,1225.25,2810.67,6795.17,882.67
480,868.90,1229.48,2893.85,6986.00,892.83
482,869.22,1233.71,2879.97,7007.17,890.33
484,869.54,1237.93,2813.99,6915.67,895.50
486,869.86,1242.15,2720.90,6748.00,888.67
488,870.18,1246.36,2548.44,6458.50,879.67
490,870.50,1250.58,2323.91,6114.50,887.33
492,870.82,1254.79,2027.51,5666.17,894.17
494,871.14,1258.99,1760.16,5242.67,888.50
496,871.46,1263.20,1525.76,4865.67,891.17
498,871.78,1267.40,1304.33,4517.17,888.33
500,872.10,1271.59,1151.33,4269.17,882.17
502,872.41,1275.79,1035.22,4077.50,884.67
504,872.73,1279.98,955.41,3956.83,889.17
506,873.05,1284.17,899.63,3868.67,889.00
508,873.37,1288.35,872.72,3795.33,873.17
510,873.69,1292.53,801.32,3681.83,877.00
512,874.01,1296.71,679.82,3515.67,881.17
514,874.33,1300.88,563.52,3348.33,877.00
516,874.65,1305.06,485.06,3239.00,888.50
518,874.97,1309.22,422.94,3133.33,879.50
520,875.29,1313.39,375.83,3075.50,887.33
522,875.60,1317.55,345.09,3039.00,886.00
524,875.92,1321.71,342.80,3043.00,885.00
526,876.24,1325.87,380.19,3118.00,891.67
528,876.56,1330.02,453.96,3211.17,883.00
530,876.88,1334.17,508.07,3274.17,891.00
532,877.20,1338.32,468.46,3221.33,878.17
534,877.52,1342.46,355.56,3083.00,878.67
536,877.84,1346.60,260.22,2964.00,887.33
538,878.16,1350.73,193.39,2882.00,885.50
540,878.47,1354.87,192.94,2903.50,884.67
542,878.79,1359.00,273.36,3030.00,885.67
544,879.11,1363.13,477.19,3250.17,887.67
546,879.43,1367.25,519.99,3282.50,884.83
548,879.75,1371.37,287.90,3059.17,881.83
550,880.07,1375.49,151.96,2876.83,886.00
552,880.39,1379.60,109.77,2784.50,883.67
554,880.71,1383.71,86.01,2741.33,886.00
556,881.03,1387.82,59.26,2710.83,881.50
558,881.34,1391.93,26.83,2663.67,875.33
560,881.66,1396.03,51.01,2699.00,882.17
562,881.98,1400.13,74.60,2723.33,888.67
564,882.30,1404.22,127.25,2787.17,882.50
566,882.62,1408.31,179.69,2857.33,883.17
568,882.94,1412.40,254.38,2970.83,890.00
570,883.26,1416.49,344.73,3098.50,883.67
572,883.57,1420.57,474.95,3294.83,891.00
574,883.89,1424.65,638.95,3534.67,878.33
576,884.21,1428.73,838.10,3873.33,888.00
578,884.53,1432.80,1149.97,4380.83,891.67
580,884.85,1436.87,1639.15,5134.67,881.17
582,885.17,1440.93,2357.93,6167.17,875.33
584,885.49,1445.00,3217.90,7266.33,884.00
586,885.80,1449.06,3858.40,8047.83,879.50
588,886.12,1453.11,3703.65,8000.00,895.83
590,886.44,1457.17,3344.11,7615.83,889.50
592,886.76,1461.22,3147.31,7293.83,882.67
594,887.08,1465.26,3053.06,7113.00,892.33
596,887.40,1469.31,3024.59,7031.17,877.17
598,887.71,1473.35,3039.60,7021.33,882.67
600,888.03,1477.38,3124.78,7108.00,882.83
602,888.35,1481.42,3161.94,7169.00,889.33
604,888.67,1485.45,3249.59,7227.17,891.33
606,888.99,1489.48,3292.87,7126.17,881.00
608,889.31,1493.50,2973.45,6663.00,893.33
610,889.62,1497.52,2348.41,5844.33,890.17
612,889.94,1501.54,1769.67,5015.50,878.00
614,890.26,1505.56,1318.52,4321.00,884.83
616,890.58,1509.57,1016.35,3828.67,884.67
618,890.90,1513.57,780.38,3444.17,882.17
620,891.21,1517.58,642.60,3207.33,883.83
622,891.53,1521.58,525.59,3011.83,887.00
624,891.85,1525.58,438.79,2866.50,884.67
626,892.17,1529.57,363.39,2735.50,885.67
628,892.49,1533.57,303.75,2625.50,882.67
630,892.80,1537.56,239.11,2518.67,882.17
632,893.12,1541.54,208.66,2453.17,878.50
634,893.44,1545.52,161.98,2383.00,887.67
636,893.76,1549.50,120.97,2303.83,879.00
638,894.07,1553.48,95.37,2257.50,885.33
640,894.39,1557.45,73.19,2201.33,878.50
642,894.71,1561.42,47.26,2161.00,886.33
644,895.03,1565.39,29.41,2113.33,877.50
646,895.34,1569.35,12.86,2084.33,890.33
648,895.66,1573.31,4.49,2048.33,881.50
650,895.98,1577.26,0.27,2017.83,882.00
652,896.30,1581.22,0.00,1983.83,875.83
654,896.61,1585.17,6.20,1976.67,880.00
656,896.93,1589.11,0.00,1945.00,890.17
658,897.25,1593.06,0.00,1916.83,879.17
660,897.57,1597.00,0.00,1901.17,881.83
662,897.88,1600.93,0.00,1893.17,886.33
664,898.20,1604.87,0.00,1878.83,882.67
666,898.52,1608.80,0.00,1869.00,881.67
668,898.84,1612.72,0.00,1853.33,878.00
670,899.15,1616.65,0.00,1851.67,889.67
672,899.47,1620.57,8.29,1849.67,876.50
674,899.79,1624.49,4.83,1839.67,883.00
676,900.10,1628.40,6.38,1831.50,879.17
678,900.42,1632.31,3.30,1823.17,884.67
680,900.74,1636.22,3.50,1809.00,877.33
682,901.05,1640.12,0.00,1805.33,890.67
684,901.37,1644.02,2.92,1797.83,882.33
686,901.69,1647.92,11.11,1799.00,884.33
688,902.00,1651.82,16.43,1792.83,881.33
690,902.32,1655.71,3.57,1771.00,879.50
692,902.64,1659.60,17.99,1783.50,878.17
694,902.95,1663.48,25.51,1783.33,885.17
696,903.27,1667.36,26.54,1773.83,882.50
698,903.59,1671.24,11.69,1761.67,890.33
700,903.90,1675.11,12.05,1748.83,884.00
702,904.22,1678.99,19.32,1735.83,875.17
704,904.54,1682.85,11.69,1735.17,892.17
706,904.85,1686.72,16.79,1721.33,878.83
708,905.17,1690.58,9.50,1708.17,880.83
710,905.49,1694.44,27.63,1714.50,873.17
712,905.80,1698.29,30.28,1713.17,877.33
714,906.12,1702.15,25.44,1710.17,884.83
716,906.43,1706.00,30.78,1709.17,885.00
718,906.75,1709.84,43.34,1719.17,884.33
720,907.07,1713.68,55.64,1738.17,885.50
722,907.38,1717.52,89.96,1787.83,886.00
724,907.70,1721.36,201.26,1902.50,884.50
726,908.01,1725.19,303.79,1977.33,883.83
728,908.33,1729.02,282.82,1955.17,886.67
730,908.65,1732.85,160.37,1838.00,884.67
732,908.96,1736.67,80.05,1735.33,888.33
734,909.28,1740.49,50.59,1672.17,882.67
736,909.59,1744.30,37.09,1640.17,883.67
738,909.91,1748.12,35.18,1624.67,883.00
740,910.22,1751.93,23.79,1606.83,886.00
742,910.54,1755.73,19.92,1604.50,900.33
744,910.85,1759.54,21.75,1585.00,885.17
746,911.17,1763.34,0.07,1546.33,881.33
748,911.49,1767.13,0.00,1538.17,884.33
750,911.80,1770.93,12.93,1540.83,875.83
752,912.12,1774.72,0.00,1530.17,890.00
754,912.43,1778.50,8.93,1523.17,874.50
756,912.75,1782.29,3.10,1512.67,876.83
758,913.06,1786.07,12.67,1518.50,879.00
760,913.38,1789.84,11.50,1509.67,880.00
762,913.69,1793.62,16.86,1518.00,889.67
764,914.01,1797.39,15.09,1505.00,883.33
766,914.32,1801.15,8.14,1492.50,880.83
768,914.64,1804.92,8.23,1482.83,880.33
770,914.95,1808.68,9.26,1481.50,886.67
772,915.26,1812.44,8.56,1473.83,884.67
774,915.58,1816.19,19.54,1469.33,874.67
776,915.89,1819.94,14.68,1466.50,881.83
778,916.21,1823.69,15.12,1467.17,887.00
780,916.52,1827.43,19.65,1471.17,892.83
782,916.84,1831.17,18.35,1447.67,877.33
784,917.15,1834.91,19.53,1443.83,877.67
786,917.47,1838.64,16.64,1441.67,883.33
788,917.78,1842.38,20.98,1433.67,878.83
790,918.09,1846.10,18.60,1427.50,880.83
792,918.41,1849.83,14.56,1422.50,884.67
794,918.72,1853.55,16.23,1409.33,874.17
796,919.04,1857.27,13.31,1409.00,883.17
798,919.35,1860.98,23.76,1407.50,879.17
800,919.66,1864.69,14.61,1394.83,881.33
802,919.98,1868.40,11.16,1391.33,886.67
804,920.29,1872.11,24.01,1391.83,880.00
806,920.60,1875.81,19.34,1387.67,885.50
808,920.92,1879.51,19.65,1376.33,878.17
810,921.23,1883.20,27.78,1387.00,885.67
812,921.55,1886.90,15.41,1359.83,879.17
814,921.86,1890.58,24.21,1370.67,887.00
816,922.17,1894.27,27.69,1365.67,882.50
818,922.49,1897.95,16.93,1350.17,883.33
820,922.80,1901.63,28.11,1357.17,882.67
822,923.11,1905.31,31.40,1350.67,879.33
824,923.42,1908.98,23.35,1340.50,884.17
826,923.74,1912.65,32.53,1348.33,886.67
828,924.05,1916.31,29.65,1335.83,882.50
830,924.36,1919.98,28.01,1322.00,877.00
832,924.68,1923.64,31.80,1322.83,878.50
834,924.99,1927.29,27.44,1315.83,881.00
836,925.30,1930.94,38.07,1311.67,873.00
838,925.61,1934.59,31.12,1310.83,884.33
840,925.93,1938.24,31.58,1302.50,880.33
842,926.24,1941.88,21.17,1290.33,884.00
844,926.55,1945.52,17.58,1276.83,879.00
846,926.86,1949.16,26.26,1278.83,881.00
848,927.18,1952.79,25.22,1269.00,876.83
850,927.49,1956.42,10.69,1255.17,880.67
852,927.80,1960.05,11.99,1258.17,888.00
854,928.11,1963.67,19.95,1255.17,882.83
856,928.42,1967.29,24.44,1255.67,883.67
858,928.74,1970.91,25.82,1247.00,880.33
860,929.05,1974.52,29.95,1248.50,881.00
862,929.36,1978.13,26.25,1240.50,880.83
864,929.67,1981.74,20.64,1230.33,884.67
866,929.98,1985.35,30.77,1231.17,877.17
868,930.29,1988.95,10.09,1211.33,883.67
870,930.61,1992.54,21.24,1210.33,878.50
872,930.92,1996.14,15.01,1198.50,879.83
874,931.23,1999.73,11.33,1197.67,884.00
876,931.54,2003.32,4.98,1190.17,887.67
878,931.85,2006.90,6.86,1179.50,882.00
880,932.16,2010.48,4.99,1168.67,878.00
882,932.47,2014.06,0.77,1158.67,877.50
884,932.78,2017.63,10.32,1164.67,880.33
886,933.09,2021.21,4.74,1162.00,885.00
888,933.41,2024.77,0.00,1152.33,889.00
890,933.72,2028.34,1.84,1151.83,888.00
892,934.03,2031.90,4.26,1143.67,882.67
894,934.34,2035.46,2.80,1137.83,882.50
896,934.65,2039.01,1.01,1133.17,883.83
898,934.96,2042.57,2.92,1132.00,885.33
900,935.27,2046.11,0.87,1131.17,890.67
902,935.58,2049.66,0.00,1111.67,877.50
904,935.89,2053.20,4.75,1122.17,885.00
906,936.20,2056.74,5.25,1112.00,879.50
908,936.51,2060.28,6.66,1111.83,882.67
910,936.82,2063.81,5.84,1105.50,882.00
912,937.13,2067.34,7.78,1110.00,885.00
914,937.44,2070.86,0.00,1091.67,882.67
916,937.75,2074.39,8.28,1093.00,876.17
918,938.06,2077.91,0.00,1078.67,880.33
920,938.37,2081.42,8.25,1086.67,879.50
922,938.68,2084.94,0.33,1072.33,875.00
924,938.99,2088.45,0.89,1076.33,880.17
926,939.30,2091.95,0.00,1073.50,884.67
928,939.60,2095.46,0.00,1067.50,884.00
930,939.91,2098.96,4.81,1079.00,888.00
932,940.22,2102.45,1.34,1071.50,885.83
934,940.53,2105.95,13.71,1074.33,878.50
936,940.84,2109.44,13.60,1073.17,880.83
938,941.15,2112.92,22.80,1085.50,883.00
940,941.46,2116.41,32.50,1088.83,879.17
942,941.77,2119.89,45.84,1102.17,885.00
944,942.07,2123.37,57.28,1106.00,881.50
946,942.38,2126.84,73.93,1120.33,881.17
948,942.69,2130.31,74.39,1119.83,885.00
950,943.00,2133.78,72.92,1111.50,880.00
952,943.31,2137.24,45.68,1093.00,884.33
954,943.62,2140.70,35.79,1082.67,887.67
956,943.92,2144.16,39.40,1071.50,878.33
958,944.23,2147.62,22.48,1063.67,883.17
960,944.54,2151.07,10.91,1055.00,887.83
962,944.85,2154.52,11.63,1052.17,890.33
964,945.16,2157.96,6.48,1044.17,888.00
966,945.46,2161.40,2.23,1037.83,887.00
968,945.77,2164.84,0.50,1019.83,874.17
970,946.08,2168.28,0.00,1023.17,882.67
972,946.39,2171.71,1.07,1023.33,879.50
974,946.69,2175.14,0.00,1019.67,879.83
976,947.00,2178.57,0.16,1021.67,881.50
978,947.31,2181.99,9.05,1022.67,876.17
980,947.61,2185.41,0.00,1019.33,882.33
982,947.92,2188.82,1.98,1025.00,885.17
984,948.23,2192.24,0.00,1016.17,879.50
986,948.53,2195.65,2.71,1019.50,880.17
988,948.84,2199.05,0.26,1008.67,872.17
990,949.15,2202.46,2.97,1023.00,884.33
992,949.45,2205.86,10.63,1023.33,880.67
994,949.76,2209.25,4.28,1017.00,877.67
996,950.07,2212.65,3.60,1018.17,880.17
998,950.37,2216.04,10.01,1019.33,875.67
1000,950.68,2219.43,0.00,1011.50,880.33
1002,950.98,2222.81,1.91,1021.67,883.50
1004,951.29,2226.19,12.67,1025.17,880.17
1006,951.60,2229.57,3.84,1015.67,876.33
1008,951.90,2232.94,7.10,1020.50,877.83
1010,952.21,2236.32,15.99,1027.17,879.00
1012,952.51,2239.68,9.47,1026.83,881.67
1014,952.82,2243.05,4.06,1017.33,876.00
1016,953.12,2246.41,8.28,1032.33,886.33
1018,953.43,2249.77,5.34,1036.67,893.67
1020,953.73,2253.12,15.37,1033.33,882.83
1022,954.04,2256.48,0.00,1015.00,876.33
1024,954.34,2259.83,0.14,1027.83,887.67
1026,954.65,2263.17,8.11,1027.83,880.33
1028,954.95,2266.51,17.29,1034.00,880.50
1030,955.26,2269.85,12.33,1041.50,889.50
1032,955.56,2273.19,11.14,1042.00,890.50
1034,955.87,2276.52,10.82,1039.33,887.00
1036,956.17,2279.85,15.77,1047.00,890.00
1038,956.48,2283.18,23.96,1034.33,872.67
1040,956.78,2286.50,19.71,1038.00,879.33
1042,957.08,2289.82,22.70,1037.33,874.67
1044,957.39,2293.14,20.07,1045.83,884.00
1046,957.69,2296.45,17.65,1040.67,879.83
1048,957.99,2299.76,19.83,1047.83,886.00
1050,958.30,2303.07,24.44,1047.67,883.17
1052,958.60,2306.38,17.52,1041.50,880.50
1054,958.91,2309.68,13.85,1040.83,882.00
1056,959.21,2312.98,24.84,1043.17,877.50
1058,959.51,2316.27,18.92,1044.83,882.67
1060,959.82,2319.56,16.34,1049.83,886.67
1062,960.12,2322.85,24.80,1044.83,876.00
1064,960.42,2326.14,38.54,1051.50,875.83
1066,960.72,2329.42,24.92,1049.33,880.83
1068,961.03,2332.70,24.94,1052.50,883.33
1070,961.33,2335.97,23.35,1048.33,881.83
1072,961.63,2339.25,19.45,1046.17,881.17
1074,961.93,2342.52,16.64,1044.00,880.17
1076,962.24,2345.78,14.10,1042.50,879.83
1078,962.54,2349.05,5.39,1039.33,883.83
1080,962.84,2352.31,22.07,1044.17,878.17
1082,963.14,2355.56,8.07,1037.67,879.50
1084,963.45,2358.82,2.89,1037.33,882.50
1086,963.75,2362.07,10.63,1046.17,886.33
1088,964.05,2365.32,17.34,1053.50,890.50
1090,964.35,2368.56,10.20,1044.67,883.50
1092,964.65,2371.80,6.38,1039.50,880.83
1094,964.95,2375.04,9.92,1041.83,882.00
1096,965.25,2378.27,12.12,1042.00,879.83
1098,965.56,2381.51,6.02,1044.33,884.67
1100,965.86,2384.73,14.76,1049.00,882.33
1102,966.16,2387.96,29.65,1051.83,877.50
1104,966.46,2391.18,19.81,1059.83,891.33
1106,966.76,2394.40,38.67,1063.33,881.33
1108,967.06,2397.62,39.35,1069.33,888.00
1110,967.36,2400.83,37.04,1057.67,878.00
1112,967.66,2404.04,37.18,1070.00,890.00
1114,967.96,2407.25,33.49,1056.67,878.00
1116,968.26,2410.45,33.69,1063.00,882.67
1118,968.56,2413.65,29.78,1057.67,879.17
1120,968.86,2416.85,33.76,1072.33,892.00
1122,969.16,2420.04,46.31,1066.67,880.50
1124,969.46,2423.23,49.26,1067.33,878.67
1126,969.76,2426.42,41.32,1067.17,882.00
1128,970.06,2429.60,38.74,1059.50,877.17
1130,970.36,2432.79,50.74,1069.33,881.00
1132,970.66,2435.96,38.76,1062.33,881.00
1134,970.96,2439.14,39.43,1063.17,880.17
1136,971.26,2442.31,28.68,1063.33,886.00
1138,971.56,2445.48,26.41,1055.67,879.83
1140,971.86,2448.65,26.19,1051.67,879.17
1142,972.16,2451.81,30.73,1055.33,880.00
1144,972.45,2454.97,12.17,1050.50,884.83
1146,972.75,2458.13,14.54,1046.83,879.83
1148,973.05,2461.28,3.67,1041.00,881.50
1150,973.35,2464.43,7.00,1046.83,885.00
1152,973.65,2467.58,12.57,1044.00,880.00
1154,973.95,2470.72,1.97,1040.83,882.33
1156,974.24,2473.86,1.10,1038.17,879.83
1158,974.54,2477.00,5.32,1040.00,878.50
1160,974.84,2480.13,6.65,1045.17,885.00
1162,975.14,2483.27,16.17,1046.00,881.33
1164,975.43,2486.40,2.59,1036.67,875.50
1166,975.73,2489.52,0.00,1034.83,877.83
1168,976.03,2492.64,0.35,1039.17,880.67
1170,976.33,2495.76,7.74,1044.17,882.00
1172,976.62,2498.88,3.61,1038.67,878.00
1174,976.92,2501.99,0.77,1044.67,883.67
1176,977.22,2505.10,0.00,1042.83,883.33
1178,977.51,2508.21,0.00,1042.50,883.67
1180,977.81,2511.31,0.00,1046.17,882.33
1182,978.11,2514.41,6.79,1051.00,878.67
1184,978.40,2517.51,13.92,1058.00,883.00
1186,978.70,2520.61,0.00,1055.67,886.67
1188,979.00,2523.70,12.26,1063.67,882.83
1190,979.29,2526.79,1.76,1060.83,881.67
1192,979.59,2529.87,0.04,1062.33,883.33
1194,979.88,2532.95,5.85,1066.00,878.50
1196,980.18,2536.03,17.74,1079.67,886.00
1198,980.48,2539.11,9.13,1081.50,889.33
1200,980.77,2542.18,29.63,1087.67,881.33
1202,981.07,2545.25,29.51,1092.00,886.17
1204,981.36,2548.32,38.22,1099.67,885.33
1206,981.66,2551.38,53.18,1113.00,887.00
1208,981.95,2554.44,75.26,1121.33,882.17
1210,982.25,2557.50,108.93,1149.17,890.17
1212,982.54,2560.56,115.93,1158.33,892.33
1214,982.84,2563.61,158.68,1185.00,890.83
1216,983.13,2566.66,211.33,1212.33,886.67
1218,983.43,2569.70,267.57,1243.17,889.00
1220,983.72,2572.74,373.44,1290.83,889.00
1222,984.01,2575.78,452.54,1314.17,884.00
1224,984.31,2578.82,483.97,1323.83,879.50
1226,984.60,2581.85,379.52,1294.50,887.33
1228,984.90,2584.88,283.10,1250.67,881.33
1230,985.19,2587.91,243.28,1235.17,884.50
1232,985.48,2590.93,218.45,1224.17,889.00
1234,985.78,2593.96,195.41,1206.83,885.67
1236,986.07,2596.97,189.58,1203.17,886.00
1238,986.36,2599.99,194.24,1209.00,890.17
1240,986.66,2603.00,185.98,1203.50,888.00
1242,986.95,2606.01,171.97,1200.00,889.33
1244,987.24,2609.01,146.22,1190.17,890.67
1246,987.54,2612.02,134.46,1170.67,876.00
1248,987.83,2615.02,143.48,1190.50,890.50
1250,988.12,2618.01,127.40,1183.17,890.83
1252,988.41,2621.01,135.38,1187.33,890.67
1254,988.71,2624.00,139.72,1182.33,884.00
1256,989.00,2626.99,135.93,1183.83,887.33
1258,989.29,2629.97,132.09,1186.50,888.00
1260,989.58,2632.95,115.67,1187.17,891.33
1262,989.87,2635.93,119.70,1192.67,893.33
1264,990.16,2638.91,170.79,1204.17,881.83
1266,990.46,2641.88,217.53,1234.00,888.33
1268,990.75,2644.85,254.94,1266.00,896.33
1270,991.04,2647.81,335.61,1304.17,893.00
1272,991.33,2650.78,502.32,1373.67,888.67
1274,991.62,2653.74,695.16,1441.33,881.83
1276,991.91,2656.70,863.55,1500.83,883.50
1278,992.20,2659.65,970.00,1540.17,887.67
1280,992.49,2662.60,946.04,1528.83,883.83
1282,992.78,2665.55,806.86,1492.67,893.50
1284,993.07,2668.50,639.29,1427.50,890.67
1286,993.36,2671.44,517.73,1378.67,891.67
1288,993.65,2674.38,379.57,1319.00,894.67
1290,993.94,2677.31,341.78,1294.00,889.00
1292,994.23,2680.25,274.89,1262.83,889.00
1294,994.52,2683.18,214.43,1239.17,892.17
1296,994.81,2686.10,211.96,1230.17,884.67
1298,995.10,2689.03,154.00,1210.17,889.33
1300,995.39,2691.95,141.40,1203.67,885.50
1302,995.68,2694.87,128.24,1206.17,891.83
1304,995.97,2697.78,149.36,1215.50,891.00
1306,996.26,2700.70,204.65,1232.50,883.00
1308,996.55,2703.61,283.91,1276.00,887.67
1310,996.84,2706.51,370.11,1331.67,896.00
1312,997.13,2709.42,586.04,1430.50,891.33
1314,997.41,2712.32,937.15,1560.50,892.00
1316,997.70,2715.21,1516.31,1723.50,888.33
1318,997.99,2718.11,2024.98,1844.50,886.00
1320,998.28,2721.00,1888.64,1805.33,884.00
1322,998.57,2723.89,1372.85,1683.50,890.83
1324,998.86,2726.77,871.51,1523.33,887.00
1326,999.14,2729.66,556.82,1395.33,885.17
1328,999.43,2732.54,421.64,1324.67,879.67
1330,999.72,2735.41,283.48,1268.17,886.67
1332,1000.01,2738.29,174.77,1230.50,896.00
1334,1000.29,2741.16,135.13,1203.67,888.00
1336,1000.58,2744.03,76.80,1171.83,880.83
1338,1000.87,2746.89,32.95,1174.33,895.83
1340,1001.15,2749.75,6.22,1156.67,885.33
1342,1001.44,2752.61,0.18,1153.50,890.33
1344,1001.73,2755.47,0.00,1141.33,889.67
1346,1002.01,2758.32,0.00,1146.00,888.67
1348,1002.30,2761.17,0.00,1145.00,891.17
1350,1002.59,2764.02,0.00,1163.00,894.17
1352,1002.87,2766.86,0.00,1166.67,885.17
1354,1003.16,2769.70,0.00,1164.33,883.00
1356,1003.44,2772.54,0.00,1168.83,881.00
1358,1003.73,2775.38,0.00,1186.50,884.67
1360,1004.01,2778.21,0.00,1203.50,885.00
1362,1004.30,2781.04,0.00,1221.17,888.00
1364,1004.58,2783.87,0.00,1232.67,885.00
1366,1004.87,2786.69,0.00,1260.17,879.83
1368,1005.15,2789.51,0.00,1295.17,892.50
1370,1005.44,2792.33,0.00,1319.50,892.67
1372,1005.72,2795.14,0.28,1363.33,891.00
1374,1006.01,2797.95,13.36,1412.67,895.50
1376,1006.29,2800.76,80.60,1454.50,886.67
1378,1006.58,2803.57,205.30,1515.67,897.83
1380,1006.86,2806.37,451.14,1578.50,886.67
1382,1007.14,2809.17,741.06,1659.17,884.67
1384,1007.43,2811.97,1000.45,1740.00,883.50
1386,1007.71,2814.77,1229.79,1819.00,880.00
1388,1008.00,2817.56,1481.02,1911.67,886.33
1390,1008.28,2820.35,1953.21,2061.33,890.17
1392,1008.56,2823.13,2392.46,2184.83,885.00
1394,1008.85,2825.91,2955.05,2366.00,891.67
1396,1009.13,2828.69,3452.46,2519.83,889.17
1398,1009.41,2831.47,4217.04,2757.50,892.50
1400,1009.69,2834.24,5037.06,2995.00,882.83
1402,1009.98,2837.02,6077.78,3312.00,890.00
1404,1010.26,2839.78,7348.81,3683.50,893.83
1406,1010.54,2842.55,8696.45,4052.33,882.67
1408,1010.82,2845.31,10337.51,4523.00,893.00
1410,1011.11,2848.07,12030.88,4988.00,894.83
1412,1011.39,2850.83,13861.13,5471.67,896.67
1414,1011.67,2853.58,15801.93,5962.00,892.00
1416,1011.95,2856.33,17355.88,6352.17,889.17
1418,1012.23,2859.08,18606.06,6685.67,886.33
1420,1012.51,2861.83,19548.96,6954.00,887.67
1422,1012.80,2864.57,20443.19,7218.00,900.50
1424,1013.08,2867.31,21351.62,7440.50,896.83
1426,1013.36,2870.04,22747.92,7730.00,895.00
1428,1013.64,2872.78,24271.12,7969.33,891.50
1430,1013.92,2875.51,25259.26,8065.00,897.67
1432,1014.20,2878.24,24843.68,7888.17,892.50
1434,1014.48,2880.96,22523.51,7343.33,890.17
1436,1014.76,2883.68,19733.22,6699.17,885.33
1438,1015.04,2886.40,17088.25,6046.67,886.33
1440,1015.32,2889.12,15204.70,5543.17,895.67
1442,1015.60,2891.83,13924.39,5148.50,886.00
1444,1015.88,2894.54,12996.83,4870.00,894.00
1446,1016.16,2897.25,12422.14,4680.33,880.00
1448,1016.44,2899.96,12155.26,4601.17,893.83
1450,1016.72,2902.66,12378.73,4615.17,888.67
1452,1017.00,2905.36,12895.90,4701.33,899.50
1454,1017.28,2908.06,13747.08,4834.17,885.00
1456,1017.55,2910.75,14441.64,4956.67,893.67
1458,1017.83,2913.44,15036.40,5064.17,887.67
1460,1018.11,2916.13,15290.71,5117.50,889.00
1462,1018.39,2918.81,15575.44,5191.00,891.83
1464,1018.67,2921.49,15703.84,5222.00,887.00
1466,1018.95,2924.17,16309.32,5362.83,890.67
1468,1019.22,2926.85,17330.41,5581.33,894.83
1470,1019.50,2929.52,18543.62,5812.17,888.67
1472,1019.78,2932.20,20364.83,6156.00,884.33
1474,1020.06,2934.86,22197.26,6479.83,891.17
1476,1020.33,2937.53,24068.74,6808.67,899.00
1478,1020.61,2940.19,24962.37,6937.83,889.33
1480,1020.89,2942.85,25246.05,7002.33,894.33
1482,1021.17,2945.51,24788.24,6928.17,890.00
1484,1021.44,2948.16,24416.37,6870.00,893.17
1486,1021.72,2950.81,24482.98,6855.83,888.67
1488,1022.00,2953.46,25032.68,6917.00,897.83
1490,1022.27,2956.11,25954.96,7018.17,888.67
1492,1022.55,2958.75,26721.00,7089.67,894.83
1494,1022.82,2961.39,27564.98,7168.33,890.00
1496,1023.10,2964.03,27665.54,7131.83,895.33
1498,1023.38,2966.66,27053.85,6981.33,889.00
1500,1023.65,2969.29,25956.88,6768.17,895.17
1502,1023.93,2971.92,24632.38,6495.67,900.00
1504,1024.20,2974.55,23889.68,6302.00,893.67
1506,1024.48,2977.17,23200.32,6106.83,892.83
1508,1024.75,2979.79,22572.77,5915.33,884.83
1510,1025.03,2982.41,21855.72,5716.83,891.83
1512,1025.30,2985.02,21227.55,5517.17,881.67
1514,1025.58,2987.63,20220.56,5283.33,893.50
1516,1025.85,2990.24,18697.11,4961.00,885.17
1518,1026.13,2992.85,16885.74,4618.00,894.67
1520,1026.40,2995.45,15033.21,4253.17,892.67
1522,1026.68,2998.05,13294.50,3904.50,887.50
1524,1026.95,3000.65,11468.53,3552.83,896.33
1526,1027.22,3003.25,10005.52,3254.33,888.33
1528,1027.50,3005.84,8555.48,2969.67,886.00
1530,1027.77,3008.43,7194.13,2713.67,892.50
1532,1028.04,3011.02,6255.52,2526.83,891.50
1534,1028.32,3013.60,5252.24,2324.33,891.00
1536,1028.59,3016.18,4646.59,2193.33,886.33
1538,1028.86,3018.76,3864.99,2039.00,880.17
1540,1029.14,3021.34,3251.07,1933.83,887.33
1542,1029.41,3023.91,2702.39,1830.83,887.67
1544,1029.68,3026.48,2291.15,1746.00,883.00
1546,1029.95,3029.05,1842.24,1669.00,891.17
1548,1030.22,3031.61,1478.22,1593.83,886.33
1550,1030.50,3034.17,1239.13,1542.67,882.67
1552,1030.77,3036.73,886.97,1484.33,883.33
1554,1031.04,3039.29,548.35,1441.33,891.50
1556,1031.31,3041.84,276.98,1388.17,884.00
1558,1031.58,3044.39,133.07,1364.00,897.83
1560,1031.85,3046.94,77.45,1332.50,894.50
1562,1032.13,3049.49,15.22,1292.00,888.33
1564,1032.40,3052.03,9.40,1274.00,890.83
1566,1032.67,3054.57,0.33,1244.67,888.50
1568,1032.94,3057.11,0.00,1224.00,897.67
1570,1033.21,3059.64,0.00,1187.83,880.67
1572,1033.48,3062.18,0.00,1181.83,892.17
1574,1033.75,3064.70,0.00,1162.83,892.00
1576,1034.02,3067.23,0.00,1146.83,893.67
1578,1034.29,3069.75,0.00,1125.17,882.00
1580,1034.56,3072.28,0.00,1118.33,892.33
1582,1034.83,3074.79,0.00,1096.17,881.67
1584,1035.10,3077.31,0.00,1093.50,889.00
1586,1035.37,3079.82,0.00,1077.83,885.33
1588,1035.64,3082.33,0.00,1078.17,895.50
1590,1035.91,3084.84,0.00,1063.83,893.67
1592,1036.17,3087.34,6.39,1051.50,884.00
1594,1036.44,3089.85,0.00,1048.67,896.50
1596,1036.71,3092.35,0.00,1033.67,889.00
1598,1036.98,3094.84,0.00,1026.33,886.00
1600,1037.25,3097.34,10.83,1023.00,882.83
1602,1037.52,3099.83,0.00,1015.67,891.17
1604,1037.78,3102.32,0.00,1013.00,889.33
1606,1038.05,3104.80,14.45,1016.83,893.00
1608,1038.32,3107.29,16.45,1008.17,888.33
1610,1038.59,3109.77,15.69,1000.00,885.00
1612,1038.85,3112.24,54.23,999.33,885.00
1614,1039.12,3114.72,78.20,1000.67,886.00
1616,1039.39,3117.19,8.01,984.00,881.67
1618,1039.66,3119.66,0.00,987.50,897.50
1620,1039.92,3122.13,14.86,986.83,890.50
1622,1040.19,3124.59,0.00,982.50,891.17
1624,1040.45,3127.05,20.06,976.00,883.67
1626,1040.72,3129.51,48.07,980.83,888.17
1628,1040.99,3131.97,46.95,979.83,889.67
1630,1041.25,3134.42,0.00,977.50,896.00
1632,1041.52,3136.87,20.36,968.17,883.00
1634,1041.78,3139.32,0.00,968.17,891.83
1636,1042.05,3141.77,0.00,985.83,909.17
1638,1042.32,3144.21,12.36,966.83,888.33
1640,1042.58,3146.65,31.58,976.00,896.50
1642,1042.85,3149.09,45.52,970.00,890.17
1644,1043.11,3151.52,60.30,970.00,890.50
1646,1043.38,3153.96,0.00,962.50,893.67
1648,1043.64,3156.39,65.20,966.67,888.33
1650,1043.90,3158.81,25.68,962.33,888.00
1652,1044.17,3161.24,23.84,967.50,893.17
1654,1044.43,3163.66,0.00,954.33,885.00
1656,1044.70,3166.08,28.93,974.00,900.50
1658,1044.96,3168.49,48.46,963.67,890.17
1660,1045.22,3170.91,143.83,965.83,884.67
1662,1045.49,3173.32,31.57,959.33,888.50
1664,1045.75,3175.73,56.15,966.33,893.17
1666,1046.01,3178.13,126.62,965.50,887.33
1668,1046.28,3180.54,76.25,965.50,893.50
1670,1046.54,3182.94,72.03,967.00,895.50
1672,1046.80,3185.34,69.75,965.67,894.33
1674,1047.07,3187.73,114.62,963.33,887.67
1676,1047.33,3190.12,144.82,965.33,887.67
1678,1047.59,3192.51,92.48,965.83,894.83
1680,1047.85,3194.90,198.64,974.67,895.33
1682,1048.11,3197.29,190.09,970.67,893.33
1684,1048.38,3199.67,235.09,968.17,887.33
1686,1048.64,3202.05,197.73,974.33,896.83
1688,1048.90,3204.43,219.76,968.50,889.00
1690,1049.16,3206.80,133.21,961.67,890.83
1692,1049.42,3209.17,269.87,976.17,894.00
1694,1049.68,3211.54,229.48,965.00,887.67
1696,1049.94,3213.91,276.92,968.17,887.67
1698,1050.20,3216.27,280.76,973.50,894.33
1700,1050.46,3218.63,342.88,981.00,898.33
1702,1050.72,3220.99,307.11,971.00,890.50
1704,1050.98,3223.35,221.28,969.50,895.00
1706,1051.24,3225.70,311.58,971.67,889.67
1708,1051.50,3228.05,368.31,969.83,886.33
1710,1051.76,3230.40,309.03,974.00,897.67
1712,1052.02,3232.75,422.20,974.33,890.17
1714,1052.28,3235.09,376.49,975.83,895.00
1716,1052.54,3237.43,378.35,972.33,891.00
1718,1052.80,3239.77,374.80,969.50,888.67
1720,1053.06,3242.11,386.94,969.17,888.33
1722,1053.32,3244.44,413.89,966.50,885.00
1724,1053.58,3246.77,444.78,981.50,899.33
1726,1053.84,3249.10,585.02,977.00,886.00
1728,1054.10,3251.42,519.32,979.17,893.83
1730,1054.35,3253.75,519.00,975.00,890.33
1732,1054.61,3256.07,450.77,976.50,897.00
1734,1054.87,3258.39,467.46,971.00,890.00
1736,1055.13,3260.70,473.03,967.83,886.67
1738,1055.38,3263.01,563.52,974.00,888.17
1740,1055.64,3265.32,502.53,974.00,895.00
1742,1055.90,3267.63,592.19,967.83,884.17
1744,1056.16,3269.94,639.47,982.83,895.33
1746,1056.41,3272.24,421.10,975.00,901.83
1748,1056.67,3274.54,557.41,977.50,895.83
1750,1056.93,3276.84,556.35,970.50,891.00
1752,1057.18,3279.13,560.87,969.33,890.83
1754,1057.44,3281.42,516.77,962.67,887.50
1756,1057.69,3283.71,588.32,969.67,890.17
1758,1057.95,3286.00,603.15,979.33,899.50
1760,1058.21,3288.28,563.97,964.67,888.67
1762,1058.46,3290.57,541.29,967.33,894.17
1764,1058.72,3292.85,638.04,971.17,892.83
1766,1058.97,3295.12,575.95,960.50,886.00
1768,1059.23,3297.40,626.35,963.00,885.67
1770,1059.48,3299.67,557.12,965.33,892.83
1772,1059.74,3301.94,602.46,960.33,885.50
1774,1059.99,3304.21,414.78,960.67,898.00
1776,1060.25,3306.47,584.32,969.33,898.17
1778,1060.50,3308.73,628.22,960.33,888.33
1780,1060.76,3310.99,650.42,963.17,890.33
1782,1061.01,3313.25,596.60,962.33,892.33
1784,1061.26,3315.50,513.39,957.83,893.17
1786,1061.52,3317.76,657.67,960.67,889.33
1788,1061.77,3320.01,560.30,960.67,895.50
1790,1062.02,3322.25,568.98,954.00,888.33
1792,1062.28,3324.50,595.19,957.50,890.33
1794,1062.53,3326.74,506.39,946.67,885.17
1796,1062.78,3328.98,613.10,954.17,888.50
1798,1063.04,3331.22,704.95,955.17,886.33
1800,1063.29,3333.45,596.88,952.00,889.17
1802,1063.54,3335.68,595.37,952.83,890.17
1804,1063.79,3337.91,404.58,948.67,896.17
1806,1064.05,3340.14,606.38,963.33,901.17
1808,1064.30,3342.36,412.63,942.00,889.67
1810,1064.55,3344.59,504.19,949.83,893.00
1812,1064.80,3346.81,423.28,943.00,891.17
1814,1065.05,3349.02,616.07,944.00,883.67
1816,1065.30,3351.24,462.30,949.67,897.33
1818,1065.55,3353.45,556.56,944.17,888.17
1820,1065.81,3355.66,660.69,957.67,898.33
1822,1066.06,3357.87,496.71,940.17,889.17
1824,1066.31,3360.07,624.51,941.00,884.67
1826,1066.56,3362.27,679.50,949.83,891.17
1828,1066.81,3364.47,439.92,932.50,884.67
1830,1067.06,3366.67,561.31,945.00,891.67
1832,1067.31,3368.87,434.30,938.00,890.33
1834,1067.56,3371.06,458.02,931.00,882.33
1836,1067.81,3373.25,521.77,934.50,883.67
1838,1068.06,3375.44,557.11,936.50,886.00
1840,1068.31,3377.62,600.84,936.33,886.33
1842,1068.56,3379.81,721.11,932.00,878.17
1844,1068.80,3381.99,584.76,947.33,897.50
1846,1069.05,3384.16,456.77,937.83,892.33
1848,1069.30,3386.34,477.91,933.50,887.67
1850,1069.55,3388.51,492.57,931.83,886.67
1852,1069.80,3390.68,518.26,939.50,894.17
1854,1070.05,3392.85,489.40,945.17,901.50
1856,1070.30,3395.02,476.26,931.50,888.83
1858,1070.54,3397.18,513.59,931.50,888.00
1860,1070.79,3399.34,655.91,937.33,889.33
1862,1071.04,3401.50,537.36,932.33,889.33
1864,1071.29,3403.66,580.85,925.33,880.67
1866,1071.53,3405.81,461.84,933.83,893.33
1868,1071.78,3407.96,542.66,930.50,887.33
1870,1072.03,3410.11,531.90,935.33,893.67
1872,1072.27,3412.26,624.90,932.67,888.33
1874,1072.52,3414.40,482.35,927.17,887.67
1876,1072.77,3416.54,504.47,928.50,888.00
1878,1073.01,3418.68,379.85,930.83,895.67
1880,1073.26,3420.82,607.84,921.00,879.33
1882,1073.51,3422.96,528.87,930.67,892.67
1884,1073.75,3425.09,614.61,931.00,890.33
1886,1074.00,3427.22,519.67,922.17,884.33
1888,1074.24,3429.35,461.82,932.17,896.33
1890,1074.49,3431.47,443.30,923.00,888.17
1892,1074.73,3433.59,413.86,920.17,886.67
1894,1074.98,3435.71,538.68,936.33,898.83
1896,1075.22,3437.83,474.41,926.33,891.00
1898,1075.47,3439.95,302.28,924.67,895.50
1900,1075.71,3442.06,504.41,927.17,892.50
1902,1075.96,3444.17,614.42,927.00,890.00
1904,1076.20,3446.28,560.30,907.33,872.17
1906,1076.44,3448.38,563.85,932.83,897.17
1908,1076.69,3450.49,517.82,927.50,892.67
1910,1076.93,3452.59,269.38,921.33,894.50
1912,1077.17,3454.69,382.33,916.00,886.33
1914,1077.42,3456.79,518.95,922.33,890.17
1916,1077.66,3458.88,733.21,917.83,881.33
1918,1077.90,3460.97,687.50,918.33,883.00
1920,1078.15,3463.06,608.78,927.33,892.83
1922,1078.39,3465.15,468.20,923.33,892.17
1924,1078.63,3467.23,473.67,910.00,879.33
1926,1078.87,3469.32,524.57,924.33,893.50
1928,1079.12,3471.40,463.26,915.83,887.17
1930,1079.36,3473.47,540.14,930.17,899.33
1932,1079.60,3475.55,294.63,909.33,885.33
1934,1079.84,3477.62,729.76,922.67,887.83
1936,1080.08,3479.69,300.70,911.50,888.17
1938,1080.33,3481.76,295.07,908.67,885.67
1940,1080.57,3483.83,520.44,918.50,889.67
1942,1080.81,3485.89,370.57,915.00,889.67
1944,1081.05,3487.95,122.77,915.00,896.50
1946,1081.29,3490.01,507.46,918.33,890.00
1948,1081.53,3492.07,516.54,911.83,884.33
1950,1081.77,3494.12,552.27,914.00,886.00
1952,1082.01,3496.18,438.33,920.00,895.00
1954,1082.25,3498.23,349.56,908.00,885.83
1956,1082.49,3500.27,918.04,920.33,887.00
1958,1082.73,3502.32,418.45,907.33,884.33
1960,1082.97,3504.36,548.12,917.67,890.33
1962,1083.21,3506.40,471.25,909.50,883.00
1964,1083.45,3508.44,375.98,902.67,879.50
1966,1083.69,3510.48,616.95,923.00,896.00
1968,1083.93,3512.51,484.92,913.33,890.00
1970,1084.16,3514.54,313.38,908.83,888.67
1972,1084.40,3516.57,263.37,907.33,887.83
1974,1084.64,3518.60,294.40,908.33,888.33
1976,1084.88,3520.62,368.23,915.00,894.33
1978,1085.12,3522.65,559.33,919.50,896.00
1980,1085.36,3524.67,479.45,910.50,888.83
1982,1085.59,3526.68,647.10,910.67,885.33
1984,1085.83,3528.70,422.64,914.17,893.00
1986,1086.07,3530.71,557.17,909.67,885.67
1988,1086.31,3532.72,631.45,914.33,889.67
1990,1086.54,3534.73,324.77,903.50,885.67
1992,1086.78,3536.74,656.49,918.17,894.33
1994,1087.02,3538.74,397.28,910.33,890.50
1996,1087.25,3540.74,226.53,901.17,884.33
1998,1087.49,3542.74,297.94,907.83,889.50
2000,1087.73,3544.74,314.75,906.00,888.67
2002,1087.96,3546.74,400.51,906.67,889.00
2004,1088.20,3548.73,390.03,912.00,894.67
2006,1088.43,3550.72,214.52,904.67,890.00
2008,1088.67,3552.71,407.23,903.00,884.33
2010,1088.90,3554.69,150.80,897.50,884.17
2012,1089.14,3556.68,171.98,903.83,890.33
2014,1089.38,3558.66,280.20,900.33,885.00
2016,1089.61,3560.64,284.11,901.33,886.33
2018,1089.84,3562.62,450.84,906.00,889.00
2020,1090.08,3564.59,563.16,901.50,883.33
2022,1090.31,3566.56,346.43,898.83,883.50
2024,1090.55,3568.53,264.50,899.50,884.67
2026,1090.78,3570.50,218.26,893.00,878.67
2028,1091.02,3572.47,238.61,893.83,879.67
2030,1091.25,3574.43,300.63,895.83,881.83
2032,1091.48,3576.39,675.82,891.33,873.17
2034,1091.72,3578.35,374.79,891.83,877.67
2036,1091.95,3580.31,279.25,897.17,883.50
2038,1092.18,3582.26,192.16,890.00,877.50
2040,1092.42,3584.22,107.47,887.00,876.67
2042,1092.65,3586.17,400.03,891.00,877.50
2044,1092.88,3588.12,195.51,887.67,876.17
2046,1093.11,3590.06,0.00,884.00,875.83
2047,1093.23,3591.03,0.00,883.33,875.33