File: enlighten/plugins/Raman/MatchingLibrary/785X/urea.csv
ENLIGHTEN Version,4.1.22
Measurement ID,20250220-201549-814854-WP-01977
Serial Number,WP-01977
Model,WP-785X-F13-R-ILC
Detector,S16011-1106
Label,urea
Declared Match,
Declared Score,0
Scan Averaging,2
Boxcar,0
Technique,Raman
Baseline Correction Algo,AirPLS
ROI Pixel Start,47
ROI Pixel End,2047
ROI Start Line,0
ROI Stop Line,63
CCD C4,1.38617e-12
Slit Width,25
Cropped,True
Interpolated,False
Wavenumber Correction,-0.100481
Raman Intensity Corrected,True
Deconvolved,True
Region,
High Gain Mode,False
Laser Power mW,
Electrical Dark Correction,False
Battery %,
Device ID,<DeviceID USB:0x24aa:0x1000:0:1>
FW Version,10.0.0.10
FPGA Version,035-001
BLE Version,
Prefix,enlighten
Suffix,
Preset,
Auto-Raman,True
Session Count,0
Plugin Name,
Integration Time,591
Timestamp,2025-02-20 20:15:49.8149
Note,
Temperature,0
CCD C0,793.274
CCD C1,0.153259
CCD C2,1.40788e-05
CCD C3,-1.132e-08
CCD Offset,0
CCD Gain,1.9
CCD Offset Odd,0
CCD Gain Odd,1.9
Laser Wavelength,785.032
Laser Enable,False
Laser Power %,0
Laser Temperature,0
Pixel Count,2048

Pixel,Wavelength,Wavenumber,Processed,Raw,Dark
0,793.27,132.25,NA,995.50,975.00
2,793.58,137.12,NA,1015.00,994.00
4,793.89,141.99,NA,1003.00,984.00
6,794.19,146.86,NA,1005.00,991.00
8,794.50,151.72,NA,1020.00,1012.00
10,794.81,156.58,NA,1023.00,1000.00
12,795.12,161.44,NA,1001.50,984.00
14,795.42,166.30,NA,1004.00,984.50
16,795.73,171.16,NA,994.50,983.00
18,796.04,176.01,NA,1020.00,1008.50
20,796.35,180.86,NA,1016.00,1007.00
22,796.65,185.71,NA,1055.00,1040.00
24,796.96,190.56,NA,1023.00,1001.50
26,797.27,195.41,NA,1046.00,1026.50
28,797.58,200.25,NA,1049.50,1026.50
30,797.88,205.09,NA,1017.00,997.00
32,798.19,209.93,NA,1021.00,997.00
34,798.50,214.77,NA,1022.00,1005.50
36,798.81,219.60,NA,1025.50,1001.00
38,799.12,224.43,NA,1046.50,1002.00
40,799.43,229.27,NA,1145.00,1025.50
42,799.74,234.09,NA,1466.00,1017.00
44,800.04,238.92,NA,1890.50,1051.50
46,800.35,243.75,NA,2027.00,1021.00
48,800.66,248.57,146.14,2012.00,1038.00
50,800.97,253.39,61.30,1962.50,1046.50
52,801.28,258.21,21.47,1907.50,1049.50
54,801.59,263.02,18.31,1881.00,1039.00
56,801.90,267.83,1.02,1830.50,1025.50
58,802.21,272.65,8.58,1844.00,1035.00
60,802.52,277.46,0.00,1819.00,1040.00
62,802.83,282.26,6.34,1844.00,1063.00
64,803.14,287.07,0.00,1810.00,1050.00
66,803.45,291.87,0.00,1798.50,1052.00
68,803.76,296.67,0.00,1799.50,1059.00
70,804.07,301.47,0.00,1768.00,1030.50
72,804.38,306.26,4.54,1784.00,1025.50
74,804.69,311.06,0.00,1772.00,1031.00
76,805.00,315.85,0.00,1779.00,1026.50
78,805.31,320.64,0.00,1795.50,1040.50
80,805.62,325.42,3.45,1817.50,1045.50
82,805.93,330.21,0.00,1807.00,1046.50
84,806.24,334.99,13.20,1797.50,1004.50
86,806.55,339.77,13.40,1834.50,1038.00
88,806.86,344.55,30.27,1876.50,1049.50
90,807.17,349.32,46.50,1882.50,1021.00
92,807.48,354.10,88.02,1938.00,1023.00
94,807.80,358.87,126.92,2017.50,1042.50
96,808.11,363.63,148.84,2055.50,1037.00
98,808.42,368.40,212.30,2120.00,1023.00
100,808.73,373.16,228.20,2158.00,1027.50
102,809.04,377.93,241.09,2160.00,1005.50
104,809.35,382.68,257.95,2199.50,1019.50
106,809.66,387.44,218.22,2174.00,1034.00
108,809.98,392.19,220.61,2144.50,1004.50
110,810.29,396.95,165.98,2118.00,1040.00
112,810.60,401.70,138.16,2058.50,1014.00
114,810.91,406.44,102.85,2031.00,1031.50
116,811.22,411.19,111.58,2046.00,1036.00
118,811.54,415.93,105.32,2040.50,1030.50
120,811.85,420.67,91.01,2008.00,1016.00
122,812.16,425.41,88.50,2017.50,1023.50
124,812.47,430.14,89.97,2029.00,1030.50
126,812.79,434.87,76.85,2003.50,1016.50
128,813.10,439.60,66.71,1976.50,998.00
130,813.41,444.33,70.19,2012.00,1024.50
132,813.72,449.06,65.73,1998.50,1013.00
134,814.04,453.78,70.31,2010.00,1017.00
136,814.35,458.50,74.29,2017.50,1007.50
138,814.66,463.22,83.27,2026.50,1001.00
140,814.98,467.93,93.21,2047.00,1007.50
142,815.29,472.65,78.48,2041.00,1014.50
144,815.60,477.36,80.29,2060.00,1023.00
146,815.92,482.06,66.55,2028.00,1000.00
148,816.23,486.77,99.27,2092.50,1028.50
150,816.54,491.47,96.51,2116.50,1049.50
152,816.86,496.17,63.57,2033.50,1006.00
154,817.17,500.87,39.99,2017.00,1019.00
156,817.48,505.57,16.95,1981.50,1007.50
158,817.80,510.26,35.59,2000.00,1006.00
160,818.11,514.95,22.75,2008.00,1030.50
162,818.42,519.64,49.80,2055.50,1031.50
164,818.74,524.32,124.20,2157.00,1029.50
166,819.05,529.00,213.18,2332.50,1036.00
168,819.37,533.68,409.99,2775.00,1022.00
170,819.68,538.36,1029.04,3991.00,1026.50
172,819.99,543.04,2927.86,6480.00,1043.00
174,820.31,547.71,4824.99,8290.00,1025.00
176,820.62,552.38,3297.83,6962.00,1015.00
178,820.94,557.05,1592.74,4839.50,1012.50
180,821.25,561.71,1131.03,3876.50,988.50
182,821.57,566.37,1156.28,3694.00,993.00
184,821.88,571.03,1152.26,3593.50,1012.50
186,822.20,575.69,936.34,3296.00,1017.00
188,822.51,580.34,556.22,2780.00,1015.50
190,822.83,584.99,316.09,2398.00,1012.00
192,823.14,589.64,190.81,2167.50,1018.00
194,823.46,594.29,137.39,2039.50,1003.00
196,823.77,598.93,68.99,1944.50,1023.50
198,824.09,603.57,56.74,1882.00,996.00
200,824.40,608.21,36.17,1857.50,1019.00
202,824.72,612.85,12.22,1822.00,1022.00
204,825.03,617.48,1.24,1788.00,1018.00
206,825.35,622.11,2.17,1790.50,1034.00
208,825.66,626.74,0.00,1746.00,1033.00
210,825.98,631.36,0.00,1727.00,1007.50
212,826.29,635.99,0.00,1729.00,1023.00
214,826.61,640.61,8.68,1731.50,1021.00
216,826.92,645.22,0.17,1689.50,1003.00
218,827.24,649.84,4.24,1674.00,990.50
220,827.56,654.45,0.00,1682.50,1030.00
222,827.87,659.06,16.11,1688.00,1012.00
224,828.19,663.67,0.00,1654.00,1017.00
226,828.50,668.27,11.69,1709.50,1063.50
228,828.82,672.87,11.20,1666.50,1018.00
230,829.13,677.47,0.00,1617.00,1009.50
232,829.45,682.06,0.00,1622.50,1023.00
234,829.77,686.66,0.00,1737.50,1138.00
236,830.08,691.25,6.98,1634.00,1018.50
238,830.40,695.83,37.55,1638.50,1003.00
240,830.72,700.42,21.67,1622.00,1002.00
242,831.03,705.00,30.37,1604.00,976.00
244,831.35,709.58,37.90,1639.50,1013.50
246,831.66,714.15,33.32,1598.00,982.00
248,831.98,718.73,27.56,1612.00,1009.50
250,832.30,723.30,24.76,1590.50,999.00
252,832.61,727.87,22.94,1599.00,1024.00
254,832.93,732.43,3.00,1518.00,973.50
256,833.25,736.99,0.00,1549.50,1028.00
258,833.56,741.55,12.06,1546.50,1006.50
260,833.88,746.11,3.24,1535.00,1007.50
262,834.20,750.66,0.00,1518.50,1006.50
264,834.51,755.22,0.00,1530.50,1020.00
266,834.83,759.76,0.00,1523.00,1020.00
268,835.15,764.31,9.55,1545.00,1016.00
270,835.47,768.85,28.70,1534.50,994.00
272,835.78,773.39,11.45,1519.00,997.00
274,836.10,777.93,23.30,1546.50,1009.50
276,836.42,782.46,38.45,1550.50,1003.50
278,836.73,787.00,34.15,1540.00,994.00
280,837.05,791.52,21.54,1525.50,995.00
282,837.37,796.05,24.21,1548.50,1024.00
284,837.69,800.57,30.89,1515.50,990.50
286,838.00,805.09,7.95,1498.00,1004.00
288,838.32,809.61,6.82,1495.50,1009.00
290,838.64,814.13,6.31,1501.00,1021.50
292,838.95,818.64,3.29,1482.00,1006.50
294,839.27,823.15,5.00,1466.00,991.50
296,839.59,827.65,3.07,1479.00,1013.00
298,839.91,832.15,5.62,1461.00,992.00
300,840.22,836.65,8.05,1508.00,1038.50
302,840.54,841.15,0.00,1450.00,999.00
304,840.86,845.65,8.53,1496.50,1029.50
306,841.18,850.14,0.00,1457.50,1020.50
308,841.50,854.63,0.00,1506.00,1062.50
310,841.81,859.11,0.00,1436.50,1008.50
312,842.13,863.60,6.22,1465.00,1006.50
314,842.45,868.07,0.10,1443.50,995.50
316,842.77,872.55,6.77,1467.00,1008.50
318,843.08,877.03,0.00,1487.00,1043.50
320,843.40,881.50,0.00,1419.50,981.00
322,843.72,885.97,0.00,1464.00,1024.50
324,844.04,890.43,0.00,1449.00,1003.50
326,844.36,894.89,0.00,1452.00,997.00
328,844.67,899.35,0.00,1480.00,1026.50
330,844.99,903.81,0.00,1453.00,985.00
332,845.31,908.26,0.00,1490.00,1024.00
334,845.63,912.71,0.00,1501.50,1010.50
336,845.95,917.16,0.00,1528.00,1019.00
338,846.27,921.61,0.00,1880.00,1341.00
340,846.58,926.05,0.00,1540.00,1000.50
342,846.90,930.49,0.00,1583.00,1008.50
344,847.22,934.92,0.00,1607.50,999.00
346,847.54,939.36,4.42,1616.50,966.00
348,847.86,943.79,3.83,1665.50,987.00
350,848.18,948.21,0.00,1690.00,995.50
352,848.49,952.64,3.79,1741.00,1005.00
354,848.81,957.06,0.00,1731.50,973.50
356,849.13,961.48,0.00,1816.50,1034.00
358,849.45,965.89,1.43,1853.00,1019.50
360,849.77,970.31,26.99,1913.00,999.00
362,850.09,974.71,85.42,2031.50,1003.00
364,850.40,979.12,184.17,2260.50,1020.00
366,850.72,983.52,339.03,2590.00,1037.00
368,851.04,987.92,642.76,3155.50,988.50
370,851.36,992.32,1216.46,4416.00,993.00
372,851.68,996.72,2388.64,7301.00,1015.00
374,852.00,1001.11,5542.82,14255.00,999.00
376,852.32,1005.50,14765.06,28345.00,990.50
378,852.63,1009.88,28332.77,42551.00,1046.50
380,852.95,1014.26,23450.27,37972.50,1024.50
382,853.27,1018.64,9071.72,20767.50,1036.00
384,853.59,1023.02,3490.83,10211.00,1000.00
386,853.91,1027.39,1892.37,5997.50,988.50
388,854.23,1031.76,1257.44,4416.50,998.00
390,854.55,1036.13,840.68,3626.50,997.00
392,854.87,1040.49,596.56,3211.50,989.50
394,855.18,1044.86,481.22,3024.00,1010.00
396,855.50,1049.21,416.33,2898.50,1007.00
398,855.82,1053.57,331.86,2797.50,1024.00
400,856.14,1057.92,307.04,2733.00,990.50
402,856.46,1062.27,268.99,2697.50,1008.50
404,856.78,1066.62,223.33,2614.00,977.50
406,857.10,1070.96,201.48,2593.50,987.50
408,857.42,1075.30,168.19,2584.00,1018.00
410,857.74,1079.64,114.87,2496.00,997.00
412,858.06,1083.97,64.53,2427.50,992.50
414,858.37,1088.30,27.84,2365.00,986.00
416,858.69,1092.63,2.45,2294.50,973.50
418,859.01,1096.95,0.00,2271.50,979.00
420,859.33,1101.27,0.00,2272.50,1001.00
422,859.65,1105.59,0.00,2254.00,991.00
424,859.97,1109.91,0.00,2226.00,981.00
426,860.29,1114.22,7.19,2251.00,989.00
428,860.61,1118.53,0.00,2209.00,984.00
430,860.93,1122.84,0.00,2226.50,998.00
432,861.25,1127.14,19.77,2286.00,1018.00
434,861.56,1131.44,20.36,2251.00,985.00
436,861.88,1135.74,42.36,2306.50,993.50
438,862.20,1140.03,71.24,2345.50,994.00
440,862.52,1144.32,111.44,2406.50,992.00
442,862.84,1148.61,170.46,2524.50,1011.00
444,863.16,1152.89,240.16,2622.00,988.50
446,863.48,1157.17,348.48,2805.50,998.00
448,863.80,1161.45,438.08,2960.00,997.00
450,864.12,1165.73,583.33,3191.50,1002.50
452,864.44,1170.00,749.06,3431.00,986.00
454,864.76,1174.27,853.47,3593.50,1001.00
456,865.07,1178.53,942.43,3658.50,974.50
458,865.39,1182.80,812.00,3510.00,1005.00
460,865.71,1187.06,619.12,3224.00,1001.00
462,866.03,1191.31,433.59,2929.00,999.00
464,866.35,1195.57,269.70,2654.00,993.00
466,866.67,1199.82,164.74,2477.00,1008.50
468,866.99,1204.06,86.94,2335.50,998.00
470,867.31,1208.31,19.93,2254.00,1013.00
472,867.63,1212.55,2.26,2199.50,1014.00
474,867.95,1216.79,0.32,2148.50,976.50
476,868.27,1221.02,0.00,2135.50,1003.50
478,868.58,1225.25,0.00,2128.50,969.50
480,868.90,1229.48,0.00,2173.50,1008.50
482,869.22,1233.71,0.00,2174.50,1016.00
484,869.54,1237.93,0.00,2220.50,1035.00
486,869.86,1242.15,0.00,2210.50,1000.00
488,870.18,1246.36,9.10,2222.00,982.00
490,870.50,1250.58,4.94,2254.00,1001.00
492,870.82,1254.79,5.32,2314.50,1044.50
494,871.14,1258.99,14.80,2307.00,1015.00
496,871.46,1263.20,36.58,2345.00,1004.50
498,871.78,1267.40,37.31,2354.50,992.50
500,872.10,1271.59,64.93,2403.50,989.00
502,872.41,1275.79,60.14,2421.00,996.00
504,872.73,1279.98,69.39,2460.50,1002.50
506,873.05,1284.17,117.33,2546.00,1006.00
508,873.37,1288.35,127.32,2530.00,957.00
510,873.69,1292.53,117.66,2552.00,977.00
512,874.01,1296.71,156.87,2628.00,979.00
514,874.33,1300.88,183.12,2668.50,964.00
516,874.65,1305.06,161.66,2680.00,993.50
518,874.97,1309.22,218.86,2762.50,986.00
520,875.29,1313.39,197.30,2772.50,1002.00
522,875.60,1317.55,202.97,2794.00,997.00
524,875.92,1321.71,216.82,2818.50,993.50
526,876.24,1325.87,225.83,2862.50,1010.50
528,876.56,1330.02,249.44,2882.00,985.50
530,876.88,1334.17,237.54,2904.00,1009.00
532,877.20,1338.32,223.29,2866.00,977.00
534,877.52,1342.46,244.99,2903.50,971.50
536,877.84,1346.60,220.46,2915.50,1007.50
538,878.16,1350.73,222.27,2907.00,987.50
540,878.47,1354.87,211.05,2912.50,993.00
542,878.79,1359.00,197.95,2909.00,996.00
544,879.11,1363.13,204.75,2920.00,991.50
546,879.43,1367.25,171.97,2881.50,987.50
548,879.75,1371.37,183.82,2904.50,983.50
550,880.07,1375.49,160.97,2879.50,979.00
552,880.39,1379.60,146.36,2883.00,995.50
554,880.71,1383.71,130.27,2859.50,980.00
556,881.03,1387.82,106.80,2841.00,983.00
558,881.34,1391.93,123.62,2848.00,962.00
560,881.66,1396.03,102.36,2845.00,977.50
562,881.98,1400.13,109.64,2891.00,1001.00
564,882.30,1404.22,91.06,2882.00,1002.00
566,882.62,1408.31,66.64,2837.00,986.00
568,882.94,1412.40,83.96,2870.50,995.00
570,883.26,1416.49,51.20,2840.50,985.00
572,883.57,1420.57,25.49,2840.50,1018.00
574,883.89,1424.65,36.80,2835.50,985.00
576,884.21,1428.73,5.60,2837.00,1015.00
578,884.53,1432.80,34.74,2905.00,1021.00
580,884.85,1436.87,69.70,2899.50,986.00
582,885.17,1440.93,68.45,2891.50,962.00
584,885.49,1445.00,65.61,2922.00,980.00
586,885.80,1449.06,84.63,2958.00,977.00
588,886.12,1453.11,114.88,3060.00,1012.00
590,886.44,1457.17,191.38,3176.50,993.50
592,886.76,1461.22,325.67,3359.00,998.00
594,887.08,1465.26,469.44,3547.50,1012.50
596,887.40,1469.31,489.16,3541.00,974.00
598,887.71,1473.35,447.08,3505.00,980.00
600,888.03,1477.38,313.23,3360.50,989.00
602,888.35,1481.42,176.70,3212.00,1015.00
604,888.67,1485.45,121.44,3108.50,1000.00
606,888.99,1489.48,102.24,3050.50,976.50
608,889.31,1493.50,117.61,3085.50,997.00
610,889.62,1497.52,107.46,3080.00,1000.00
612,889.94,1501.54,114.19,3080.50,970.50
614,890.26,1505.56,139.86,3128.00,983.00
616,890.58,1509.57,150.91,3137.50,990.00
618,890.90,1513.57,230.53,3240.50,980.00
620,891.21,1517.58,292.47,3339.50,989.50
622,891.53,1521.58,386.58,3486.50,984.50
624,891.85,1525.58,530.36,3740.50,987.50
626,892.17,1529.57,837.46,4220.00,997.00
628,892.49,1533.57,1380.72,4927.50,1004.00
630,892.80,1537.56,1963.34,5543.00,992.50
632,893.12,1541.54,2174.02,5751.50,980.00
634,893.44,1545.52,1714.76,5306.50,1012.50
636,893.76,1549.50,1191.93,4626.00,973.50
638,894.07,1553.48,838.66,4116.00,994.00
640,894.39,1557.45,627.15,3758.50,986.50
642,894.71,1561.42,439.44,3482.00,995.00
644,895.03,1565.39,399.22,3384.00,969.50
646,895.34,1569.35,426.39,3435.50,1002.50
648,895.66,1573.31,524.48,3541.00,987.50
650,895.98,1577.26,673.64,3684.00,985.50
652,896.30,1581.22,774.77,3745.50,972.50
654,896.61,1585.17,630.80,3611.50,990.50
656,896.93,1589.11,459.02,3425.50,993.50
658,897.25,1593.06,364.94,3268.00,977.00
660,897.57,1597.00,382.26,3260.00,985.00
662,897.88,1600.93,412.94,3286.50,997.00
664,898.20,1604.87,426.14,3304.50,989.50
666,898.52,1608.80,458.83,3359.00,985.00
668,898.84,1612.72,587.52,3515.50,966.00
670,899.15,1616.65,765.67,3775.50,998.00
672,899.47,1620.57,1002.93,4009.00,964.00
674,899.79,1624.49,1167.22,4204.50,990.50
676,900.10,1628.40,1173.40,4232.00,979.00
678,900.42,1632.31,1033.78,4142.00,1004.00
680,900.74,1636.22,1015.95,4145.50,960.50
682,901.05,1640.12,1203.28,4497.00,1016.00
684,901.37,1644.02,1790.45,5089.00,985.00
686,901.69,1647.92,2496.42,5663.50,1004.00
688,902.00,1651.82,2169.70,5304.00,979.00
690,902.32,1655.71,1155.70,4299.50,976.00
692,902.64,1659.60,563.89,3490.50,974.50
694,902.95,1663.48,369.68,3145.00,998.00
696,903.27,1667.36,264.00,2930.50,980.00
698,903.59,1671.24,211.85,2864.00,1009.50
700,903.90,1675.11,225.32,2835.50,997.50
702,904.22,1678.99,246.55,2805.50,967.50
704,904.54,1682.85,202.39,2808.50,1032.50
706,904.85,1686.72,170.11,2710.00,972.50
708,905.17,1690.58,132.47,2668.00,986.00
710,905.49,1694.44,120.70,2621.50,975.50
712,905.80,1698.29,121.17,2617.50,989.50
714,906.12,1702.15,100.70,2594.00,991.00
716,906.43,1706.00,45.05,2524.50,1002.00
718,906.75,1709.84,67.03,2539.00,1009.50
720,907.07,1713.68,82.05,2501.00,976.00
722,907.38,1717.52,64.54,2462.50,981.00
724,907.70,1721.36,40.02,2438.00,982.00
726,908.01,1725.19,6.65,2380.00,990.50
728,908.33,1729.02,9.20,2370.50,1004.50
730,908.65,1732.85,1.01,2320.50,984.00
732,908.96,1736.67,0.00,2303.50,1004.00
734,909.28,1740.49,0.00,2272.00,985.00
736,909.59,1744.30,15.11,2288.50,997.00
738,909.91,1748.12,3.25,2241.00,980.00
740,910.22,1751.93,13.77,2262.50,1001.00
742,910.54,1755.73,30.71,2292.00,1042.50
744,910.85,1759.54,19.30,2230.00,1003.50
746,911.17,1763.34,0.00,2164.50,982.00
748,911.49,1767.13,20.98,2191.50,993.50
750,911.80,1770.93,0.00,2124.00,983.00
752,912.12,1774.72,0.00,2144.50,1004.00
754,912.43,1778.50,9.22,2107.50,966.00
756,912.75,1782.29,0.00,2080.50,966.50
758,913.06,1786.07,0.02,2081.00,974.00
760,913.38,1789.84,6.19,2103.00,997.00
762,913.69,1793.62,17.74,2106.50,1002.00
764,914.01,1797.39,15.53,2086.50,989.50
766,914.32,1801.15,35.78,2081.50,975.50
768,914.64,1804.92,34.42,2063.00,974.50
770,914.95,1808.68,5.57,2047.00,994.50
772,915.26,1812.44,9.26,2044.50,998.00
774,915.58,1816.19,3.82,1998.00,972.50
776,915.89,1819.94,12.44,2017.00,989.50
778,916.21,1823.69,17.67,2019.00,997.00
780,916.52,1827.43,34.13,2043.50,1014.00
782,916.84,1831.17,46.45,1996.50,961.00
784,917.15,1834.91,20.80,1970.00,973.50
786,917.47,1838.64,61.41,2017.50,989.50
788,917.78,1842.38,40.07,1989.00,991.00
790,918.09,1846.10,41.34,1971.50,980.00
792,918.41,1849.83,39.72,1969.00,994.00
794,918.72,1853.55,35.38,1924.50,963.50
796,919.04,1857.27,43.58,1944.50,980.00
798,919.35,1860.98,49.96,1937.00,977.00
800,919.66,1864.69,33.35,1917.00,988.50
802,919.98,1868.40,45.45,1930.50,999.00
804,920.29,1872.11,80.31,1938.50,977.00
806,920.60,1875.81,54.79,1904.00,980.00
808,920.92,1879.51,75.94,1910.50,974.50
810,921.23,1883.20,60.71,1906.00,994.00
812,921.55,1886.90,50.94,1861.00,973.50
814,921.86,1890.58,59.08,1893.00,1007.00
816,922.17,1894.27,56.60,1883.00,1003.00
818,922.49,1897.95,32.71,1839.00,1000.00
820,922.80,1901.63,47.92,1832.50,988.50
822,923.11,1905.31,37.39,1804.50,980.50
824,923.42,1908.98,38.73,1813.50,997.50
826,923.74,1912.65,61.23,1826.00,997.00
828,924.05,1916.31,57.93,1793.00,975.50
830,924.36,1919.98,47.73,1779.00,980.00
832,924.68,1923.64,60.28,1778.00,976.00
834,924.99,1927.29,73.73,1782.00,976.00
836,925.30,1930.94,63.89,1752.50,967.00
838,925.61,1934.59,64.47,1759.50,983.00
840,925.93,1938.24,48.59,1738.50,986.50
842,926.24,1941.88,53.17,1726.00,980.00
844,926.55,1945.52,64.13,1714.50,969.50
846,926.86,1949.16,55.27,1722.00,990.00
848,927.18,1952.79,26.94,1666.50,977.00
850,927.49,1956.42,48.40,1680.50,980.00
852,927.80,1960.05,27.98,1680.50,1007.50
854,928.11,1963.67,32.61,1665.50,995.00
856,928.42,1967.29,71.55,1686.50,990.50
858,928.74,1970.91,42.47,1638.50,981.00
860,929.05,1974.52,35.25,1624.50,980.00
862,929.36,1978.13,28.58,1595.00,971.50
864,929.67,1981.74,42.16,1611.50,983.00
866,929.98,1985.35,13.57,1588.50,987.00
868,930.29,1988.95,12.86,1575.00,986.00
870,930.61,1992.54,28.48,1553.50,970.50
872,930.92,1996.14,23.83,1563.00,987.50
874,931.23,1999.73,2.74,1553.50,1004.00
876,931.54,2003.32,4.37,1536.50,990.50
878,931.85,2006.90,8.45,1519.00,984.00
880,932.16,2010.48,26.39,1514.50,976.00
882,932.47,2014.06,21.54,1508.50,977.00
884,932.78,2017.63,3.86,1498.00,994.00
886,933.09,2021.21,28.07,1503.00,982.00
888,933.41,2024.77,0.00,1477.00,996.00
890,933.72,2028.34,24.45,1509.00,1008.50
892,934.03,2031.90,2.49,1472.00,1002.00
894,934.34,2035.46,23.09,1476.00,989.50
896,934.65,2039.01,26.84,1446.00,971.50
898,934.96,2042.57,7.00,1452.00,1000.50
900,935.27,2046.11,3.46,1455.50,1015.00
902,935.58,2049.66,18.94,1404.00,959.00
904,935.89,2053.20,21.49,1426.00,984.50
906,936.20,2056.74,0.00,1401.50,993.50
908,936.51,2060.28,19.85,1409.00,980.00
910,936.82,2063.81,20.23,1410.00,996.00
912,937.13,2067.34,9.64,1391.00,991.50
914,937.44,2070.86,5.32,1370.00,979.00
916,937.75,2074.39,2.66,1351.00,971.50
918,938.06,2077.91,3.81,1351.00,978.00
920,938.37,2081.42,0.00,1339.50,978.00
922,938.68,2084.94,0.54,1334.00,977.00
924,938.99,2088.45,0.00,1327.50,980.00
926,939.30,2091.95,1.68,1336.00,993.00
928,939.60,2095.46,0.00,1315.00,989.00
930,939.91,2098.96,4.38,1336.00,1000.00
932,940.22,2102.45,0.00,1318.00,997.00
934,940.53,2105.95,3.83,1289.50,966.00
936,940.84,2109.44,5.03,1304.00,984.00
938,941.15,2112.92,0.00,1306.50,1000.00
940,941.46,2116.41,19.29,1298.00,975.50
942,941.77,2119.89,0.00,1302.00,1003.00
944,942.07,2123.37,16.31,1302.00,988.50
946,942.38,2126.84,0.00,1293.00,1000.00
948,942.69,2130.31,3.43,1297.00,999.00
950,943.00,2133.78,21.78,1279.00,973.50
952,943.31,2137.24,12.65,1280.00,986.50
954,943.62,2140.70,3.51,1276.50,991.50
956,943.92,2144.16,0.95,1261.00,982.00
958,944.23,2147.62,0.00,1270.00,1001.00
960,944.54,2151.07,14.20,1293.50,1009.50
962,944.85,2154.52,2.12,1293.50,1021.00
964,945.16,2157.96,0.44,1265.00,997.00
966,945.46,2161.40,17.95,1279.00,996.50
968,945.77,2164.84,25.01,1234.50,952.50
970,946.08,2168.28,18.43,1260.00,984.00
972,946.39,2171.71,30.41,1257.00,971.00
974,946.69,2175.14,17.76,1258.00,985.00
976,947.00,2178.57,14.89,1249.00,980.00
978,947.31,2181.99,5.11,1226.50,969.50
980,947.61,2185.41,26.92,1254.50,982.00
982,947.92,2188.82,6.72,1257.50,1001.00
984,948.23,2192.24,6.03,1224.00,969.50
986,948.53,2195.65,20.01,1246.00,986.50
988,948.84,2199.05,23.42,1210.00,948.00
990,949.15,2202.46,9.94,1236.50,985.00
992,949.45,2205.86,26.40,1241.50,980.00
994,949.76,2209.25,12.46,1222.00,976.00
996,950.07,2212.65,18.15,1228.50,976.00
998,950.37,2216.04,8.66,1215.50,972.50
1000,950.68,2219.43,30.63,1238.00,977.00
1002,950.98,2222.81,19.99,1234.50,988.50
1004,951.29,2226.19,36.99,1223.50,969.50
1006,951.60,2229.57,39.49,1226.00,966.00
1008,951.90,2232.94,8.94,1203.00,968.50
1010,952.21,2236.32,27.89,1217.50,970.00
1012,952.51,2239.68,22.33,1228.00,990.50
1014,952.82,2243.05,17.63,1187.50,952.50
1016,953.12,2246.41,4.94,1224.50,1003.50
1018,953.43,2249.77,23.87,1263.00,1028.50
1020,953.73,2253.12,27.52,1228.50,994.00
1022,954.04,2256.48,13.53,1179.00,957.00
1024,954.34,2259.83,14.18,1221.00,1000.00
1026,954.65,2263.17,18.49,1193.00,970.50
1028,954.95,2266.51,9.48,1197.50,982.00
1030,955.26,2269.85,8.22,1225.00,1013.00
1032,955.56,2273.19,11.97,1208.50,998.00
1034,955.87,2276.52,28.20,1212.50,989.50
1036,956.17,2279.85,0.00,1211.00,1014.00
1038,956.48,2283.18,23.21,1186.00,969.00
1040,956.78,2286.50,0.00,1169.00,976.00
1042,957.08,2289.82,3.57,1155.00,957.50
1044,957.39,2293.14,19.54,1194.00,984.00
1046,957.69,2296.45,29.45,1172.50,960.00
1048,957.99,2299.76,34.98,1220.00,1006.00
1050,958.30,2303.07,10.01,1190.00,992.00
1052,958.60,2306.38,9.64,1187.00,985.50
1054,958.91,2309.68,3.77,1181.50,989.50
1056,959.21,2312.98,29.96,1170.00,963.00
1058,959.51,2316.27,27.56,1190.00,987.00
1060,959.82,2319.56,10.93,1198.50,1003.50
1062,960.12,2322.85,19.67,1176.50,975.00
1064,960.42,2326.14,25.95,1167.00,968.50
1066,960.72,2329.42,50.14,1198.50,987.50
1068,961.03,2332.70,25.62,1201.00,1002.00
1070,961.33,2335.97,9.30,1173.50,986.50
1072,961.63,2339.25,27.07,1170.00,972.00
1074,961.93,2342.52,35.38,1169.00,970.50
1076,962.24,2345.78,3.21,1162.00,986.50
1078,962.54,2349.05,19.25,1170.00,985.00
1080,962.84,2352.31,5.13,1163.50,987.50
1082,963.14,2355.56,6.92,1154.50,975.00
1084,963.45,2358.82,12.85,1155.00,976.00
1086,963.75,2362.07,18.99,1164.00,985.00
1088,964.05,2365.32,18.13,1195.50,1016.00
1090,964.35,2368.56,16.79,1162.50,984.50
1092,964.65,2371.80,19.59,1176.50,999.00
1094,964.95,2375.04,16.47,1156.50,981.00
1096,965.25,2378.27,17.56,1155.00,981.00
1098,965.56,2381.51,25.02,1160.50,985.00
1100,965.86,2384.73,7.25,1153.00,987.50
1102,966.16,2387.96,6.03,1144.00,979.00
1104,966.46,2391.18,4.87,1173.50,1012.00
1106,966.76,2394.40,10.17,1140.50,978.50
1108,967.06,2397.62,26.99,1177.50,1007.50
1110,967.36,2400.83,0.00,1131.00,979.00
1112,967.66,2404.04,6.97,1174.00,1013.00
1114,967.96,2407.25,11.02,1125.50,966.00
1116,968.26,2410.45,13.66,1139.50,981.00
1118,968.56,2413.65,0.88,1128.00,978.00
1120,968.86,2416.85,18.20,1175.50,1014.00
1122,969.16,2420.04,18.48,1144.00,984.50
1124,969.46,2423.23,20.04,1130.00,967.50
1126,969.76,2426.42,14.39,1138.50,982.00
1128,970.06,2429.60,28.43,1125.50,963.00
1130,970.36,2432.79,19.01,1135.00,978.00
1132,970.66,2435.96,31.47,1138.50,974.50
1134,970.96,2439.14,16.91,1142.50,990.50
1136,971.26,2442.31,23.88,1149.00,992.50
1138,971.56,2445.48,14.92,1130.00,978.00
1140,971.86,2448.65,18.95,1126.50,972.50
1142,972.16,2451.81,38.19,1155.00,992.50
1144,972.45,2454.97,30.24,1135.00,979.50
1146,972.75,2458.13,36.53,1143.50,984.00
1148,973.05,2461.28,20.13,1125.00,975.50
1150,973.35,2464.43,32.12,1142.00,984.00
1152,973.65,2467.58,34.00,1139.50,984.00
1154,973.95,2470.72,54.48,1143.50,977.00
1156,974.24,2473.86,24.41,1134.00,985.00
1158,974.54,2477.00,47.23,1129.00,967.50
1160,974.84,2480.13,47.52,1148.00,990.50
1162,975.14,2483.27,48.27,1146.00,986.50
1164,975.43,2486.40,40.48,1121.50,965.50
1166,975.73,2489.52,58.36,1134.50,971.00
1168,976.03,2492.64,45.44,1127.00,975.00
1170,976.33,2495.76,46.35,1147.00,993.00
1172,976.62,2498.88,19.33,1113.50,974.50
1174,976.92,2501.99,29.30,1146.00,1001.50
1176,977.22,2505.10,34.25,1137.50,992.50
1178,977.51,2508.21,38.13,1125.00,981.00
1180,977.81,2511.31,38.61,1125.50,981.00
1182,978.11,2514.41,7.37,1109.00,983.00
1184,978.40,2517.51,24.18,1125.50,990.50
1186,978.70,2520.61,40.16,1122.50,981.00
1188,979.00,2523.70,32.30,1133.00,998.00
1190,979.29,2526.79,30.20,1111.00,976.00
1192,979.59,2529.87,14.82,1111.00,982.00
1194,979.88,2532.95,13.54,1097.00,970.50
1196,980.18,2536.03,23.47,1122.50,994.00
1198,980.48,2539.11,47.21,1136.00,997.00
1200,980.77,2542.18,18.15,1113.00,989.50
1202,981.07,2545.25,19.12,1122.50,998.00
1204,981.36,2548.32,7.09,1101.50,984.50
1206,981.66,2551.38,20.58,1133.00,1010.00
1208,981.95,2554.44,6.55,1105.50,991.00
1210,982.25,2557.50,15.31,1128.00,1008.50
1212,982.54,2560.56,34.86,1131.00,1004.00
1214,982.84,2563.61,30.13,1132.00,1009.50
1216,983.13,2566.66,29.14,1134.00,1007.50
1218,983.43,2569.70,6.34,1115.50,1003.00
1220,983.72,2572.74,19.69,1124.50,1005.50
1222,984.01,2575.78,7.26,1107.00,997.00
1224,984.31,2578.82,27.89,1097.00,975.00
1226,984.60,2581.85,9.69,1105.50,995.00
1228,984.90,2584.88,46.73,1095.00,970.00
1230,985.19,2587.91,31.99,1109.00,991.50
1232,985.48,2590.93,14.27,1112.00,1000.00
1234,985.78,2593.96,10.20,1108.50,999.00
1236,986.07,2596.97,14.82,1105.00,994.50
1238,986.36,2599.99,14.65,1129.00,1021.00
1240,986.66,2603.00,49.71,1126.00,1003.00
1242,986.95,2606.01,18.34,1118.00,1008.50
1244,987.24,2609.01,23.21,1122.00,1010.50
1246,987.54,2612.02,39.81,1072.50,956.50
1248,987.83,2615.02,30.75,1108.50,998.00
1250,988.12,2618.01,44.20,1120.50,1002.00
1252,988.41,2621.01,25.98,1116.50,1002.50
1254,988.71,2624.00,15.89,1091.00,985.00
1256,989.00,2626.99,57.78,1118.50,998.00
1258,989.29,2629.97,25.94,1108.00,1003.00
1260,989.58,2632.95,36.04,1115.00,1004.00
1262,989.87,2635.93,47.00,1110.00,995.00
1264,990.16,2638.91,8.36,1082.00,986.00
1266,990.46,2641.88,0.00,1101.50,1011.00
1268,990.75,2644.85,48.45,1143.00,1027.50
1270,991.04,2647.81,7.68,1100.00,1005.00
1272,991.33,2650.78,32.56,1111.00,1003.00
1274,991.62,2653.74,56.38,1107.00,994.50
1276,991.91,2656.70,43.34,1093.00,987.50
1278,992.20,2659.65,54.71,1113.00,1000.00
1280,992.49,2662.60,6.79,1086.00,995.00
1282,992.78,2665.55,40.67,1128.00,1021.00
1284,993.07,2668.50,5.54,1117.00,1027.50
1286,993.36,2671.44,39.51,1122.50,1015.50
1288,993.65,2674.38,21.26,1117.50,1021.00
1290,993.94,2677.31,48.99,1105.50,1002.00
1292,994.23,2680.25,102.68,1119.50,997.00
1294,994.52,2683.18,14.63,1098.50,1004.00
1296,994.81,2686.10,13.12,1101.00,1006.00
1298,995.10,2689.03,72.39,1112.00,996.00
1300,995.39,2691.95,99.44,1098.00,983.00
1302,995.68,2694.87,28.55,1117.00,1023.00
1304,995.97,2697.78,33.58,1116.00,1016.00
1306,996.26,2700.70,32.75,1080.50,983.00
1308,996.55,2703.61,55.76,1106.00,1003.00
1310,996.84,2706.51,44.31,1112.00,1015.00
1312,997.13,2709.42,56.98,1109.00,1006.50
1314,997.41,2712.32,38.68,1111.50,1017.00
1316,997.70,2715.21,63.46,1099.50,996.00
1318,997.99,2718.11,53.61,1105.00,1005.50
1320,998.28,2721.00,56.73,1085.50,985.50
1322,998.57,2723.89,41.99,1115.50,1021.00
1324,998.86,2726.77,40.94,1081.00,985.50
1326,999.14,2729.66,43.77,1087.50,992.50
1328,999.43,2732.54,51.01,1095.00,1002.00
1330,999.72,2735.41,99.76,1099.50,992.50
1332,1000.01,2738.29,31.24,1111.00,1023.00
1334,1000.29,2741.16,22.04,1082.50,995.50
1336,1000.58,2744.03,5.15,1059.00,983.00
1338,1000.87,2746.89,64.96,1105.00,1010.00
1340,1001.15,2749.75,2.83,1078.00,1004.50
1342,1001.44,2752.61,55.01,1087.00,996.00
1344,1001.73,2755.47,27.51,1081.50,998.50
1346,1002.01,2758.32,18.38,1074.00,993.00
1348,1002.30,2761.17,8.37,1096.00,1022.00
1350,1002.59,2764.02,76.18,1112.00,1018.00
1352,1002.87,2766.86,15.10,1083.00,1009.00
1354,1003.16,2769.70,43.37,1073.00,990.50
1356,1003.44,2772.54,40.05,1069.00,986.50
1358,1003.73,2775.38,19.85,1082.50,1003.50
1360,1004.01,2778.21,3.05,1053.00,984.00
1362,1004.30,2781.04,49.58,1078.50,994.00
1364,1004.58,2783.87,88.71,1075.00,985.50
1366,1004.87,2786.69,32.78,1055.00,978.00
1368,1005.15,2789.51,33.79,1091.00,1010.50
1370,1005.44,2792.33,36.62,1099.00,1020.00
1372,1005.72,2795.14,26.24,1094.00,1022.00
1374,1006.01,2797.95,113.92,1104.00,1006.50
1376,1006.29,2800.76,39.77,1070.00,994.00
1378,1006.58,2803.57,68.52,1117.00,1030.50
1380,1006.86,2806.37,19.04,1065.50,997.00
1382,1007.14,2809.17,50.63,1075.00,997.00
1384,1007.43,2811.97,10.52,1061.00,997.00
1386,1007.71,2814.77,41.06,1059.00,986.50
1388,1008.00,2817.56,60.29,1070.00,991.50
1390,1008.28,2820.35,61.08,1088.50,1008.00
1392,1008.56,2823.13,48.01,1063.50,988.50
1394,1008.85,2825.91,76.68,1081.50,1000.00
1396,1009.13,2828.69,82.91,1077.00,996.00
1398,1009.41,2831.47,73.59,1090.50,1012.50
1400,1009.69,2834.24,62.41,1056.00,979.00
1402,1009.98,2837.02,41.68,1063.50,993.00
1404,1010.26,2839.78,93.44,1091.00,1007.50
1406,1010.54,2842.55,66.79,1051.50,977.50
1408,1010.82,2845.31,25.97,1065.50,1003.00
1410,1011.11,2848.07,41.04,1076.00,1007.50
1412,1011.39,2850.83,0.00,1072.00,1019.00
1414,1011.67,2853.58,52.79,1070.50,1001.00
1416,1011.95,2856.33,88.02,1073.00,998.00
1418,1012.23,2859.08,17.88,1059.00,1001.00
1420,1012.51,2861.83,50.09,1061.50,993.50
1422,1012.80,2864.57,64.90,1099.50,1030.50
1424,1013.08,2867.31,71.10,1085.00,1015.00
1426,1013.36,2870.04,42.29,1079.50,1015.00
1428,1013.64,2872.78,43.22,1063.00,998.00
1430,1013.92,2875.51,39.36,1095.00,1033.00
1432,1014.20,2878.24,55.51,1065.50,1000.00
1434,1014.48,2880.96,59.33,1061.50,996.00
1436,1014.76,2883.68,67.46,1044.50,979.00
1438,1015.04,2886.40,50.66,1055.00,994.00
1440,1015.32,2889.12,34.90,1074.00,1015.00
1442,1015.60,2891.83,7.20,1049.00,998.00
1444,1015.88,2894.54,0.00,1068.00,1020.00
1446,1016.16,2897.25,59.94,1036.00,975.50
1448,1016.44,2899.96,20.72,1064.50,1009.50
1450,1016.72,2902.66,0.00,1055.00,1008.50
1452,1017.00,2905.36,13.77,1082.00,1027.50
1454,1017.28,2908.06,40.34,1044.50,986.00
1456,1017.55,2910.75,86.67,1074.00,1010.00
1458,1017.83,2913.44,53.67,1046.00,989.50
1460,1018.11,2916.13,70.13,1066.50,1003.00
1462,1018.39,2918.81,46.52,1063.50,1003.00
1464,1018.67,2921.49,49.20,1059.00,1000.00
1466,1018.95,2924.17,84.63,1058.00,995.00
1468,1019.22,2926.85,0.00,1061.00,1017.00
1470,1019.50,2929.52,43.10,1042.50,987.00
1472,1019.78,2932.20,29.21,1034.00,981.00
1474,1020.06,2934.86,12.77,1046.50,999.00
1476,1020.33,2937.53,28.89,1076.00,1026.50
1478,1020.61,2940.19,66.09,1059.00,1002.00
1480,1020.89,2942.85,35.25,1072.00,1017.00
1482,1021.17,2945.51,0.00,1044.00,1002.00
1484,1021.44,2948.16,43.81,1063.00,1008.50
1486,1021.72,2950.81,96.37,1060.00,998.00
1488,1022.00,2953.46,6.85,1070.00,1025.50
1490,1022.27,2956.11,83.45,1052.00,992.00
1492,1022.55,2958.75,29.88,1072.00,1022.00
1494,1022.82,2961.39,55.22,1052.50,997.00
1496,1023.10,2964.03,45.62,1080.00,1026.50
1498,1023.38,2966.66,0.00,1047.50,1006.00
1500,1023.65,2969.29,23.44,1066.50,1018.00
1502,1023.93,2971.92,81.69,1081.00,1023.00
1504,1024.20,2974.55,129.40,1077.00,1010.50
1506,1024.48,2977.17,72.87,1067.50,1010.00
1508,1024.75,2979.79,93.09,1049.00,987.00
1510,1025.03,2982.41,69.62,1048.50,989.50
1512,1025.30,2985.02,24.49,1038.00,988.50
1514,1025.58,2987.63,87.55,1064.50,1002.00
1516,1025.85,2990.24,104.48,1050.50,990.00
1518,1026.13,2992.85,105.54,1076.00,1016.00
1520,1026.40,2995.45,61.10,1064.50,1007.50
1522,1026.68,2998.05,38.65,1047.50,992.50
1524,1026.95,3000.65,66.15,1073.00,1012.50
1526,1027.22,3003.25,44.51,1052.00,1000.00
1528,1027.50,3005.84,67.32,1048.50,994.50
1530,1027.77,3008.43,72.73,1062.50,1007.50
1532,1028.04,3011.02,65.05,1076.00,1018.00
1534,1028.32,3013.60,14.04,1054.50,1005.50
1536,1028.59,3016.18,0.00,1065.50,1023.00
1538,1028.86,3018.76,41.25,1020.50,968.50
1540,1029.14,3021.34,76.34,1060.50,1004.50
1542,1029.41,3023.91,36.80,1050.00,998.00
1544,1029.68,3026.48,42.31,1042.00,987.00
1546,1029.95,3029.05,19.00,1048.00,997.50
1548,1030.22,3031.61,53.21,1048.50,992.00
1550,1030.50,3034.17,83.90,1052.00,993.00
1552,1030.77,3036.73,81.60,1054.00,995.00
1554,1031.04,3039.29,9.36,1063.50,1014.00
1556,1031.31,3041.84,6.96,1024.50,975.00
1558,1031.58,3044.39,79.40,1088.50,1026.50
1560,1031.85,3046.94,98.25,1079.50,1017.00
1562,1032.13,3049.49,44.92,1050.00,995.00
1564,1032.40,3052.03,155.29,1089.50,1016.50
1566,1032.67,3054.57,4.17,1047.00,997.00
1568,1032.94,3057.11,36.26,1084.50,1027.50
1570,1033.21,3059.64,57.71,1040.50,981.00
1572,1033.48,3062.18,73.12,1083.50,1022.50
1574,1033.75,3064.70,0.00,1071.00,1025.00
1576,1034.02,3067.23,181.47,1084.50,1009.50
1578,1034.29,3069.75,19.65,1037.00,983.00
1580,1034.56,3072.28,130.43,1075.00,1003.50
1582,1034.83,3074.79,54.98,1041.50,980.00
1584,1035.10,3077.31,96.42,1077.00,1007.50
1586,1035.37,3079.82,52.44,1050.50,989.50
1588,1035.64,3082.33,102.05,1098.00,1031.50
1590,1035.91,3084.84,30.60,1069.50,1010.50
1592,1036.17,3087.34,0.00,1050.00,995.00
1594,1036.44,3089.85,46.34,1100.00,1036.00
1596,1036.71,3092.35,52.20,1056.00,992.50
1598,1036.98,3094.84,261.44,1064.00,975.50
1600,1037.25,3097.34,56.57,1045.50,981.00
1602,1037.52,3099.83,101.80,1076.00,1004.50
1604,1037.78,3102.32,151.33,1079.00,1002.00
1606,1038.05,3104.80,129.22,1091.00,1017.00
1608,1038.32,3107.29,0.00,1058.50,1002.00
1610,1038.59,3109.77,247.38,1081.50,991.00
1612,1038.85,3112.24,0.00,1055.00,999.00
1614,1039.12,3114.72,23.20,1085.00,1019.00
1616,1039.39,3117.19,36.50,1046.50,978.00
1618,1039.66,3119.66,0.00,1084.50,1024.50
1620,1039.92,3122.13,133.81,1093.00,1015.00
1622,1040.19,3124.59,40.91,1084.50,1013.50
1624,1040.45,3127.05,25.43,1065.50,995.50
1626,1040.72,3129.51,145.74,1092.00,1009.50
1628,1040.99,3131.97,27.13,1089.00,1017.00
1630,1041.25,3134.42,24.54,1113.00,1036.00
1632,1041.52,3136.87,0.00,1060.00,992.50
1634,1041.78,3139.32,0.00,1073.00,1006.00
1636,1042.05,3141.77,0.00,1143.50,1075.00
1638,1042.32,3144.21,159.51,1087.50,996.00
1640,1042.58,3146.65,212.74,1117.50,1020.00
1642,1042.85,3149.09,70.12,1101.50,1011.00
1644,1043.11,3151.52,0.00,1090.50,1014.00
1646,1043.38,3153.96,86.68,1119.50,1021.00
1648,1043.64,3156.39,162.59,1105.00,999.00
1650,1043.90,3158.81,47.79,1108.00,1009.50
1652,1044.17,3161.24,57.38,1124.50,1020.00
1654,1044.43,3163.66,3.98,1094.50,994.00
1656,1044.70,3166.08,113.50,1156.50,1039.00
1658,1044.96,3168.49,52.89,1119.50,1008.50
1660,1045.22,3170.91,0.00,1111.00,1005.50
1662,1045.49,3173.32,79.79,1122.50,1004.00
1664,1045.75,3175.73,211.47,1149.00,1015.00
1666,1046.01,3178.13,96.52,1128.00,1000.00
1668,1046.28,3180.54,0.00,1143.00,1029.50
1670,1046.54,3182.94,207.02,1166.50,1016.00
1672,1046.80,3185.34,43.34,1154.50,1020.50
1674,1047.07,3187.73,130.72,1139.50,995.00
1676,1047.33,3190.12,335.02,1173.00,1009.00
1678,1047.59,3192.51,84.13,1177.50,1029.50
1680,1047.85,3194.90,177.63,1196.50,1032.50
1682,1048.11,3197.29,215.29,1204.00,1034.00
1684,1048.38,3199.67,426.13,1209.00,1021.50
1686,1048.64,3202.05,435.55,1217.00,1033.00
1688,1048.90,3204.43,348.53,1192.00,1015.00
1690,1049.16,3206.80,751.68,1210.50,996.00
1692,1049.42,3209.17,464.55,1226.00,1033.00
1694,1049.68,3211.54,629.60,1213.50,1004.00
1696,1049.94,3213.91,961.95,1249.00,1012.00
1698,1050.20,3216.27,740.17,1238.00,1022.50
1700,1050.46,3218.63,1020.43,1279.00,1041.00
1702,1050.72,3220.99,1005.96,1256.00,1017.00
1704,1050.98,3223.35,1040.82,1269.50,1024.00
1706,1051.24,3225.70,1131.61,1260.00,1006.50
1708,1051.50,3228.05,1253.55,1254.50,994.00
1710,1051.76,3230.40,1416.08,1300.00,1027.50
1712,1052.02,3232.75,1390.77,1296.50,1024.00
1714,1052.28,3235.09,1388.51,1314.50,1042.50
1716,1052.54,3237.43,1972.80,1319.00,1005.00
1718,1052.80,3239.77,1769.84,1299.00,1002.50
1720,1053.06,3242.11,1865.31,1317.00,1012.00
1722,1053.32,3244.44,1914.32,1307.50,999.00
1724,1053.58,3246.77,1880.66,1343.50,1040.00
1726,1053.84,3249.10,1911.66,1315.00,1009.50
1728,1054.10,3251.42,1661.04,1310.50,1021.00
1730,1054.35,3253.75,1618.71,1295.00,1008.50
1732,1054.61,3256.07,1722.59,1325.50,1035.00
1734,1054.87,3258.39,1917.96,1312.50,1010.50
1736,1055.13,3260.70,1591.19,1289.50,1009.50
1738,1055.38,3263.01,1744.91,1292.00,1000.00
1740,1055.64,3265.32,1565.51,1296.00,1017.00
1742,1055.90,3267.63,1451.65,1272.50,1002.00
1744,1056.16,3269.94,1636.47,1317.00,1034.00
1746,1056.41,3272.24,1550.53,1321.00,1045.50
1748,1056.67,3274.54,1900.00,1314.50,1019.00
1750,1056.93,3276.84,1905.92,1315.00,1022.00
1752,1057.18,3279.13,1684.09,1296.50,1017.00
1754,1057.44,3281.42,1559.31,1273.00,1000.00
1756,1057.69,3283.71,1603.05,1283.00,1007.50
1758,1057.95,3286.00,1736.56,1327.50,1044.00
1760,1058.21,3288.28,1628.35,1287.50,1010.50
1762,1058.46,3290.57,1748.47,1317.00,1033.00
1764,1058.72,3292.85,1889.75,1320.50,1031.00
1766,1058.97,3295.12,2098.57,1298.00,999.00
1768,1059.23,3297.40,2250.28,1312.50,1005.50
1770,1059.48,3299.67,2412.91,1344.00,1027.50
1772,1059.74,3301.94,2465.27,1315.00,996.00
1774,1059.99,3304.21,2668.28,1354.00,1023.00
1776,1060.25,3306.47,2538.32,1365.50,1043.00
1778,1060.50,3308.73,2938.26,1348.50,1006.50
1780,1060.76,3310.99,3543.58,1372.00,1001.00
1782,1061.01,3313.25,3507.75,1382.50,1015.00
1784,1061.26,3315.50,3239.11,1367.50,1014.00
1786,1061.52,3317.76,3687.32,1405.00,1028.50
1788,1061.77,3320.01,4165.72,1424.00,1026.50
1790,1062.02,3322.25,4034.19,1393.00,1007.00
1792,1062.28,3324.50,4235.21,1402.50,1008.50
1794,1062.53,3326.74,4264.46,1389.50,994.00
1796,1062.78,3328.98,4093.16,1395.00,1005.50
1798,1063.04,3331.22,3696.63,1384.00,1014.00
1800,1063.29,3333.45,4035.95,1396.50,1012.50
1802,1063.54,3335.68,4391.68,1405.50,1012.50
1804,1063.79,3337.91,4703.52,1425.50,1024.00
1806,1064.05,3340.14,4362.51,1431.00,1045.50
1808,1064.30,3342.36,4190.64,1375.00,994.00
1810,1064.55,3344.59,4163.72,1408.50,1028.50
1812,1064.80,3346.81,4812.67,1417.50,1010.50
1814,1065.05,3349.02,4799.53,1408.00,1010.00
1816,1065.30,3351.24,5109.40,1436.50,1030.50
1818,1065.55,3353.45,5054.38,1410.00,1010.50
1820,1065.81,3355.66,4995.73,1446.00,1051.50
1822,1066.06,3357.87,5675.16,1429.00,1003.50
1824,1066.31,3360.07,4234.06,1359.50,998.00
1826,1066.56,3362.27,4401.56,1394.00,1025.50
1828,1066.81,3364.47,4371.60,1358.00,995.50
1830,1067.06,3366.67,4443.89,1368.50,1008.50
1832,1067.31,3368.87,3953.14,1344.50,1009.50
1834,1067.56,3371.06,3725.07,1304.50,980.00
1836,1067.81,3373.25,3195.38,1288.50,985.00
1838,1068.06,3375.44,2333.37,1265.00,998.00
1840,1068.31,3377.62,2356.20,1268.00,1002.00
1842,1068.56,3379.81,2033.63,1237.50,989.50
1844,1068.80,3381.99,2358.84,1290.50,1032.00
1846,1069.05,3384.16,1959.51,1257.50,1014.00
1848,1069.30,3386.34,1294.98,1229.00,1011.50
1850,1069.55,3388.51,1084.78,1221.00,1013.50
1852,1069.80,3390.68,1013.60,1215.00,1013.00
1854,1070.05,3392.85,716.48,1240.00,1050.50
1856,1070.30,3395.02,634.46,1201.50,1014.00
1858,1070.54,3397.18,544.47,1176.00,992.00
1860,1070.79,3399.34,445.41,1193.00,1016.00
1862,1071.04,3401.50,761.42,1181.00,995.00
1864,1071.29,3403.66,315.25,1156.50,989.50
1866,1071.53,3405.81,414.17,1180.50,1012.00
1868,1071.78,3407.96,590.34,1185.50,1014.00
1870,1072.03,3410.11,835.57,1184.50,1009.50
1872,1072.27,3412.26,989.55,1179.00,1003.00
1874,1072.52,3414.40,1380.82,1186.00,998.00
1876,1072.77,3416.54,1092.22,1179.00,1003.50
1878,1073.01,3418.68,1053.74,1195.50,1025.50
1880,1073.26,3420.82,1859.67,1162.50,969.50
1882,1073.51,3422.96,1682.76,1196.00,1013.00
1884,1073.75,3425.09,1752.30,1197.50,1015.00
1886,1074.00,3427.22,1729.70,1172.50,995.00
1888,1074.24,3429.35,2358.12,1219.00,1026.50
1890,1074.49,3431.47,2794.49,1205.00,1002.00
1892,1074.73,3433.59,2116.11,1175.50,995.00
1894,1074.98,3435.71,2101.32,1209.50,1032.00
1896,1075.22,3437.83,2708.92,1199.50,1008.50
1898,1075.47,3439.95,3125.48,1213.50,1016.00
1900,1075.71,3442.06,2528.23,1201.00,1023.50
1902,1075.96,3444.17,2184.97,1174.50,1007.50
1904,1076.20,3446.28,2018.27,1119.50,959.00
1906,1076.44,3448.38,2112.74,1198.50,1038.00
1908,1076.69,3450.49,1892.44,1171.00,1021.00
1910,1076.93,3452.59,1431.49,1150.50,1018.50
1912,1077.17,3454.69,1866.97,1136.50,996.00
1914,1077.42,3456.79,1951.63,1144.00,1004.00
1916,1077.66,3458.88,1143.07,1113.00,997.50
1918,1077.90,3460.97,1286.90,1109.00,991.00
1920,1078.15,3463.06,1328.38,1141.50,1024.50
1922,1078.39,3465.15,1009.35,1118.50,1013.50
1924,1078.63,3467.23,1121.78,1088.00,983.00
1926,1078.87,3469.32,1441.63,1128.00,1017.00
1928,1079.12,3471.40,1285.70,1097.00,991.50
1930,1079.36,3473.47,1139.69,1156.50,1056.00
1932,1079.60,3475.55,894.41,1085.50,994.00
1934,1079.84,3477.62,958.54,1102.50,1012.50
1936,1080.08,3479.69,771.57,1079.50,998.00
1938,1080.33,3481.76,1444.99,1068.50,973.50
1940,1080.57,3483.83,1283.97,1083.50,993.00
1942,1080.81,3485.89,558.47,1081.50,1010.00
1944,1081.05,3487.95,361.01,1095.00,1030.50
1946,1081.29,3490.01,930.96,1085.50,1009.00
1948,1081.53,3492.07,785.42,1067.50,997.00
1950,1081.77,3494.12,734.88,1064.50,997.00
1952,1082.01,3496.18,384.39,1079.00,1021.50
1954,1082.25,3498.23,1060.52,1060.50,988.50
1956,1082.49,3500.27,171.47,1060.00,1011.00
1958,1082.73,3502.32,820.85,1046.50,985.00
1960,1082.97,3504.36,632.54,1067.50,1011.00
1962,1083.21,3506.40,266.23,1037.00,989.50
1964,1083.45,3508.44,265.24,1029.50,983.00
1966,1083.69,3510.48,519.82,1090.50,1039.50
1968,1083.93,3512.51,420.34,1055.00,1009.50
1970,1084.16,3514.54,552.47,1047.00,1001.00
1972,1084.40,3516.57,688.45,1046.50,999.00
1974,1084.64,3518.60,384.95,1030.00,989.50
1976,1084.88,3520.62,414.44,1063.00,1023.00
1978,1085.12,3522.65,383.66,1069.50,1032.50
1980,1085.36,3524.67,1133.10,1056.00,1007.50
1982,1085.59,3526.68,914.07,1035.00,989.50
1984,1085.83,3528.70,25.68,1050.00,1023.50
1986,1086.07,3530.71,60.28,1027.50,1001.00
1988,1086.31,3532.72,128.22,1056.00,1029.00
1990,1086.54,3534.73,9.72,1013.00,990.50
1992,1086.78,3536.74,703.53,1073.00,1038.00
1994,1087.02,3538.74,262.09,1039.00,1014.00
1996,1087.25,3540.74,625.49,1013.00,982.50
1998,1087.49,3542.74,629.02,1036.00,1007.00
2000,1087.73,3544.74,352.49,1031.50,1008.50
2002,1087.96,3546.74,1261.98,1042.00,1002.50
2004,1088.20,3548.73,824.41,1055.00,1024.00
2006,1088.43,3550.72,793.64,1040.50,1011.50
2008,1088.67,3552.71,1224.49,1031.00,997.00
2010,1088.90,3554.69,1580.60,1011.50,974.50
2012,1089.14,3556.68,1572.94,1043.00,1005.50
2014,1089.38,3558.66,1128.93,1014.00,981.00
2016,1089.61,3560.64,227.81,1013.00,999.00
2018,1089.84,3562.62,669.55,1039.00,1017.50
2020,1090.08,3564.59,2159.29,1025.50,983.00
2022,1090.31,3566.56,1547.21,1016.00,986.00
2024,1090.55,3568.53,1025.89,1018.00,995.00
2026,1090.78,3570.50,1253.20,1001.00,972.50
2028,1091.02,3572.47,1006.40,1001.00,979.00
2030,1091.25,3574.43,1485.29,1009.50,983.00
2032,1091.48,3576.39,2129.61,979.00,946.00
2034,1091.72,3578.35,1707.90,990.00,964.00
2036,1091.95,3580.31,1544.13,1007.00,983.00
2038,1092.18,3582.26,1229.34,981.00,962.00
2040,1092.42,3584.22,1150.72,973.50,957.50
2042,1092.65,3586.17,1996.87,989.50,964.00
2044,1092.88,3588.12,661.14,973.50,964.00
2046,1093.11,3590.06,834.75,974.50,952.50
2047,1093.23,3591.03,305.75,966.00,950.00