File: enlighten/plugins/Raman/MatchingLibrary/785X/vinyl acetate.csv
ENLIGHTEN Version,4.1.22
Measurement ID,20250220-201055-517587-WP-01977
Serial Number,WP-01977
Model,WP-785X-F13-R-ILC
Detector,S16011-1106
Label,vinyl acetate
Declared Match,
Declared Score,0
Scan Averaging,6
Boxcar,0
Technique,Raman
Baseline Correction Algo,AirPLS
ROI Pixel Start,47
ROI Pixel End,2047
ROI Start Line,0
ROI Stop Line,63
CCD C4,1.38617e-12
Slit Width,25
Cropped,True
Interpolated,False
Wavenumber Correction,-0.100481
Raman Intensity Corrected,True
Deconvolved,True
Region,
High Gain Mode,False
Laser Power mW,
Electrical Dark Correction,False
Battery %,
Device ID,<DeviceID USB:0x24aa:0x1000:0:1>
FW Version,10.0.0.10
FPGA Version,035-001
BLE Version,
Prefix,enlighten
Suffix,
Preset,
Auto-Raman,True
Session Count,0
Plugin Name,
Integration Time,193
Timestamp,2025-02-20 20:10:55.5176
Note,
Temperature,0
CCD C0,793.274
CCD C1,0.153259
CCD C2,1.40788e-05
CCD C3,-1.132e-08
CCD Offset,0
CCD Gain,1.9
CCD Offset Odd,0
CCD Gain Odd,1.9
Laser Wavelength,785.032
Laser Enable,False
Laser Power %,0
Laser Temperature,0
Pixel Count,2048

Pixel,Wavelength,Wavenumber,Processed,Raw,Dark
0,793.27,132.25,NA,905.67,883.17
2,793.58,137.12,NA,915.00,894.00
4,793.89,141.99,NA,909.17,891.00
6,794.19,146.86,NA,910.50,889.00
8,794.50,151.72,NA,918.67,896.17
10,794.81,156.58,NA,918.17,895.00
12,795.12,161.44,NA,910.50,894.00
14,795.42,166.30,NA,915.00,891.33
16,795.73,171.16,NA,917.17,890.33
18,796.04,176.01,NA,927.33,894.17
20,796.35,180.86,NA,924.00,896.50
22,796.65,185.71,NA,933.83,903.50
24,796.96,190.56,NA,927.67,896.00
26,797.27,195.41,NA,937.17,903.33
28,797.58,200.25,NA,939.33,901.17
30,797.88,205.09,NA,932.83,894.00
32,798.19,209.93,NA,938.50,896.33
34,798.50,214.77,NA,942.50,891.50
36,798.81,219.60,NA,958.33,895.17
38,799.12,224.43,NA,1028.67,899.00
40,799.43,229.27,NA,1404.50,902.50
42,799.74,234.09,NA,2826.33,905.17
44,800.04,238.92,NA,4845.33,917.67
46,800.35,243.75,NA,5465.00,898.00
48,800.66,248.57,1514.94,5159.33,908.00
50,800.97,253.39,909.37,4693.17,908.17
52,801.28,258.21,548.29,4211.00,909.00
54,801.59,263.02,371.03,3784.33,908.50
56,801.90,267.83,185.45,3390.17,899.67
58,802.21,272.65,30.26,3087.83,902.00
60,802.52,277.46,0.00,2836.17,905.67
62,802.83,282.26,0.00,2655.50,911.17
64,803.14,287.07,0.00,2494.83,911.83
66,803.45,291.87,0.00,2364.50,909.33
68,803.76,296.67,0.00,2264.33,908.17
70,804.07,301.47,0.00,2147.33,901.50
72,804.38,306.26,0.00,2083.83,903.33
74,804.69,311.06,0.00,2032.33,900.17
76,805.00,315.85,0.00,1972.17,903.33
78,805.31,320.64,0.00,1944.00,903.00
80,805.62,325.42,0.00,1894.17,903.67
82,805.93,330.21,0.00,1850.83,905.50
84,806.24,334.99,0.00,1819.67,893.67
86,806.55,339.77,0.00,1794.00,903.83
88,806.86,344.55,0.00,1772.83,904.83
90,807.17,349.32,0.00,1771.33,902.00
92,807.48,354.10,5.02,1786.33,896.83
94,807.80,358.87,10.70,1795.00,908.67
96,808.11,363.63,27.28,1802.67,901.83
98,808.42,368.40,61.34,1834.33,895.83
100,808.73,373.16,106.83,1890.83,899.67
102,809.04,377.93,151.69,1953.83,895.67
104,809.35,382.68,240.03,2088.00,897.50
106,809.66,387.44,421.80,2366.67,898.00
108,809.98,392.19,715.34,2993.50,898.33
110,810.29,396.95,1568.79,4778.67,901.67
112,810.60,401.70,4807.08,9276.17,897.33
114,810.91,406.44,10585.16,14559.33,905.00
116,811.22,411.19,8646.98,13049.00,905.67
118,811.54,415.93,3217.29,7349.00,905.17
120,811.85,420.67,1215.91,4009.83,896.50
122,812.16,425.41,647.70,2750.17,901.17
124,812.47,430.14,438.89,2310.50,902.67
126,812.79,434.87,333.52,2120.83,897.50
128,813.10,439.60,324.16,2085.50,892.00
130,813.41,444.33,364.00,2179.33,900.50
132,813.72,449.06,530.79,2547.17,890.33
134,814.04,453.78,1118.55,3662.00,904.00
136,814.35,458.50,3020.96,6013.17,894.00
138,814.66,463.22,4872.98,7700.33,894.83
140,814.98,467.93,3312.41,6332.50,898.17
142,815.29,472.65,1378.35,3986.00,896.00
144,815.60,477.36,661.01,2708.17,899.50
146,815.92,482.06,387.40,2127.67,888.00
148,816.23,486.77,240.34,1863.67,901.83
150,816.54,491.47,162.19,1725.67,908.17
152,816.86,496.17,115.63,1622.83,892.17
154,817.17,500.87,66.33,1545.83,899.50
156,817.48,505.57,52.56,1496.00,890.00
158,817.80,510.26,40.40,1460.50,892.50
160,818.11,514.95,23.60,1433.67,902.17
162,818.42,519.64,2.50,1405.00,904.17
164,818.74,524.32,0.00,1360.50,893.83
166,819.05,529.00,0.00,1345.33,902.67
168,819.37,533.68,0.00,1338.67,897.33
170,819.68,538.36,0.00,1324.33,899.50
172,819.99,543.04,0.00,1323.83,903.17
174,820.31,547.71,0.00,1326.50,898.50
176,820.62,552.38,0.00,1325.00,892.50
178,820.94,557.05,0.00,1334.17,899.50
180,821.25,561.71,0.00,1339.50,886.67
182,821.57,566.37,0.15,1362.50,888.67
184,821.88,571.03,8.92,1398.50,894.67
186,822.20,575.69,42.03,1456.17,898.33
188,822.51,580.34,90.04,1547.67,895.50
190,822.83,584.99,169.16,1685.33,899.17
192,823.14,589.64,301.06,1872.33,897.83
194,823.46,594.29,395.37,2004.50,894.50
196,823.77,598.93,386.03,2033.00,894.67
198,824.09,603.57,375.93,2056.17,891.50
200,824.40,608.21,444.86,2196.83,894.67
202,824.72,612.85,614.88,2512.50,899.33
204,825.03,617.48,958.77,3152.17,897.33
206,825.35,622.11,1616.00,4401.50,904.67
208,825.66,626.74,2960.30,6753.17,900.00
210,825.98,631.36,5434.46,10304.67,897.50
212,826.29,635.99,8132.24,13468.83,898.33
214,826.61,640.61,7657.35,13003.17,896.67
216,826.92,645.22,4772.79,9542.00,899.67
218,827.24,649.84,2704.03,6375.00,892.83
220,827.56,654.45,1682.20,4516.00,902.00
222,827.87,659.06,1144.83,3503.17,899.00
224,828.19,663.67,838.02,2951.00,900.33
226,828.50,668.27,642.53,2626.33,911.00
228,828.82,672.87,519.86,2418.83,902.00
230,829.13,677.47,462.23,2317.17,894.67
232,829.45,682.06,447.34,2288.50,893.00
234,829.77,686.66,445.21,2346.17,937.33
236,830.08,691.25,492.99,2406.00,898.50
238,830.40,695.83,616.69,2625.83,896.67
240,830.72,700.42,809.20,2948.50,894.50
242,831.03,705.00,1097.87,3358.33,885.83
244,831.35,709.58,1320.51,3655.33,898.33
246,831.66,714.15,1240.02,3538.17,887.00
248,831.98,718.73,912.22,3116.17,896.67
250,832.30,723.30,594.72,2641.17,892.17
252,832.61,727.87,379.08,2289.17,899.83
254,832.93,732.43,255.19,2049.50,879.50
256,833.25,736.99,166.41,1922.83,901.50
258,833.56,741.55,120.49,1835.17,891.67
260,833.88,746.11,90.14,1782.50,889.00
262,834.20,750.66,54.49,1734.83,891.50
264,834.51,755.22,42.98,1722.33,897.33
266,834.83,759.76,16.66,1687.67,895.50
268,835.15,764.31,6.98,1679.33,899.67
270,835.47,768.85,1.67,1661.33,886.83
272,835.78,773.39,1.00,1663.67,891.67
274,836.10,777.93,8.85,1670.50,889.00
276,836.42,782.46,0.00,1657.17,895.83
278,836.73,787.00,0.00,1658.67,890.33
280,837.05,791.52,0.00,1656.33,888.00
282,837.37,796.05,4.35,1678.83,901.50
284,837.69,800.57,8.54,1678.50,892.33
286,838.00,805.09,24.46,1696.17,892.00
288,838.32,809.61,31.36,1710.83,893.00
290,838.64,814.13,43.50,1742.00,901.17
292,838.95,818.64,75.54,1791.00,892.17
294,839.27,823.15,128.10,1886.00,891.83
296,839.59,827.65,226.21,2069.67,897.17
298,839.91,832.15,392.14,2409.00,889.83
300,840.22,836.65,675.22,3165.83,908.33
302,840.54,841.15,1671.62,5058.33,888.67
304,840.86,845.65,4213.21,8228.83,901.50
306,841.18,850.14,5424.29,9458.00,895.17
308,841.50,854.63,3056.77,7089.50,914.50
310,841.81,859.11,1535.82,4846.00,896.83
312,842.13,863.60,1351.27,4255.83,898.00
314,842.45,868.07,1694.42,4565.00,892.83
316,842.77,872.55,2061.84,5060.33,901.83
318,843.08,877.03,2266.84,5355.33,908.00
320,843.40,881.50,2112.54,5112.00,889.67
322,843.72,885.97,1744.74,4569.33,900.33
324,844.04,890.43,1266.71,3810.33,892.83
326,844.36,894.89,848.66,3120.33,896.00
328,844.67,899.35,531.84,2584.67,898.67
330,844.99,903.81,323.99,2208.67,890.17
332,845.31,908.26,215.80,2006.17,897.00
334,845.63,912.71,146.20,1872.33,895.50
336,845.95,917.16,109.61,1806.67,897.67
338,846.27,921.61,89.26,1847.17,978.17
340,846.58,926.05,96.54,1767.67,890.33
342,846.90,930.49,110.34,1803.50,898.50
344,847.22,934.92,155.79,1881.83,893.50
346,847.54,939.36,240.31,2035.83,885.33
348,847.86,943.79,389.49,2304.83,889.67
350,848.18,948.21,686.03,2724.67,889.17
352,848.49,952.64,914.20,3021.33,892.17
354,848.81,957.06,850.25,3008.33,885.00
356,849.13,961.48,769.50,3076.67,904.67
358,849.45,965.89,936.19,3625.17,906.50
360,849.77,970.31,1913.37,5395.83,894.67
362,850.09,974.71,4420.32,8337.00,894.83
364,850.40,979.12,5151.96,8953.67,899.33
366,850.72,983.52,2410.23,6063.50,909.17
368,851.04,987.92,833.25,3506.17,888.00
370,851.36,992.32,389.76,2418.50,889.00
372,851.68,996.72,230.61,2006.33,895.17
374,852.00,1001.11,155.76,1841.00,889.67
376,852.32,1005.50,122.90,1771.83,883.17
378,852.63,1009.88,128.90,1796.00,904.83
380,852.95,1014.26,157.54,1824.17,895.83
382,853.27,1018.64,210.11,1889.50,899.00
384,853.59,1023.02,224.31,1886.83,890.33
386,853.91,1027.39,162.40,1799.67,883.33
388,854.23,1031.76,89.44,1704.50,892.83
390,854.55,1036.13,51.88,1636.00,895.83
392,854.87,1040.49,42.70,1607.67,892.83
394,855.18,1044.86,35.59,1593.00,896.50
396,855.50,1049.21,37.06,1579.00,892.67
398,855.82,1053.57,27.44,1574.17,895.17
400,856.14,1057.92,0.74,1520.67,893.83
402,856.46,1062.27,0.00,1509.67,892.33
404,856.78,1066.62,0.00,1492.00,883.67
406,857.10,1070.96,0.00,1496.50,884.50
408,857.42,1075.30,0.00,1492.67,901.00
410,857.74,1079.64,0.00,1487.83,889.50
412,858.06,1083.97,0.00,1498.00,889.67
414,858.37,1088.30,0.00,1500.17,887.67
416,858.69,1092.63,0.00,1522.50,889.00
418,859.01,1096.95,0.00,1551.00,886.00
420,859.33,1101.27,3.47,1605.67,894.83
422,859.65,1105.59,26.91,1641.33,891.67
424,859.97,1109.91,51.38,1701.00,883.33
426,860.29,1114.22,99.86,1822.50,892.50
428,860.61,1118.53,182.71,1996.00,886.33
430,860.93,1122.84,345.04,2325.17,886.67
432,861.25,1127.14,622.46,2876.17,897.83
434,861.56,1131.44,1184.09,3765.33,891.00
436,861.88,1135.74,1933.77,4739.50,894.67
438,862.20,1140.03,2173.65,5017.33,893.83
440,862.52,1144.32,1644.34,4415.83,895.17
442,862.84,1148.61,881.50,3393.67,901.50
444,863.16,1152.89,424.22,2628.00,889.00
446,863.48,1157.17,206.15,2212.83,890.33
448,863.80,1161.45,86.48,1998.67,892.67
450,864.12,1165.73,12.25,1905.67,891.83
452,864.44,1170.00,0.00,1856.50,890.33
454,864.76,1174.27,0.00,1867.33,891.17
456,865.07,1178.53,0.07,1904.33,886.33
458,865.39,1182.80,21.07,1996.50,897.00
460,865.71,1187.06,75.14,2054.00,890.33
462,866.03,1191.31,118.13,2158.83,897.17
464,866.35,1195.57,169.24,2286.67,891.33
466,866.67,1199.82,303.23,2553.00,897.67
468,866.99,1204.06,557.89,2988.17,895.00
470,867.31,1208.31,954.84,3586.33,898.33
472,867.63,1212.55,1341.81,4134.83,894.00
474,867.95,1216.79,1495.26,4374.50,887.00
476,868.27,1221.02,1439.08,4342.33,894.17
478,868.58,1225.25,1209.08,4028.00,887.67
480,868.90,1229.48,965.82,3675.67,897.67
482,869.22,1233.71,745.05,3326.17,896.67
484,869.54,1237.93,556.85,3044.17,902.33
486,869.86,1242.15,394.82,2796.17,893.83
488,870.18,1246.36,337.72,2698.33,885.00
490,870.50,1250.58,334.46,2697.67,892.17
492,870.82,1254.79,396.89,2808.67,905.50
494,871.14,1258.99,454.74,2910.17,894.33
496,871.46,1263.20,539.99,3086.00,894.00
498,871.78,1267.40,686.54,3363.83,890.00
500,872.10,1271.59,963.94,3871.83,893.83
502,872.41,1275.79,1467.18,4820.50,893.50
504,872.73,1279.98,2293.47,6603.17,892.00
506,873.05,1284.17,4064.41,10373.83,902.17
508,873.37,1288.35,8747.00,17915.50,878.50
510,873.69,1292.53,17470.43,27947.33,889.67
512,874.01,1296.71,20571.80,31005.83,891.50
514,874.33,1300.88,13178.72,23530.17,885.00
516,874.65,1305.06,6710.88,14760.67,894.00
518,874.97,1309.22,3833.56,9455.33,888.67
520,875.29,1313.39,2488.51,6714.33,894.33
522,875.60,1317.55,1696.70,5238.17,894.83
524,875.92,1321.71,1240.13,4425.83,892.83
526,876.24,1325.87,998.62,4002.83,897.83
528,876.56,1330.02,831.02,3727.17,894.00
530,876.88,1334.17,778.29,3633.00,897.67
532,877.20,1338.32,739.78,3552.67,887.67
534,877.52,1342.46,691.08,3504.00,887.33
536,877.84,1346.60,694.20,3533.50,894.33
538,878.16,1350.73,781.56,3667.33,891.50
540,878.47,1354.87,863.26,3863.33,891.83
542,878.79,1359.00,1078.95,4352.17,890.17
544,879.11,1363.13,1623.89,5363.50,891.00
546,879.43,1367.25,2962.51,7172.83,891.83
548,879.75,1371.37,4557.80,8911.33,893.00
550,880.07,1375.49,4266.72,8967.00,890.17
552,880.39,1379.60,3309.14,8204.67,889.67
554,880.71,1383.71,3845.71,8671.33,892.67
556,881.03,1387.82,4722.39,9195.67,890.00
558,881.34,1391.93,3664.90,8015.33,880.83
560,881.66,1396.03,2151.90,6216.67,890.67
562,881.98,1400.13,1517.66,5185.17,897.17
564,882.30,1404.22,1300.17,4699.83,893.50
566,882.62,1408.31,1286.25,4595.00,887.00
568,882.94,1412.40,1326.17,4662.00,897.50
570,883.26,1416.49,1395.93,4782.50,892.67
572,883.57,1420.57,1549.48,5004.50,895.00
574,883.89,1424.65,1705.27,5211.33,883.33
576,884.21,1428.73,1834.92,5417.00,894.33
578,884.53,1432.80,1863.93,5466.83,899.17
580,884.85,1436.87,1847.53,5423.33,890.33
582,885.17,1440.93,1715.41,5230.17,882.67
584,885.49,1445.00,1537.72,4989.50,888.33
586,885.80,1449.06,1273.85,4618.50,888.00
588,886.12,1453.11,1050.76,4301.00,898.83
590,886.44,1457.17,876.17,4031.50,892.83
592,886.76,1461.22,720.64,3796.83,891.17
594,887.08,1465.26,596.17,3623.17,898.00
596,887.40,1469.31,494.44,3467.17,887.00
598,887.71,1473.35,451.96,3398.17,887.67
600,888.03,1477.38,409.14,3339.33,892.50
602,888.35,1481.42,377.15,3297.17,896.17
604,888.67,1485.45,336.92,3242.50,893.00
606,888.99,1489.48,264.73,3148.33,890.67
608,889.31,1493.50,240.46,3115.67,894.00
610,889.62,1497.52,198.86,3057.33,891.17
612,889.94,1501.54,155.56,3001.67,883.67
614,890.26,1505.56,115.64,2961.33,892.83
616,890.58,1509.57,103.03,2939.83,890.50
618,890.90,1513.57,89.40,2922.17,886.00
620,891.21,1517.58,57.42,2896.00,894.33
622,891.53,1521.58,49.45,2882.17,890.33
624,891.85,1525.58,40.38,2859.33,889.33
626,892.17,1529.57,54.77,2870.67,894.00
628,892.49,1533.57,27.42,2830.00,892.67
630,892.80,1537.56,17.56,2798.33,884.17
632,893.12,1541.54,5.20,2765.83,889.00
634,893.44,1545.52,15.06,2770.67,892.17
636,893.76,1549.50,0.00,2722.50,883.50
638,894.07,1553.48,0.00,2709.00,895.83
640,894.39,1557.45,0.00,2685.67,886.33
642,894.71,1561.42,0.00,2698.33,897.17
644,895.03,1565.39,1.01,2687.50,883.17
646,895.34,1569.35,28.81,2734.67,898.33
648,895.66,1573.31,82.73,2763.17,886.00
650,895.98,1577.26,127.96,2812.67,884.17
652,896.30,1581.22,157.60,2839.83,883.67
654,896.61,1585.17,170.82,2848.83,886.67
656,896.93,1589.11,196.61,2875.67,893.83
658,897.25,1593.06,190.63,2850.00,886.83
660,897.57,1597.00,181.74,2835.00,892.67
662,897.88,1600.93,188.68,2834.50,894.67
664,898.20,1604.87,208.24,2848.33,891.17
666,898.52,1608.80,234.72,2887.17,882.67
668,898.84,1612.72,324.25,3028.83,879.00
670,899.15,1616.65,532.77,3316.17,893.33
672,899.47,1620.57,897.84,3702.67,884.00
674,899.79,1624.49,1126.73,3969.67,892.67
676,900.10,1628.40,1140.92,4130.33,887.67
678,900.42,1632.31,1289.26,4746.83,896.67
680,900.74,1636.22,1965.13,6854.83,882.67
682,901.05,1640.12,4692.37,13090.00,904.50
684,901.37,1644.02,17434.56,28461.50,890.00
686,901.69,1647.92,39246.62,43864.50,897.00
688,902.00,1651.82,22866.51,33065.00,891.67
690,902.32,1655.71,5167.85,14333.50,886.00
692,902.64,1659.60,1714.90,6722.00,886.00
694,902.95,1663.48,1105.14,4357.67,892.50
696,903.27,1667.36,772.37,3446.67,883.00
698,903.59,1671.24,506.80,3047.50,894.83
700,903.90,1675.11,327.37,2782.50,893.33
702,904.22,1678.99,262.87,2650.17,882.83
704,904.54,1682.85,211.12,2580.67,904.00
706,904.85,1686.72,215.06,2549.00,885.67
708,905.17,1690.58,222.58,2541.00,888.00
710,905.49,1694.44,246.86,2551.00,885.33
712,905.80,1698.29,262.12,2546.50,886.33
714,906.12,1702.15,262.29,2534.17,889.50
716,906.43,1706.00,223.20,2491.33,892.50
718,906.75,1709.84,190.65,2461.50,897.33
720,907.07,1713.68,217.99,2476.00,888.67
722,907.38,1717.52,327.45,2577.33,891.00
724,907.70,1721.36,397.86,2642.33,891.50
726,908.01,1725.19,421.76,2681.83,891.17
728,908.33,1729.02,464.64,2746.83,890.50
730,908.65,1732.85,534.45,2850.83,890.00
732,908.96,1736.67,697.38,3104.83,894.00
734,909.28,1740.49,1007.39,3639.00,888.00
736,909.59,1744.30,1632.84,4747.83,895.00
738,909.91,1748.12,3307.68,7047.50,886.67
740,910.22,1751.93,6549.31,10388.83,893.17
742,910.54,1755.73,9220.75,12789.33,915.17
744,910.85,1759.54,8489.92,12359.00,895.50
746,911.17,1763.34,6244.76,10231.17,890.33
748,911.49,1767.13,4415.82,7992.83,891.00
750,911.80,1770.93,3024.68,6114.33,887.33
752,912.12,1774.72,1896.00,4619.33,892.83
754,912.43,1778.50,1127.51,3559.17,885.67
756,912.75,1782.29,681.38,2904.17,886.00
758,913.06,1786.07,427.40,2518.50,884.00
760,913.38,1789.84,262.73,2270.67,891.83
762,913.69,1793.62,179.72,2140.67,896.50
764,914.01,1797.39,90.34,1997.67,890.00
766,914.32,1801.15,65.46,1945.67,887.67
768,914.64,1804.92,15.52,1877.50,887.33
770,914.95,1808.68,0.64,1840.67,892.50
772,915.26,1812.44,0.00,1812.17,893.67
774,915.58,1816.19,0.88,1804.83,885.33
776,915.89,1819.94,14.94,1819.17,892.17
778,916.21,1823.69,43.38,1822.33,891.00
780,916.52,1827.43,60.17,1831.50,899.50
782,916.84,1831.17,47.74,1790.00,882.17
784,917.15,1834.91,29.40,1758.17,879.17
786,917.47,1838.64,7.80,1732.83,889.33
788,917.78,1842.38,1.18,1703.83,890.50
790,918.09,1846.10,1.94,1682.33,884.17
792,918.41,1849.83,5.93,1674.50,890.17
794,918.72,1853.55,0.16,1647.17,883.67
796,919.04,1857.27,0.00,1625.50,886.33
798,919.35,1860.98,0.00,1615.00,887.67
800,919.66,1864.69,0.00,1608.83,890.00
802,919.98,1868.40,0.00,1601.83,895.50
804,920.29,1872.11,0.75,1584.83,886.17
806,920.60,1875.81,0.00,1572.50,889.33
808,920.92,1879.51,8.57,1568.17,884.33
810,921.23,1883.20,2.81,1561.00,893.50
812,921.55,1886.90,8.84,1543.00,881.00
814,921.86,1890.58,11.75,1546.83,893.00
816,922.17,1894.27,1.44,1531.50,895.33
818,922.49,1897.95,0.00,1508.17,890.00
820,922.80,1901.63,3.01,1503.67,888.50
822,923.11,1905.31,0.00,1488.50,890.33
824,923.42,1908.98,5.77,1490.50,891.17
826,923.74,1912.65,0.10,1478.83,894.33
828,924.05,1916.31,0.00,1459.33,885.00
830,924.36,1919.98,1.16,1453.83,884.67
832,924.68,1923.64,6.06,1448.67,885.33
834,924.99,1927.29,5.47,1443.17,887.67
836,925.30,1930.94,11.28,1433.50,878.17
838,925.61,1934.59,18.46,1441.67,889.50
840,925.93,1938.24,13.89,1431.17,890.50
842,926.24,1941.88,26.99,1439.50,889.33
844,926.55,1945.52,47.96,1446.83,884.17
846,926.86,1949.16,50.57,1442.67,889.50
848,927.18,1952.79,79.06,1454.50,884.67
850,927.49,1956.42,58.77,1433.17,886.17
852,927.80,1960.05,41.69,1416.17,893.83
854,928.11,1963.67,42.78,1402.00,887.00
856,928.42,1967.29,25.63,1383.33,893.67
858,928.74,1970.91,38.03,1383.50,888.33
860,929.05,1974.52,38.55,1367.50,882.00
862,929.36,1978.13,60.39,1387.67,886.33
864,929.67,1981.74,79.56,1396.17,888.17
866,929.98,1985.35,90.35,1395.50,886.83
868,930.29,1988.95,77.04,1380.67,890.83
870,930.61,1992.54,70.04,1360.17,883.83
872,930.92,1996.14,42.40,1332.00,891.83
874,931.23,1999.73,28.86,1309.83,889.67
876,931.54,2003.32,16.44,1288.67,889.67
878,931.85,2006.90,14.52,1273.83,888.00
880,932.16,2010.48,22.47,1266.50,884.33
882,932.47,2014.06,8.28,1249.00,887.33
884,932.78,2017.63,8.01,1243.33,888.50
886,933.09,2021.21,9.98,1236.83,888.00
888,933.41,2024.77,0.63,1219.50,889.00
890,933.72,2028.34,0.00,1219.00,897.67
892,934.03,2031.90,2.67,1208.83,889.33
894,934.34,2035.46,0.00,1196.00,895.83
896,934.65,2039.01,6.47,1191.83,883.50
898,934.96,2042.57,0.00,1189.33,895.50
900,935.27,2046.11,4.23,1194.67,896.67
902,935.58,2049.66,8.28,1172.33,879.00
904,935.89,2053.20,28.30,1189.17,889.67
906,936.20,2056.74,21.63,1177.67,887.50
908,936.51,2060.28,6.21,1168.67,888.83
910,936.82,2063.81,0.00,1151.00,891.67
912,937.13,2067.34,0.69,1147.50,891.33
914,937.44,2070.86,0.00,1133.00,886.67
916,937.75,2074.39,0.00,1123.50,881.33
918,938.06,2077.91,7.08,1127.67,883.00
920,938.37,2081.42,4.52,1123.50,885.33
922,938.68,2084.94,4.84,1120.83,885.17
924,938.99,2088.45,7.76,1120.50,886.33
926,939.30,2091.95,17.03,1124.17,888.00
928,939.60,2095.46,18.00,1120.17,887.67
930,939.91,2098.96,27.76,1133.00,892.17
932,940.22,2102.45,44.00,1140.00,888.67
934,940.53,2105.95,56.70,1137.33,880.50
936,940.84,2109.44,79.50,1157.83,887.00
938,941.15,2112.92,82.32,1154.33,888.00
940,941.46,2116.41,76.42,1139.83,883.17
942,941.77,2119.89,55.69,1128.33,892.00
944,942.07,2123.37,30.42,1093.17,883.00
946,942.38,2126.84,20.62,1090.00,891.17
948,942.69,2130.31,1.61,1062.17,890.67
950,943.00,2133.78,0.23,1054.17,888.00
952,943.31,2137.24,0.00,1050.00,890.33
954,943.62,2140.70,0.00,1045.17,891.50
956,943.92,2144.16,1.73,1042.00,886.33
958,944.23,2147.62,0.00,1041.83,894.17
960,944.54,2151.07,0.23,1041.83,895.00
962,944.85,2154.52,4.77,1048.83,900.17
964,945.16,2157.96,2.79,1038.17,894.50
966,945.46,2161.40,12.21,1038.17,890.17
968,945.77,2164.84,8.97,1023.83,880.33
970,946.08,2168.28,2.31,1022.50,887.33
972,946.39,2171.71,0.86,1016.67,884.67
974,946.69,2175.14,0.00,1013.83,889.33
976,947.00,2178.57,0.00,1009.67,885.83
978,947.31,2181.99,0.00,1004.50,881.83
980,947.61,2185.41,0.00,1010.17,892.00
982,947.92,2188.82,2.08,1010.67,888.67
984,948.23,2192.24,0.81,1002.00,881.17
986,948.53,2195.65,0.00,1002.83,889.17
988,948.84,2199.05,3.07,996.17,874.83
990,949.15,2202.46,8.53,1011.00,888.33
992,949.45,2205.86,12.73,1016.33,888.33
994,949.76,2209.25,2.91,1005.33,885.67
996,950.07,2212.65,13.26,1015.00,885.33
998,950.37,2216.04,23.39,1018.33,883.00
1000,950.68,2219.43,25.95,1026.00,888.33
1002,950.98,2222.81,50.78,1046.33,889.17
1004,951.29,2226.19,54.76,1044.17,885.00
1006,951.60,2229.57,64.08,1049.67,882.33
1008,951.90,2232.94,64.59,1051.83,885.33
1010,952.21,2236.32,75.14,1060.33,885.67
1012,952.51,2239.68,56.36,1051.17,891.33
1014,952.82,2243.05,63.70,1044.50,878.00
1016,953.12,2246.41,65.62,1062.17,894.17
1018,953.43,2249.77,78.62,1077.67,898.50
1020,953.73,2253.12,81.75,1075.00,894.83
1022,954.04,2256.48,114.19,1084.83,878.67
1024,954.34,2259.83,132.24,1115.83,894.50
1026,954.65,2263.17,172.49,1134.00,883.33
1028,954.95,2266.51,190.53,1147.67,889.17
1030,955.26,2269.85,206.78,1164.33,894.17
1032,955.56,2273.19,188.13,1149.67,892.67
1034,955.87,2276.52,166.42,1129.50,889.33
1036,956.17,2279.85,142.49,1114.17,894.00
1038,956.48,2283.18,114.50,1078.67,881.17
1040,956.78,2286.50,82.95,1055.50,884.00
1042,957.08,2289.82,60.95,1029.00,875.67
1044,957.39,2293.14,37.66,1021.50,888.00
1046,957.69,2296.45,29.78,1007.17,881.67
1048,957.99,2299.76,15.63,1009.00,897.67
1050,958.30,2303.07,15.54,1000.50,889.33
1052,958.60,2306.38,7.69,993.00,887.00
1054,958.91,2309.68,4.92,989.17,888.17
1056,959.21,2312.98,8.46,982.33,879.00
1058,959.51,2316.27,0.00,984.00,889.00
1060,959.82,2319.56,0.00,988.83,894.83
1062,960.12,2322.85,18.44,991.67,881.83
1064,960.42,2326.14,15.80,989.83,886.00
1066,960.72,2329.42,11.09,989.67,886.67
1068,961.03,2332.70,10.20,992.33,889.33
1070,961.33,2335.97,17.05,998.00,890.67
1072,961.63,2339.25,29.21,1000.00,884.67
1074,961.93,2342.52,34.84,1008.17,889.00
1076,962.24,2345.78,41.38,1008.67,885.17
1078,962.54,2349.05,53.21,1018.00,886.67
1080,962.84,2352.31,59.03,1023.17,889.00
1082,963.14,2355.56,63.22,1021.17,884.83
1084,963.45,2358.82,61.88,1020.67,884.33
1086,963.75,2362.07,58.86,1026.00,891.83
1088,964.05,2365.32,54.34,1030.00,901.50
1090,964.35,2368.56,61.22,1018.33,886.83
1092,964.65,2371.80,52.46,1021.50,893.17
1094,964.95,2375.04,35.03,1005.33,888.33
1096,965.25,2378.27,38.94,1002.50,884.33
1098,965.56,2381.51,38.78,1007.67,892.67
1100,965.86,2384.73,47.05,1007.83,888.00
1102,966.16,2387.96,38.51,1003.50,888.17
1104,966.46,2391.18,50.48,1020.33,896.00
1106,966.76,2394.40,53.17,1010.00,885.67
1108,967.06,2397.62,76.42,1029.83,890.67
1110,967.36,2400.83,80.54,1023.83,883.33
1112,967.66,2404.04,89.79,1043.33,897.17
1114,967.96,2407.25,88.80,1030.50,883.83
1116,968.26,2410.45,92.45,1036.17,886.67
1118,968.56,2413.65,97.92,1034.67,885.00
1120,968.86,2416.85,111.96,1053.00,895.50
1122,969.16,2420.04,98.34,1041.33,890.67
1124,969.46,2423.23,88.61,1029.83,886.00
1126,969.76,2426.42,97.16,1036.50,889.67
1128,970.06,2429.60,98.30,1026.33,879.33
1130,970.36,2432.79,75.60,1020.50,887.67
1132,970.66,2435.96,83.38,1022.50,885.67
1134,970.96,2439.14,84.73,1017.83,882.67
1136,971.26,2442.31,79.02,1022.83,893.00
1138,971.56,2445.48,69.41,1013.17,887.33
1140,971.86,2448.65,39.60,997.00,889.67
1142,972.16,2451.81,54.27,1006.17,891.17
1144,972.45,2454.97,63.17,1006.67,889.50
1146,972.75,2458.13,50.60,999.67,889.33
1148,973.05,2461.28,45.54,994.00,886.17
1150,973.35,2464.43,51.52,1002.50,892.50
1152,973.65,2467.58,56.19,996.50,884.67
1154,973.95,2470.72,51.27,1000.00,891.33
1156,974.24,2473.86,54.73,999.00,889.00
1158,974.54,2477.00,52.27,994.67,886.67
1160,974.84,2480.13,60.37,999.83,886.67
1162,975.14,2483.27,63.02,999.67,886.33
1164,975.43,2486.40,61.45,992.00,880.83
1166,975.73,2489.52,63.75,998.17,886.00
1168,976.03,2492.64,58.77,995.17,886.33
1170,976.33,2495.76,56.80,995.83,888.00
1172,976.62,2498.88,51.23,990.83,886.67
1174,976.92,2501.99,46.60,992.33,892.17
1176,977.22,2505.10,55.79,993.50,889.00
1178,977.51,2508.21,47.10,987.50,887.67
1180,977.81,2511.31,43.48,984.17,886.33
1182,978.11,2514.41,43.90,986.67,890.33
1184,978.40,2517.51,53.31,989.17,889.67
1186,978.70,2520.61,44.66,982.33,887.67
1188,979.00,2523.70,41.84,987.83,893.83
1190,979.29,2526.79,36.42,976.50,886.33
1192,979.59,2529.87,39.64,978.00,887.00
1194,979.88,2532.95,18.47,962.33,884.17
1196,980.18,2536.03,24.55,972.17,891.00
1198,980.48,2539.11,10.70,972.33,898.00
1200,980.77,2542.18,1.69,958.00,890.00
1202,981.07,2545.25,1.61,962.67,895.17
1204,981.36,2548.32,0.10,955.33,889.33
1206,981.66,2551.38,0.00,959.83,894.50
1208,981.95,2554.44,10.86,958.00,886.67
1210,982.25,2557.50,1.07,965.17,898.67
1212,982.54,2560.56,0.00,962.17,897.17
1214,982.84,2563.61,6.68,969.33,900.17
1216,983.13,2566.66,18.43,968.17,894.00
1218,983.43,2569.70,19.00,968.83,892.83
1220,983.72,2572.74,12.25,969.50,896.17
1222,984.01,2575.78,34.29,976.67,890.83
1224,984.31,2578.82,37.14,973.83,887.00
1226,984.60,2581.85,54.95,988.00,893.00
1228,984.90,2584.88,71.38,984.33,883.83
1230,985.19,2587.91,58.64,988.83,893.00
1232,985.48,2590.93,59.42,990.50,892.67
1234,985.78,2593.96,63.95,992.17,893.33
1236,986.07,2596.97,54.31,987.00,892.00
1238,986.36,2599.99,45.39,991.00,899.00
1240,986.66,2603.00,48.63,994.67,901.67
1242,986.95,2606.01,55.28,990.83,895.67
1244,987.24,2609.01,51.31,987.33,894.17
1246,987.54,2612.02,49.07,972.50,879.17
1248,987.83,2615.02,61.31,995.17,895.33
1250,988.12,2618.01,71.81,995.33,892.67
1252,988.41,2621.01,73.83,995.67,894.83
1254,988.71,2624.00,85.27,992.00,887.67
1256,989.00,2626.99,62.00,993.67,896.83
1258,989.29,2629.97,30.63,980.67,895.33
1260,989.58,2632.95,16.72,972.50,894.00
1262,989.87,2635.93,12.48,970.83,896.00
1264,990.16,2638.91,8.00,961.33,889.67
1266,990.46,2641.88,0.21,964.50,896.17
1268,990.75,2644.85,0.00,969.67,902.17
1270,991.04,2647.81,0.00,957.50,892.33
1272,991.33,2650.78,0.51,961.17,891.83
1274,991.62,2653.74,11.01,968.33,894.67
1276,991.91,2656.70,0.00,965.17,895.17
1278,992.20,2659.65,0.00,964.83,894.83
1280,992.49,2662.60,12.22,964.17,884.00
1282,992.78,2665.55,13.95,977.67,900.17
1284,993.07,2668.50,26.97,980.33,898.00
1286,993.36,2671.44,23.22,980.50,895.33
1288,993.65,2674.38,1.28,972.17,896.83
1290,993.94,2677.31,11.81,978.50,898.17
1292,994.23,2680.25,2.79,972.17,892.83
1294,994.52,2683.18,0.00,968.50,894.67
1296,994.81,2686.10,0.00,970.17,894.00
1298,995.10,2689.03,0.03,977.00,896.00
1300,995.39,2691.95,3.55,977.67,892.83
1302,995.68,2694.87,6.49,983.33,894.83
1304,995.97,2697.78,27.58,997.17,897.00
1306,996.26,2700.70,53.15,999.50,887.33
1308,996.55,2703.61,82.15,1020.67,894.17
1310,996.84,2706.51,102.80,1038.00,899.00
1312,997.13,2709.42,145.56,1058.83,896.67
1314,997.41,2712.32,225.52,1097.83,900.67
1316,997.70,2715.21,354.37,1138.67,892.67
1318,997.99,2718.11,486.22,1185.00,892.33
1320,998.28,2721.00,626.97,1230.67,889.50
1322,998.57,2723.89,703.46,1266.33,903.17
1324,998.86,2726.77,743.45,1261.83,886.33
1326,999.14,2729.66,672.98,1248.67,892.33
1328,999.43,2732.54,541.42,1206.67,891.00
1330,999.72,2735.41,446.26,1178.83,894.33
1332,1000.01,2738.29,339.15,1149.33,903.17
1334,1000.29,2741.16,255.97,1111.00,896.83
1336,1000.58,2744.03,207.02,1082.50,888.17
1338,1000.87,2746.89,175.69,1082.17,898.67
1340,1001.15,2749.75,117.27,1055.67,894.00
1342,1001.44,2752.61,115.19,1055.33,894.17
1344,1001.73,2755.47,96.85,1048.17,892.83
1346,1002.01,2758.32,79.65,1042.67,892.50
1348,1002.30,2761.17,103.69,1063.00,902.33
1350,1002.59,2764.02,98.74,1063.67,904.00
1352,1002.87,2766.86,124.29,1063.17,894.00
1354,1003.16,2769.70,156.82,1073.17,893.83
1356,1003.44,2772.54,159.51,1072.67,892.83
1358,1003.73,2775.38,185.21,1082.83,893.17
1360,1004.01,2778.21,200.91,1076.83,882.67
1362,1004.30,2781.04,207.49,1086.50,892.83
1364,1004.58,2783.87,177.73,1074.17,889.00
1366,1004.87,2786.69,120.75,1057.00,884.83
1368,1005.15,2789.51,59.73,1052.17,896.83
1370,1005.44,2792.33,32.30,1047.00,898.50
1372,1005.72,2795.14,0.27,1033.83,900.33
1374,1006.01,2797.95,1.04,1036.33,898.00
1376,1006.29,2800.76,0.00,1024.67,890.83
1378,1006.58,2803.57,0.00,1036.83,906.83
1380,1006.86,2806.37,0.00,1029.67,892.83
1382,1007.14,2809.17,0.00,1029.67,892.50
1384,1007.43,2811.97,0.00,1027.00,891.33
1386,1007.71,2814.77,0.00,1038.17,885.00
1388,1008.00,2817.56,0.00,1041.33,893.83
1390,1008.28,2820.35,0.00,1054.00,897.17
1392,1008.56,2823.13,0.00,1064.83,889.33
1394,1008.85,2825.91,0.00,1088.67,901.00
1396,1009.13,2828.69,0.70,1103.00,890.83
1398,1009.41,2831.47,9.86,1136.50,903.67
1400,1009.69,2834.24,66.90,1155.00,884.67
1402,1009.98,2837.02,142.64,1201.00,896.67
1404,1010.26,2839.78,298.24,1261.67,899.67
1406,1010.54,2842.55,492.77,1313.17,890.50
1408,1010.82,2845.31,682.91,1372.00,894.17
1410,1011.11,2848.07,739.88,1403.00,901.17
1412,1011.39,2850.83,751.14,1418.83,899.17
1414,1011.67,2853.58,651.43,1409.83,897.50
1416,1011.95,2856.33,491.81,1383.67,896.33
1418,1012.23,2859.08,387.91,1369.00,896.17
1420,1012.51,2861.83,258.14,1339.17,891.50
1422,1012.80,2864.57,190.74,1344.83,904.00
1424,1013.08,2867.31,94.72,1325.00,902.00
1426,1013.36,2870.04,62.88,1323.17,896.83
1428,1013.64,2872.78,21.83,1330.33,897.50
1430,1013.92,2875.51,0.00,1328.83,903.00
1432,1014.20,2878.24,0.00,1331.33,894.83
1434,1014.48,2880.96,0.00,1336.17,894.67
1436,1014.76,2883.68,0.00,1343.17,888.00
1438,1015.04,2886.40,0.00,1360.67,892.33
1440,1015.32,2889.12,0.00,1399.67,900.83
1442,1015.60,2891.83,0.33,1416.17,894.00
1444,1015.88,2894.54,8.43,1445.17,896.83
1446,1016.16,2897.25,62.03,1465.33,883.50
1448,1016.44,2899.96,195.64,1519.00,900.33
1450,1016.72,2902.66,511.48,1584.67,894.33
1452,1017.00,2905.36,749.60,1645.33,905.67
1454,1017.28,2908.06,1105.19,1719.00,891.83
1456,1017.55,2910.75,1482.79,1826.33,905.17
1458,1017.83,2913.44,2079.00,1949.00,886.00
1460,1018.11,2916.13,2770.32,2113.83,892.50
1462,1018.39,2918.81,3432.67,2279.17,899.50
1464,1018.67,2921.49,4352.95,2508.17,893.50
1466,1018.95,2924.17,5498.72,2811.83,895.83
1468,1019.22,2926.85,7115.53,3247.00,896.17
1470,1019.50,2929.52,9297.31,3817.17,890.83
1472,1019.78,2932.20,12856.96,4656.00,889.83
1474,1020.06,2934.86,18409.92,5762.50,894.17
1476,1020.33,2937.53,25363.04,6902.50,906.33
1478,1020.61,2940.19,31307.18,7717.50,897.17
1480,1020.89,2942.85,31800.78,7744.83,900.50
1482,1021.17,2945.51,26206.13,6892.33,898.83
1484,1021.44,2948.16,19329.39,5749.33,896.33
1486,1021.72,2950.81,13861.24,4669.67,895.83
1488,1022.00,2953.46,10399.43,3873.83,907.00
1490,1022.27,2956.11,8139.94,3275.67,898.50
1492,1022.55,2958.75,6704.05,2893.50,903.33
1494,1022.82,2961.39,5513.91,2582.83,900.17
1496,1023.10,2964.03,4882.78,2415.67,901.83
1498,1023.38,2966.66,4333.00,2267.83,892.67
1500,1023.65,2969.29,3855.45,2165.33,903.83
1502,1023.93,2971.92,3669.61,2112.33,902.00
1504,1024.20,2974.55,3532.12,2069.00,901.00
1506,1024.48,2977.17,3555.63,2058.83,898.67
1508,1024.75,2979.79,3615.93,2049.17,889.00
1510,1025.03,2982.41,3866.11,2095.83,893.83
1512,1025.30,2985.02,4089.11,2141.00,892.67
1514,1025.58,2987.63,4399.21,2216.83,897.00
1516,1025.85,2990.24,5035.15,2331.67,892.33
1518,1026.13,2992.85,6246.57,2516.00,898.33
1520,1026.40,2995.45,7737.88,2688.00,900.83
1522,1026.68,2998.05,8829.35,2791.17,893.33
1524,1026.95,3000.65,8182.62,2706.67,902.17
1526,1027.22,3003.25,6640.52,2505.17,895.00
1528,1027.50,3005.84,5141.96,2282.50,893.83
1530,1027.77,3008.43,4352.22,2143.50,897.83
1532,1028.04,3011.02,4007.67,2059.17,904.33
1534,1028.32,3013.60,4058.01,2026.17,895.67
1536,1028.59,3016.18,4204.59,2027.33,899.00
1538,1028.86,3018.76,4442.09,2035.67,884.33
1540,1029.14,3021.34,4496.54,2042.83,894.33
1542,1029.41,3023.91,4755.33,2076.17,891.00
1544,1029.68,3026.48,4900.98,2096.17,890.00
1546,1029.95,3029.05,5125.37,2146.33,900.83
1548,1030.22,3031.61,5543.74,2220.17,895.33
1550,1030.50,3034.17,6023.19,2316.83,892.00
1552,1030.77,3036.73,6906.61,2491.83,895.00
1554,1031.04,3039.29,8568.41,2769.83,897.67
1556,1031.31,3041.84,11069.45,3089.67,887.00
1558,1031.58,3044.39,14760.39,3519.83,905.67
1560,1031.85,3046.94,17787.68,3792.83,896.50
1562,1032.13,3049.49,17840.32,3768.17,892.67
1564,1032.40,3052.03,14965.68,3473.67,906.50
1566,1032.67,3054.57,11483.71,3049.67,890.67
1568,1032.94,3057.11,8731.85,2672.17,902.33
1570,1033.21,3059.64,6924.93,2348.50,885.67
1572,1033.48,3062.18,5784.59,2145.17,898.67
1574,1033.75,3064.70,4924.40,1985.50,900.50
1576,1034.02,3067.23,4236.24,1862.17,901.00
1578,1034.29,3069.75,3724.32,1756.67,888.00
1580,1034.56,3072.28,3384.29,1705.33,899.33
1582,1034.83,3074.79,3070.86,1639.83,888.33
1584,1035.10,3077.31,2829.33,1609.67,899.67
1586,1035.37,3079.82,2778.15,1591.33,892.67
1588,1035.64,3082.33,2771.94,1601.83,905.67
1590,1035.91,3084.84,2878.60,1607.50,898.67
1592,1036.17,3087.34,3232.23,1643.00,894.83
1594,1036.44,3089.85,3797.86,1707.33,907.33
1596,1036.71,3092.35,4507.61,1752.00,895.00
1598,1036.98,3094.84,5011.88,1787.67,892.67
1600,1037.25,3097.34,4713.54,1748.17,888.33
1602,1037.52,3099.83,4041.37,1688.67,895.67
1604,1037.78,3102.32,3481.63,1629.50,895.33
1606,1038.05,3104.80,3008.93,1577.33,904.00
1608,1038.32,3107.29,2879.38,1546.50,893.67
1610,1038.59,3109.77,2759.04,1530.50,895.83
1612,1038.85,3112.24,2857.03,1546.33,897.00
1614,1039.12,3114.72,3357.40,1616.33,901.83
1616,1039.39,3117.19,4038.99,1672.67,889.83
1618,1039.66,3119.66,5482.50,1814.33,898.50
1620,1039.92,3122.13,6877.74,1914.67,899.33
1622,1040.19,3124.59,7563.37,1944.17,892.33
1624,1040.45,3127.05,6953.93,1889.17,892.17
1626,1040.72,3129.51,5460.61,1768.67,898.33
1628,1040.99,3131.97,3951.31,1623.00,901.67
1630,1041.25,3134.42,3027.80,1521.17,906.83
1632,1041.52,3136.87,2321.51,1409.17,891.17
1634,1041.78,3139.32,1890.46,1346.17,893.17
1636,1042.05,3141.77,1534.65,1320.50,919.00
1638,1042.32,3144.21,1246.82,1254.83,891.83
1640,1042.58,3146.65,1000.42,1231.17,901.00
1642,1042.85,3149.09,796.47,1200.83,898.83
1644,1043.11,3151.52,612.41,1172.67,895.50
1646,1043.38,3153.96,442.89,1158.00,902.83
1648,1043.64,3156.39,298.52,1130.17,893.17
1650,1043.90,3158.81,154.52,1118.50,899.33
1652,1044.17,3161.24,133.56,1111.33,897.17
1654,1044.43,3163.66,30.28,1092.33,895.83
1656,1044.70,3166.08,26.02,1099.33,908.00
1658,1044.96,3168.49,8.43,1077.50,896.00
1660,1045.22,3170.91,30.16,1072.67,895.33
1662,1045.49,3173.32,41.35,1062.50,890.17
1664,1045.75,3175.73,0.00,1055.83,897.50
1666,1046.01,3178.13,0.00,1050.00,893.17
1668,1046.28,3180.54,35.16,1059.83,901.83
1670,1046.54,3182.94,0.13,1051.67,902.17
1672,1046.80,3185.34,19.86,1044.83,897.67
1674,1047.07,3187.73,0.00,1028.67,892.17
1676,1047.33,3190.12,0.00,1038.33,900.00
1678,1047.59,3192.51,0.00,1036.33,901.00
1680,1047.85,3194.90,0.00,1038.67,906.33
1682,1048.11,3197.29,18.65,1032.50,900.17
1684,1048.38,3199.67,0.00,1025.67,898.67
1686,1048.64,3202.05,0.00,1024.67,904.00
1688,1048.90,3204.43,41.44,1026.00,898.33
1690,1049.16,3206.80,51.38,1020.33,894.83
1692,1049.42,3209.17,46.31,1024.83,901.17
1694,1049.68,3211.54,0.00,1015.17,898.17
1696,1049.94,3213.91,8.77,1014.83,896.83
1698,1050.20,3216.27,58.19,1023.00,901.33
1700,1050.46,3218.63,130.04,1030.33,906.00
1702,1050.72,3220.99,114.51,1022.33,901.17
1704,1050.98,3223.35,69.40,1019.67,902.67
1706,1051.24,3225.70,99.14,1018.33,900.00
1708,1051.50,3228.05,195.28,1014.50,891.50
1710,1051.76,3230.40,243.01,1027.00,903.00
1712,1052.02,3232.75,141.87,1014.17,897.33
1714,1052.28,3235.09,63.43,1015.33,905.67
1716,1052.54,3237.43,127.40,1014.50,901.33
1718,1052.80,3239.77,191.49,1007.83,893.17
1720,1053.06,3242.11,241.72,1014.83,898.33
1722,1053.32,3244.44,243.50,1010.00,892.17
1724,1053.58,3246.77,76.13,1016.17,912.33
1726,1053.84,3249.10,206.70,1012.83,900.00
1728,1054.10,3251.42,202.25,1009.83,900.67
1730,1054.35,3253.75,233.85,1004.67,895.00
1732,1054.61,3256.07,264.90,1018.00,906.67
1734,1054.87,3258.39,229.32,1006.33,898.50
1736,1055.13,3260.70,269.91,1010.00,900.83
1738,1055.38,3263.01,296.93,1007.67,898.67
1740,1055.64,3265.32,411.94,1009.17,894.50
1742,1055.90,3267.63,378.51,1002.50,891.33
1744,1056.16,3269.94,412.40,1019.33,905.50
1746,1056.41,3272.24,259.09,1011.00,908.00
1748,1056.67,3274.54,455.47,1017.67,901.83
1750,1056.93,3276.84,555.81,1019.50,900.50
1752,1057.18,3279.13,596.94,1014.00,895.33
1754,1057.44,3281.42,633.08,1014.50,895.00
1756,1057.69,3283.71,676.74,1014.50,894.17
1758,1057.95,3286.00,849.39,1035.83,908.33
1760,1058.21,3288.28,905.78,1024.00,895.50
1762,1058.46,3290.57,688.02,1020.17,903.33
1764,1058.72,3292.85,485.33,1009.83,904.00
1766,1058.97,3295.12,465.05,996.17,892.50
1768,1059.23,3297.40,549.34,998.50,892.83
1770,1059.48,3299.67,485.23,1004.17,905.00
1772,1059.74,3301.94,393.42,986.17,892.83
1774,1059.99,3304.21,395.96,996.67,903.00
1776,1060.25,3306.47,364.78,998.83,908.00
1778,1060.50,3308.73,356.43,983.50,895.33
1780,1060.76,3310.99,376.25,981.00,894.00
1782,1061.01,3313.25,371.82,985.17,899.67
1784,1061.26,3315.50,395.64,982.50,895.67
1786,1061.52,3317.76,244.53,980.33,902.33
1788,1061.77,3320.01,358.67,987.50,903.83
1790,1062.02,3322.25,322.38,974.83,895.50
1792,1062.28,3324.50,439.79,981.67,898.50
1794,1062.53,3326.74,536.86,975.33,888.67
1796,1062.78,3328.98,356.83,973.17,895.83
1798,1063.04,3331.22,372.68,975.00,897.33
1800,1063.29,3333.45,291.67,969.17,896.67
1802,1063.54,3335.68,312.30,969.67,896.83
1804,1063.79,3337.91,274.71,973.17,902.67
1806,1064.05,3340.14,303.55,980.83,909.33
1808,1064.30,3342.36,353.89,964.17,891.00
1810,1064.55,3344.59,229.11,968.17,903.00
1812,1064.80,3346.81,370.55,967.33,897.17
1814,1065.05,3349.02,384.68,964.83,896.00
1816,1065.30,3351.24,411.20,973.17,904.00
1818,1065.55,3353.45,373.88,964.67,896.83
1820,1065.81,3355.66,325.09,973.33,907.33
1822,1066.06,3357.87,208.81,960.83,901.00
1824,1066.31,3360.07,239.45,954.67,894.17
1826,1066.56,3362.27,345.45,965.50,901.17
1828,1066.81,3364.47,287.06,955.17,895.33
1830,1067.06,3366.67,511.25,963.00,895.50
1832,1067.31,3368.87,475.22,958.50,893.83
1834,1067.56,3371.06,475.69,949.17,884.67
1836,1067.81,3373.25,322.37,948.00,889.67
1838,1068.06,3375.44,329.90,948.50,889.67
1840,1068.31,3377.62,285.97,950.83,894.50
1842,1068.56,3379.81,328.94,945.33,888.33
1844,1068.80,3381.99,339.49,961.17,905.33
1846,1069.05,3384.16,418.68,955.50,897.83
1848,1069.30,3386.34,444.60,952.50,894.67
1850,1069.55,3388.51,392.87,944.33,889.00
1852,1069.80,3390.68,399.31,956.00,901.00
1854,1070.05,3392.85,416.03,964.33,909.50
1856,1070.30,3395.02,375.44,949.17,896.67
1858,1070.54,3397.18,334.34,943.00,892.67
1860,1070.79,3399.34,243.88,943.83,897.33
1862,1071.04,3401.50,343.77,943.00,892.50
1864,1071.29,3403.66,174.22,934.33,890.83
1866,1071.53,3405.81,376.79,950.17,898.67
1868,1071.78,3407.96,262.53,940.83,895.83
1870,1072.03,3410.11,524.64,950.50,898.67
1872,1072.27,3412.26,475.91,946.17,897.50
1874,1072.52,3414.40,355.15,941.00,895.83
1876,1072.77,3416.54,367.82,938.17,891.33
1878,1073.01,3418.68,235.10,941.67,899.67
1880,1073.26,3420.82,345.79,931.33,886.00
1882,1073.51,3422.96,294.26,939.83,898.17
1884,1073.75,3425.09,506.30,942.33,895.00
1886,1074.00,3427.22,416.32,928.17,884.33
1888,1074.24,3429.35,294.39,943.67,904.17
1890,1074.49,3431.47,408.47,935.17,892.50
1892,1074.73,3433.59,290.25,927.67,889.00
1894,1074.98,3435.71,227.05,940.33,904.00
1896,1075.22,3437.83,235.00,934.50,898.67
1898,1075.47,3439.95,448.44,940.17,898.67
1900,1075.71,3442.06,371.38,938.83,899.50
1902,1075.96,3444.17,107.14,931.33,900.50
1904,1076.20,3446.28,182.24,913.83,880.83
1906,1076.44,3448.38,280.10,939.67,905.00
1908,1076.69,3450.49,380.31,937.67,901.67
1910,1076.93,3452.59,677.49,938.00,894.00
1912,1077.17,3454.69,164.34,925.17,895.17
1914,1077.42,3456.79,198.64,927.33,896.50
1916,1077.66,3458.88,297.07,925.00,892.00
1918,1077.90,3460.97,562.83,928.00,888.33
1920,1078.15,3463.06,224.73,930.17,900.33
1922,1078.39,3465.15,276.31,927.83,896.83
1924,1078.63,3467.23,307.48,918.67,887.33
1926,1078.87,3469.32,341.09,932.50,901.00
1928,1079.12,3471.40,623.20,928.67,890.50
1930,1079.36,3473.47,452.51,942.67,909.17
1932,1079.60,3475.55,517.54,922.00,886.67
1934,1079.84,3477.62,299.43,926.00,896.67
1936,1080.08,3479.69,356.33,921.50,891.17
1938,1080.33,3481.76,443.59,921.33,889.50
1940,1080.57,3483.83,353.01,924.33,895.33
1942,1080.81,3485.89,421.73,925.67,895.33
1944,1081.05,3487.95,503.49,930.17,898.17
1946,1081.29,3490.01,185.39,923.00,899.17
1948,1081.53,3492.07,312.51,919.17,892.33
1950,1081.77,3494.12,121.00,916.83,895.17
1952,1082.01,3496.18,550.73,928.00,895.67
1954,1082.25,3498.23,80.21,913.33,893.33
1956,1082.49,3500.27,423.51,923.33,895.67
1958,1082.73,3502.32,304.76,914.17,890.17
1960,1082.97,3504.36,423.23,923.67,897.83
1962,1083.21,3506.40,557.68,920.33,891.50
1964,1083.45,3508.44,177.69,909.50,888.67
1966,1083.69,3510.48,148.83,926.00,906.00
1968,1083.93,3512.51,293.97,922.83,900.00
1970,1084.16,3514.54,394.25,917.17,892.33
1972,1084.40,3516.57,97.66,914.83,896.67
1974,1084.64,3518.60,56.33,909.67,892.67
1976,1084.88,3520.62,275.97,924.00,901.83
1978,1085.12,3522.65,555.13,925.83,900.17
1980,1085.36,3524.67,667.10,923.33,897.00
1982,1085.59,3526.68,277.14,908.83,889.00
1984,1085.83,3528.70,135.70,917.33,900.17
1986,1086.07,3530.71,295.97,912.17,891.83
1988,1086.31,3532.72,366.77,919.33,898.50
1990,1086.54,3534.73,527.09,911.83,888.33
1992,1086.78,3536.74,357.36,923.83,903.33
1994,1087.02,3538.74,111.78,914.83,899.50
1996,1087.25,3540.74,236.59,905.00,887.67
1998,1087.49,3542.74,330.26,914.33,895.83
2000,1087.73,3544.74,445.84,914.67,893.67
2002,1087.96,3546.74,66.07,910.00,896.33
2004,1088.20,3548.73,0.00,915.50,904.83
2006,1088.43,3550.72,381.47,916.00,896.67
2008,1088.67,3552.71,279.12,909.67,893.33
2010,1088.90,3554.69,133.38,902.17,888.33
2012,1089.14,3556.68,441.51,918.17,899.00
2014,1089.38,3558.66,242.00,904.17,887.67
2016,1089.61,3560.64,356.69,907.67,888.17
2018,1089.84,3562.62,130.47,912.33,898.00
2020,1090.08,3564.59,153.76,907.50,893.17
2022,1090.31,3566.56,368.94,910.83,893.17
2024,1090.55,3568.53,374.78,907.33,889.00
2026,1090.78,3570.50,116.29,902.33,888.33
2028,1091.02,3572.47,416.63,905.00,885.33
2030,1091.25,3574.43,35.14,903.17,890.83
2032,1091.48,3576.39,610.49,897.83,877.67
2034,1091.72,3578.35,148.12,895.67,881.67
2036,1091.95,3580.31,445.76,906.50,887.00
2038,1092.18,3582.26,98.25,894.50,880.67
2040,1092.42,3584.22,99.16,895.67,882.00
2042,1092.65,3586.17,59.67,898.17,885.33
2044,1092.88,3588.12,483.70,899.00,880.33
2046,1093.11,3590.06,80.19,893.67,879.00
2047,1093.23,3591.03,21.11,892.50,878.83