File: src/enlighten/plugins/Raman/MatchingLibrary/785X/2-amino butane.csv
ENLIGHTEN Version,4.1.22
Measurement ID,20250220-200447-071895-WP-01977
Serial Number,WP-01977
Model,WP-785X-F13-R-ILC
Detector,S16011-1106
Label,2-amino butane
Declared Match,
Declared Score,0
Scan Averaging,3
Boxcar,0
Technique,Raman
Baseline Correction Algo,AirPLS
ROI Pixel Start,47
ROI Pixel End,2047
ROI Start Line,0
ROI Stop Line,63
CCD C4,1.38617e-12
Slit Width,25
Cropped,True
Interpolated,False
Wavenumber Correction,-0.100481
Raman Intensity Corrected,True
Deconvolved,True
Region,
High Gain Mode,False
Laser Power mW,
Electrical Dark Correction,False
Battery %,
Device ID,<DeviceID USB:0x24aa:0x1000:0:1>
FW Version,10.0.0.10
FPGA Version,035-001
BLE Version,
Prefix,enlighten
Suffix,
Preset,
Auto-Raman,True
Session Count,0
Plugin Name,
Integration Time,423
Timestamp,2025-02-20 20:04:47.0719
Note,
Temperature,0
CCD C0,793.274
CCD C1,0.153259
CCD C2,1.40788e-05
CCD C3,-1.132e-08
CCD Offset,0
CCD Gain,1.9
CCD Offset Odd,0
CCD Gain Odd,1.9
Laser Wavelength,785.032
Laser Enable,False
Laser Power %,0
Laser Temperature,0
Pixel Count,2048

Pixel,Wavelength,Wavenumber,Processed,Raw,Dark
0,793.27,132.25,NA,1096.33,939.33
2,793.58,137.12,NA,1117.33,948.67
4,793.89,141.99,NA,1107.00,955.33
6,794.19,146.86,NA,1119.00,947.33
8,794.50,151.72,NA,1136.00,951.67
10,794.81,156.58,NA,1128.67,956.67
12,795.12,161.44,NA,1129.67,942.33
14,795.42,166.30,NA,1130.33,943.00
16,795.73,171.16,NA,1143.00,949.67
18,796.04,176.01,NA,1167.00,962.00
20,796.35,180.86,NA,1165.67,963.33
22,796.65,185.71,NA,1200.00,985.33
24,796.96,190.56,NA,1189.00,958.67
26,797.27,195.41,NA,1215.67,977.67
28,797.58,200.25,NA,1218.33,968.33
30,797.88,205.09,NA,1213.33,952.00
32,798.19,209.93,NA,1236.67,955.00
34,798.50,214.77,NA,1270.33,959.33
36,798.81,219.60,NA,1315.00,957.33
38,799.12,224.43,NA,1543.67,958.67
40,799.43,229.27,NA,2602.67,986.67
42,799.74,234.09,NA,6819.00,974.00
44,800.04,238.92,NA,13234.67,997.33
46,800.35,243.75,NA,16244.67,966.00
48,800.66,248.57,117.38,16993.00,976.67
50,800.97,253.39,512.49,17372.67,987.67
52,801.28,258.21,655.47,17705.00,989.00
54,801.59,263.02,904.96,18065.00,992.33
56,801.90,267.83,1069.58,18325.67,981.67
58,802.21,272.65,1178.54,18491.00,976.33
60,802.52,277.46,1015.14,18385.33,977.67
62,802.83,282.26,793.68,18208.33,996.33
64,803.14,287.07,606.08,18028.33,997.67
66,803.45,291.87,348.60,17781.67,987.67
68,803.76,296.67,186.81,17612.33,998.67
70,804.07,301.47,122.07,17563.33,978.33
72,804.38,306.26,9.41,17495.33,980.33
74,804.69,311.06,5.96,17522.00,976.67
76,805.00,315.85,28.14,17588.33,972.00
78,805.31,320.64,51.06,17695.67,983.67
80,805.62,325.42,20.27,17722.67,996.00
82,805.93,330.21,37.72,17798.67,986.67
84,806.24,334.99,4.63,17792.33,959.33
86,806.55,339.77,103.49,17977.67,971.33
88,806.86,344.55,113.91,18042.33,986.33
90,807.17,349.32,175.93,18178.33,969.67
92,807.48,354.10,288.88,18366.00,973.33
94,807.80,358.87,382.13,18589.67,995.67
96,808.11,363.63,539.33,18843.33,981.67
98,808.42,368.40,755.93,19234.67,978.67
100,808.73,373.16,1183.17,19908.67,970.33
102,809.04,377.93,1946.85,20887.00,965.33
104,809.35,382.68,2548.71,21611.00,965.00
106,809.66,387.44,2462.37,21663.33,974.67
108,809.98,392.19,2075.25,21318.33,966.33
110,810.29,396.95,1844.54,21017.00,980.33
112,810.60,401.70,1693.38,20785.00,966.00
114,810.91,406.44,1419.40,20511.33,978.33
116,811.22,411.19,1277.09,20396.67,981.67
118,811.54,415.93,1344.02,20505.67,978.00
120,811.85,420.67,1582.87,20808.33,962.33
122,812.16,425.41,1853.17,21148.00,967.67
124,812.47,430.14,1721.57,21065.67,980.33
126,812.79,434.87,1473.56,20805.67,969.33
128,813.10,439.60,1278.45,20581.00,958.00
130,813.41,444.33,1190.17,20500.00,965.67
132,813.72,449.06,1311.76,20660.33,962.67
134,814.04,453.78,1404.39,20800.67,971.67
136,814.35,458.50,1400.86,20827.33,958.33
138,814.66,463.22,1311.87,20812.00,956.33
140,814.98,467.93,1385.85,21050.67,969.67
142,815.29,472.65,1759.11,21793.00,964.67
144,815.60,477.36,2787.41,23608.67,974.67
146,815.92,482.06,5138.48,26931.33,955.00
148,816.23,486.77,8189.56,30521.33,982.00
150,816.54,491.47,8840.26,31306.67,992.00
152,816.86,496.17,6244.59,28421.67,956.00
154,817.17,500.87,3580.08,24878.33,967.00
156,817.48,505.57,1813.51,22188.33,963.33
158,817.80,510.26,976.81,20754.33,961.00
160,818.11,514.95,634.71,20106.00,979.67
162,818.42,519.64,344.69,19692.67,977.33
164,818.74,524.32,175.01,19439.00,969.33
166,819.05,529.00,231.02,19480.67,973.33
168,819.37,533.68,146.91,19372.33,973.33
170,819.68,538.36,49.96,19283.33,984.00
172,819.99,543.04,23.29,19242.67,985.00
174,820.31,547.71,21.83,19208.33,966.67
176,820.62,552.38,0.00,19142.67,961.00
178,820.94,557.05,42.62,19196.00,961.33
180,821.25,561.71,52.53,19220.67,953.67
182,821.57,566.37,59.08,19240.33,958.67
184,821.88,571.03,158.71,19295.67,967.33
186,822.20,575.69,96.89,19242.33,964.67
188,822.51,580.34,1.50,19081.33,964.00
190,822.83,584.99,0.00,19002.33,972.67
192,823.14,589.64,22.14,19070.67,969.67
194,823.46,594.29,0.00,19013.00,964.67
196,823.77,598.93,0.10,19012.33,971.67
198,824.09,603.57,0.00,18963.67,954.33
200,824.40,608.21,20.42,19006.33,963.33
202,824.72,612.85,0.00,18921.33,977.33
204,825.03,617.48,0.00,18927.67,973.00
206,825.35,622.11,8.59,18976.00,980.33
208,825.66,626.74,2.13,18958.67,971.33
210,825.98,631.36,0.00,18932.33,961.00
212,826.29,635.99,0.13,18942.00,959.33
214,826.61,640.61,78.62,19060.67,968.33
216,826.92,645.22,17.82,18969.67,962.67
218,827.24,649.84,13.12,18955.33,946.33
220,827.56,654.45,37.08,19026.00,975.67
222,827.87,659.06,20.51,19013.33,975.33
224,828.19,663.67,55.46,19045.00,968.33
226,828.50,668.27,72.14,19086.00,1002.00
228,828.82,672.87,35.56,19024.33,974.00
230,829.13,677.47,26.80,18989.00,963.67
232,829.45,682.06,14.74,18988.00,977.00
234,829.77,686.66,0.00,18976.00,1012.67
236,830.08,691.25,0.00,18901.67,970.67
238,830.40,695.83,3.77,18956.33,962.00
240,830.72,700.42,0.00,18949.00,964.67
242,831.03,705.00,0.00,18891.67,941.00
244,831.35,709.58,0.00,18983.00,959.33
246,831.66,714.15,0.00,18942.67,936.67
248,831.98,718.73,0.00,18977.33,968.33
250,832.30,723.30,0.00,19058.00,954.00
252,832.61,727.87,0.00,19139.00,981.00
254,832.93,732.43,8.44,19216.00,941.00
256,833.25,736.99,92.53,19419.33,976.67
258,833.56,741.55,226.97,19668.67,964.67
260,833.88,746.11,378.81,20002.67,955.00
262,834.20,750.66,750.53,20853.67,959.67
264,834.51,755.22,1468.71,22534.00,970.33
266,834.83,759.76,3515.15,26618.33,972.33
268,835.15,764.31,8436.37,33974.67,977.67
270,835.47,768.85,14487.49,40954.00,953.67
272,835.78,773.39,13497.39,40137.33,952.67
274,836.10,777.93,7263.12,32818.00,957.33
276,836.42,782.46,3885.27,27331.67,962.67
278,836.73,787.00,2922.88,25109.67,948.67
280,837.05,791.52,2826.69,24803.67,951.33
282,837.37,796.05,3264.29,25907.00,977.67
284,837.69,800.57,5067.87,29241.00,957.00
286,838.00,805.09,8827.09,34802.33,958.67
288,838.32,809.61,12910.88,39749.00,957.00
290,838.64,814.13,12441.39,39235.33,975.33
292,838.95,818.64,7987.51,33743.67,952.67
294,839.27,823.15,4302.91,28141.67,954.33
296,839.59,827.65,2691.97,25047.67,963.33
298,839.91,832.15,1964.56,23535.33,958.00
300,840.22,836.65,1587.64,22801.67,985.33
302,840.54,841.15,1273.36,22231.67,954.00
304,840.86,845.65,994.91,21844.33,979.67
306,841.18,850.14,786.59,21509.00,971.33
308,841.50,854.63,667.23,21346.67,1007.00
310,841.81,859.11,520.31,21079.67,959.33
312,842.13,863.60,403.62,20917.00,967.67
314,842.45,868.07,313.80,20754.67,954.67
316,842.77,872.55,195.02,20641.00,972.67
318,843.08,877.03,54.02,20421.00,979.33
320,843.40,881.50,26.01,20335.00,950.33
322,843.72,885.97,0.00,20254.67,970.67
324,844.04,890.43,0.20,20259.67,957.67
326,844.36,894.89,21.94,20355.33,952.67
328,844.67,899.35,207.22,20651.00,968.67
330,844.99,903.81,524.70,21186.00,949.67
332,845.31,908.26,1086.30,22144.00,969.67
334,845.63,912.71,1860.90,23342.67,969.67
336,845.95,917.16,2730.23,24521.67,972.00
338,846.27,921.61,2855.92,24902.00,1151.33
340,846.58,926.05,2498.60,24211.00,966.67
342,846.90,930.49,1834.67,23172.00,966.00
344,847.22,934.92,1103.85,22004.00,962.67
346,847.54,939.36,498.93,20974.00,943.67
348,847.86,943.79,189.75,20393.00,952.67
350,848.18,948.21,41.34,20071.33,954.33
352,848.49,952.64,28.79,20038.67,954.67
354,848.81,957.06,201.79,20382.33,942.33
356,849.13,961.48,613.75,20910.00,989.67
358,849.45,965.89,928.98,21418.33,971.00
360,849.77,970.31,1198.24,21884.67,961.00
362,850.09,974.71,1646.54,22526.33,954.33
364,850.40,979.12,1967.88,23112.00,975.33
366,850.72,983.52,2212.63,23680.67,982.33
368,851.04,987.92,2990.61,24786.00,952.67
370,851.36,992.32,3833.99,25895.00,948.33
372,851.68,996.72,4056.14,26343.67,960.00
374,852.00,1001.11,3998.83,26287.67,951.33
376,852.32,1005.50,3883.57,25986.00,944.33
378,852.63,1009.88,3460.85,25317.00,985.33
380,852.95,1014.26,2868.98,24367.33,964.67
382,853.27,1018.64,2469.75,23701.33,980.33
384,853.59,1023.02,2174.04,23273.00,957.33
386,853.91,1027.39,2335.17,23585.67,948.33
388,854.23,1031.76,3266.77,24838.00,950.33
390,854.55,1036.13,4205.35,26012.33,956.00
392,854.87,1040.49,4305.49,26401.67,952.67
394,855.18,1044.86,4214.36,26482.67,966.00
396,855.50,1049.21,4676.58,26842.33,964.67
398,855.82,1053.57,4683.73,26509.33,968.33
400,856.14,1057.92,3549.26,24882.00,957.67
402,856.46,1062.27,2199.96,22875.00,964.00
404,856.78,1066.62,1251.40,21203.67,946.33
406,857.10,1070.96,625.91,20029.33,951.00
408,857.42,1075.30,301.95,19403.67,973.33
410,857.74,1079.64,82.16,18997.00,955.00
412,858.06,1083.97,0.27,18728.00,951.00
414,858.37,1088.30,0.00,18660.67,943.00
416,858.69,1092.63,0.16,18646.33,946.33
418,859.01,1096.95,71.96,18883.33,941.00
420,859.33,1101.27,412.70,19360.00,953.67
422,859.65,1105.59,906.24,20118.67,958.00
424,859.97,1109.91,1497.25,20993.67,941.67
426,860.29,1114.22,1965.06,21679.67,952.33
428,860.61,1118.53,2417.40,22227.00,947.67
430,860.93,1122.84,2059.05,21853.67,957.00
432,861.25,1127.14,1696.28,21420.00,971.33
434,861.56,1131.44,1782.56,21409.00,946.00
436,861.88,1135.74,1922.70,21489.33,948.00
438,862.20,1140.03,1957.53,21490.00,957.67
440,862.52,1144.32,1814.69,21293.67,956.67
442,862.84,1148.61,1715.05,21225.00,966.00
444,863.16,1152.89,1829.08,21393.33,950.00
446,863.48,1157.17,2271.01,21974.67,957.67
448,863.80,1161.45,2776.79,22550.67,957.33
450,864.12,1165.73,2939.73,22620.00,968.00
452,864.44,1170.00,2274.87,21658.67,953.67
454,864.76,1174.27,1295.48,20301.33,960.00
456,865.07,1178.53,634.15,19162.67,943.33
458,865.39,1182.80,258.15,18421.33,958.33
460,865.71,1187.06,40.21,18039.67,953.33
462,866.03,1191.31,0.00,17836.00,955.33
464,866.35,1195.57,0.00,17729.00,948.00
466,866.67,1199.82,0.00,17748.67,960.33
468,866.99,1204.06,0.00,17750.67,958.33
470,867.31,1208.31,0.08,17775.33,962.67
472,867.63,1212.55,32.59,17920.33,959.67
474,867.95,1216.79,289.29,18188.00,939.00
476,868.27,1221.02,486.96,18463.00,953.00
478,868.58,1225.25,612.09,18657.33,941.00
480,868.90,1229.48,692.11,18806.00,968.33
482,869.22,1233.71,751.15,18891.00,971.67
484,869.54,1237.93,709.03,18812.00,973.67
486,869.86,1242.15,592.78,18633.33,955.00
488,870.18,1246.36,548.16,18546.00,936.67
490,870.50,1250.58,637.07,18697.67,957.67
492,870.82,1254.79,672.78,18825.67,987.67
494,871.14,1258.99,1050.70,19386.33,970.33
496,871.46,1263.20,1514.26,20019.00,966.67
498,871.78,1267.40,2001.63,20665.33,945.67
500,872.10,1271.59,2128.44,20823.00,948.00
502,872.41,1275.79,2021.49,20708.33,950.33
504,872.73,1279.98,1726.95,20306.33,957.67
506,873.05,1284.17,1438.15,19908.33,968.67
508,873.37,1288.35,1281.32,19663.33,928.00
510,873.69,1292.53,1479.42,19961.00,948.00
512,874.01,1296.71,1944.68,20568.00,946.33
514,874.33,1300.88,2384.07,21052.00,935.33
516,874.65,1305.06,2527.43,21225.33,952.33
518,874.97,1309.22,2071.06,20669.00,947.00
520,875.29,1313.39,1748.91,20208.33,954.00
522,875.60,1317.55,1427.92,19707.33,956.33
524,875.92,1321.71,1290.15,19473.33,955.00
526,876.24,1325.87,1372.26,19561.67,971.67
528,876.56,1330.02,1526.10,19777.33,954.33
530,876.88,1334.17,1778.30,20240.00,969.67
532,877.20,1338.32,2273.96,21003.33,945.00
534,877.52,1342.46,3064.24,22060.33,939.00
536,877.84,1346.60,3888.94,23054.67,964.67
538,878.16,1350.73,3975.56,23193.67,949.67
540,878.47,1354.87,3390.30,22601.00,940.67
542,878.79,1359.00,2977.33,22089.67,954.33
544,879.11,1363.13,3172.63,22205.33,962.67
546,879.43,1367.25,3395.58,22356.33,949.00
548,879.75,1371.37,3351.88,22320.67,952.00
550,880.07,1375.49,3254.33,22178.00,948.67
552,880.39,1379.60,3156.72,21971.00,958.00
554,880.71,1383.71,2984.93,21624.00,952.67
556,881.03,1387.82,2726.43,21185.33,945.00
558,881.34,1391.93,2250.85,20476.67,934.33
560,881.66,1396.03,1821.11,19856.33,945.00
562,881.98,1400.13,1553.39,19428.33,957.00
564,882.30,1404.22,1452.74,19204.00,959.67
566,882.62,1408.31,1348.75,19013.67,951.33
568,882.94,1412.40,1434.22,19132.00,956.33
570,883.26,1416.49,1606.12,19372.33,948.33
572,883.57,1420.57,1858.33,19809.00,967.33
574,883.89,1424.65,2278.84,20529.00,941.67
576,884.21,1428.73,3166.99,22093.67,965.00
578,884.53,1432.80,4721.36,24613.33,978.33
580,884.85,1436.87,7393.18,28304.33,943.67
582,885.17,1440.93,10513.05,32343.67,942.33
584,885.49,1445.00,12308.68,35063.33,943.00
586,885.80,1449.06,12813.75,36293.00,948.33
588,886.12,1453.11,13485.05,37124.67,967.33
590,886.44,1457.17,13947.79,37255.00,962.67
592,886.76,1461.22,12603.71,35282.67,957.67
594,887.08,1465.26,10204.50,32011.00,962.00
596,887.40,1469.31,7547.92,28243.33,940.00
598,887.71,1473.35,5244.67,24853.00,943.00
600,888.03,1477.38,3660.20,22355.33,955.00
602,888.35,1481.42,2706.22,20746.33,967.33
604,888.67,1485.45,2040.04,19609.33,957.67
606,888.99,1489.48,1512.27,18743.67,946.33
608,889.31,1493.50,1144.49,18141.00,965.33
610,889.62,1497.52,886.86,17672.67,952.33
612,889.94,1501.54,625.10,17242.33,929.67
614,890.26,1505.56,349.17,16833.00,948.00
616,890.58,1509.57,176.37,16550.00,949.33
618,890.90,1513.57,78.81,16396.33,944.67
620,891.21,1517.58,10.15,16186.67,950.67
622,891.53,1521.58,16.24,16123.00,959.33
624,891.85,1525.58,66.94,16095.00,949.00
626,892.17,1529.57,72.67,16027.33,958.33
628,892.49,1533.57,84.01,15939.33,952.67
630,892.80,1537.56,74.98,15826.00,945.67
632,893.12,1541.54,61.41,15737.00,941.00
634,893.44,1545.52,18.03,15608.33,963.33
636,893.76,1549.50,37.34,15518.67,939.33
638,894.07,1553.48,7.49,15424.33,967.67
640,894.39,1557.45,25.16,15370.00,943.67
642,894.71,1561.42,92.01,15373.67,957.67
644,895.03,1565.39,217.42,15413.00,937.00
646,895.34,1569.35,254.12,15425.00,964.33
648,895.66,1573.31,265.65,15358.67,946.33
650,895.98,1577.26,324.99,15366.67,951.33
652,896.30,1581.22,446.40,15418.00,943.67
654,896.61,1585.17,415.76,15315.33,951.33
656,896.93,1589.11,444.77,15291.67,961.67
658,897.25,1593.06,488.01,15242.67,941.00
660,897.57,1597.00,446.46,15129.00,952.33
662,897.88,1600.93,481.96,15100.67,953.00
664,898.20,1604.87,514.33,15046.67,950.00
666,898.52,1608.80,504.09,14939.67,939.67
668,898.84,1612.72,558.28,14929.67,937.33
670,899.15,1616.65,586.82,14892.00,961.33
672,899.47,1620.57,576.70,14777.67,937.00
674,899.79,1624.49,550.69,14672.00,950.33
676,900.10,1628.40,441.86,14446.67,935.33
678,900.42,1632.31,407.51,14346.00,961.33
680,900.74,1636.22,400.51,14191.67,928.67
682,901.05,1640.12,390.88,14161.33,976.00
684,901.37,1644.02,281.93,13929.33,949.67
686,901.69,1647.92,350.91,13925.00,961.67
688,902.00,1651.82,444.25,13941.00,946.00
690,902.32,1655.71,374.95,13796.33,939.00
692,902.64,1659.60,436.77,13769.33,941.00
694,902.95,1663.48,483.01,13747.00,961.33
696,903.27,1667.36,399.11,13575.67,946.33
698,903.59,1671.24,332.05,13432.00,968.33
700,903.90,1675.11,305.89,13288.67,951.33
702,904.22,1678.99,295.26,13189.67,941.00
704,904.54,1682.85,274.01,13121.00,982.33
706,904.85,1686.72,283.72,13009.00,942.33
708,905.17,1690.58,245.41,12898.33,950.67
710,905.49,1694.44,274.00,12840.00,933.67
712,905.80,1698.29,290.26,12791.00,947.33
714,906.12,1702.15,384.66,12809.67,946.33
716,906.43,1706.00,362.12,12716.33,954.33
718,906.75,1709.84,262.52,12539.00,967.67
720,907.07,1713.68,254.52,12404.67,937.67
722,907.38,1717.52,174.13,12243.67,950.00
724,907.70,1721.36,110.71,12094.33,950.67
726,908.01,1725.19,73.42,11962.00,952.67
728,908.33,1729.02,45.26,11851.33,954.67
730,908.65,1732.85,25.44,11750.00,956.33
732,908.96,1736.67,88.81,11747.67,957.67
734,909.28,1740.49,81.53,11653.33,949.33
736,909.59,1744.30,55.45,11563.33,961.33
738,909.91,1748.12,101.61,11512.33,947.67
740,910.22,1751.93,77.72,11427.33,957.67
742,910.54,1755.73,24.25,11334.00,988.00
744,910.85,1759.54,22.91,11213.67,960.00
746,911.17,1763.34,36.99,11152.67,940.67
748,911.49,1767.13,0.00,10980.67,956.00
750,911.80,1770.93,0.00,10934.00,940.33
752,912.12,1774.72,0.00,10894.00,959.33
754,912.43,1778.50,0.72,10846.33,940.00
756,912.75,1782.29,13.29,10806.33,939.33
758,913.06,1786.07,27.96,10766.00,939.67
760,913.38,1789.84,138.64,10841.00,950.33
762,913.69,1793.62,121.24,10776.33,957.00
764,914.01,1797.39,57.08,10658.67,947.33
766,914.32,1801.15,46.47,10584.00,944.33
768,914.64,1804.92,23.59,10501.67,945.33
770,914.95,1808.68,0.72,10429.00,954.67
772,915.26,1812.44,28.32,10421.33,961.33
774,915.58,1816.19,4.73,10308.33,929.33
776,915.89,1819.94,41.89,10342.33,948.33
778,916.21,1823.69,81.68,10317.67,955.67
780,916.52,1827.43,116.24,10315.67,962.00
782,916.84,1831.17,207.05,10341.67,935.67
784,917.15,1834.91,179.22,10253.67,933.00
786,917.47,1838.64,212.59,10263.00,956.67
788,917.78,1842.38,165.24,10146.67,945.67
790,918.09,1846.10,160.30,10089.00,940.33
792,918.41,1849.83,123.18,10003.67,952.00
794,918.72,1853.55,103.96,9912.67,934.00
796,919.04,1857.27,125.73,9891.33,948.00
798,919.35,1860.98,128.91,9838.00,939.00
800,919.66,1864.69,108.64,9785.33,949.00
802,919.98,1868.40,169.66,9800.33,952.33
804,920.29,1872.11,207.63,9783.00,950.00
806,920.60,1875.81,242.76,9760.67,942.00
808,920.92,1879.51,257.25,9730.33,942.33
810,921.23,1883.20,213.59,9651.67,958.33
812,921.55,1886.90,284.57,9643.00,936.00
814,921.86,1890.58,228.70,9557.33,962.67
816,922.17,1894.27,198.24,9487.00,968.00
818,922.49,1897.95,160.35,9374.00,950.00
820,922.80,1901.63,140.91,9294.33,950.67
822,923.11,1905.31,126.10,9224.67,944.33
824,923.42,1908.98,124.63,9186.67,953.67
826,923.74,1912.65,137.27,9149.67,950.00
828,924.05,1916.31,132.19,9088.67,945.67
830,924.36,1919.98,183.48,9082.33,942.67
832,924.68,1923.64,248.54,9087.33,936.33
834,924.99,1927.29,230.28,9029.00,940.00
836,925.30,1930.94,211.21,8952.00,926.67
838,925.61,1934.59,273.49,8976.67,937.33
840,925.93,1938.24,222.24,8872.33,944.33
842,926.24,1941.88,161.53,8763.33,947.33
844,926.55,1945.52,185.86,8747.00,939.33
846,926.86,1949.16,69.42,8568.67,945.00
848,927.18,1952.79,151.39,8594.33,938.67
850,927.49,1956.42,145.38,8538.67,939.67
852,927.80,1960.05,141.98,8517.67,956.33
854,928.11,1963.67,193.87,8510.33,950.67
856,928.42,1967.29,193.16,8459.00,954.67
858,928.74,1970.91,204.89,8419.67,955.00
860,929.05,1974.52,192.58,8349.00,940.33
862,929.36,1978.13,189.85,8298.67,934.00
864,929.67,1981.74,169.55,8231.00,947.67
866,929.98,1985.35,146.91,8160.67,950.33
868,930.29,1988.95,121.79,8091.33,946.00
870,930.61,1992.54,86.15,7988.67,935.00
872,930.92,1996.14,89.35,7964.00,943.67
874,931.23,1999.73,48.12,7886.33,956.33
876,931.54,2003.32,84.61,7866.67,954.33
878,931.85,2006.90,58.23,7782.00,946.00
880,932.16,2010.48,101.55,7769.33,936.67
882,932.47,2014.06,94.77,7716.00,937.33
884,932.78,2017.63,120.89,7725.00,950.33
886,933.09,2021.21,133.35,7679.33,945.00
888,933.41,2024.77,184.96,7665.67,952.67
890,933.72,2028.34,144.82,7609.00,969.67
892,934.03,2031.90,54.35,7471.33,958.33
894,934.34,2035.46,36.37,7401.33,954.33
896,934.65,2039.01,19.78,7333.67,943.33
898,934.96,2042.57,0.00,7266.67,957.00
900,935.27,2046.11,22.89,7267.33,969.00
902,935.58,2049.66,28.11,7181.00,928.67
904,935.89,2053.20,25.47,7158.67,948.67
906,936.20,2056.74,65.39,7161.00,948.33
908,936.51,2060.28,74.69,7113.67,948.33
910,936.82,2063.81,101.51,7095.67,951.33
912,937.13,2067.34,110.92,7071.33,947.67
914,937.44,2070.86,69.49,6982.67,951.33
916,937.75,2074.39,70.90,6920.00,934.33
918,938.06,2077.91,32.32,6846.67,934.33
920,938.37,2081.42,20.21,6803.67,949.00
922,938.68,2084.94,40.80,6773.00,937.33
924,938.99,2088.45,1.09,6689.67,941.67
926,939.30,2091.95,25.24,6682.00,950.67
928,939.60,2095.46,0.00,6593.33,944.00
930,939.91,2098.96,0.00,6570.67,958.33
932,940.22,2102.45,28.37,6557.33,946.00
934,940.53,2105.95,31.46,6506.67,930.33
936,940.84,2109.44,0.36,6443.00,938.67
938,941.15,2112.92,41.82,6451.67,947.67
940,941.46,2116.41,64.90,6423.33,940.00
942,941.77,2119.89,13.68,6365.67,953.67
944,942.07,2123.37,22.99,6331.00,945.67
946,942.38,2126.84,6.29,6286.00,953.33
948,942.69,2130.31,0.00,6240.33,959.33
950,943.00,2133.78,22.65,6210.33,941.67
952,943.31,2137.24,6.95,6178.00,953.00
954,943.62,2140.70,11.92,6142.00,943.33
956,943.92,2144.16,7.79,6103.33,949.00
958,944.23,2147.62,45.71,6112.00,954.00
960,944.54,2151.07,8.32,6059.33,967.00
962,944.85,2154.52,45.74,6061.67,967.33
964,945.16,2157.96,64.40,6017.67,953.00
966,945.46,2161.40,50.35,5983.67,955.33
968,945.77,2164.84,25.33,5907.00,926.00
970,946.08,2168.28,33.32,5899.33,948.00
972,946.39,2171.71,56.90,5875.33,941.00
974,946.69,2175.14,59.97,5849.00,947.00
976,947.00,2178.57,43.29,5805.67,943.67
978,947.31,2181.99,0.00,5698.67,936.00
980,947.61,2185.41,33.39,5739.67,949.33
982,947.92,2188.82,14.55,5692.00,946.33
984,948.23,2192.24,11.58,5656.33,940.33
986,948.53,2195.65,43.74,5669.33,950.00
988,948.84,2199.05,130.92,5669.67,921.33
990,949.15,2202.46,105.25,5647.33,943.67
992,949.45,2205.86,119.97,5643.00,950.67
994,949.76,2209.25,153.86,5619.33,935.33
996,950.07,2212.65,144.71,5607.67,947.00
998,950.37,2216.04,154.53,5575.67,934.33
1000,950.68,2219.43,177.30,5553.67,941.00
1002,950.98,2222.81,192.75,5556.67,950.67
1004,951.29,2226.19,145.72,5488.00,934.33
1006,951.60,2229.57,134.13,5441.33,932.33
1008,951.90,2232.94,249.39,5495.00,937.67
1010,952.21,2236.32,176.69,5409.67,941.00
1012,952.51,2239.68,168.93,5388.00,942.33
1014,952.82,2243.05,159.58,5339.33,926.67
1016,953.12,2246.41,148.58,5338.00,966.33
1018,953.43,2249.77,155.37,5326.00,979.33
1020,953.73,2253.12,144.50,5265.00,954.67
1022,954.04,2256.48,141.81,5210.00,928.00
1024,954.34,2259.83,115.44,5193.00,960.00
1026,954.65,2263.17,142.36,5153.00,937.67
1028,954.95,2266.51,162.45,5143.67,945.67
1030,955.26,2269.85,108.40,5113.33,962.67
1032,955.56,2273.19,65.78,5038.67,953.33
1034,955.87,2276.52,120.34,5041.00,953.33
1036,956.17,2279.85,110.32,5011.33,960.33
1038,956.48,2283.18,64.17,4931.33,931.67
1040,956.78,2286.50,55.49,4898.00,936.00
1042,957.08,2289.82,130.34,4914.00,926.67
1044,957.39,2293.14,47.85,4855.00,950.67
1046,957.69,2296.45,81.18,4831.67,929.33
1048,957.99,2299.76,93.15,4829.33,956.67
1050,958.30,2303.07,65.75,4783.67,950.33
1052,958.60,2306.38,69.13,4753.33,944.33
1054,958.91,2309.68,49.22,4703.67,942.00
1056,959.21,2312.98,37.50,4672.67,936.00
1058,959.51,2316.27,11.78,4635.00,936.67
1060,959.82,2319.56,2.92,4614.67,959.33
1062,960.12,2322.85,31.84,4589.33,940.00
1064,960.42,2326.14,43.83,4566.33,935.67
1066,960.72,2329.42,35.18,4558.33,948.33
1068,961.03,2332.70,21.11,4526.67,949.33
1070,961.33,2335.97,17.33,4501.67,952.33
1072,961.63,2339.25,61.46,4491.67,939.67
1074,961.93,2342.52,90.34,4491.00,945.00
1076,962.24,2345.78,47.71,4454.67,945.00
1078,962.54,2349.05,50.76,4435.33,946.33
1080,962.84,2352.31,106.49,4433.67,947.67
1082,963.14,2355.56,57.39,4378.67,940.33
1084,963.45,2358.82,46.29,4366.33,939.33
1086,963.75,2362.07,29.77,4335.00,955.67
1088,964.05,2365.32,81.90,4351.33,969.00
1090,964.35,2368.56,34.12,4278.67,945.00
1092,964.65,2371.80,35.88,4268.67,952.67
1094,964.95,2375.04,24.63,4223.67,940.67
1096,965.25,2378.27,53.08,4224.33,942.00
1098,965.56,2381.51,103.02,4242.67,946.33
1100,965.86,2384.73,65.63,4192.33,946.67
1102,966.16,2387.96,123.69,4204.00,943.00
1104,966.46,2391.18,110.24,4185.33,955.00
1106,966.76,2394.40,107.60,4150.67,942.67
1108,967.06,2397.62,72.67,4120.67,958.33
1110,967.36,2400.83,87.77,4090.67,938.33
1112,967.66,2404.04,37.52,4063.33,965.33
1114,967.96,2407.25,60.72,4036.67,933.00
1116,968.26,2410.45,40.27,4002.67,942.00
1118,968.56,2413.65,105.39,4008.67,936.67
1120,968.86,2416.85,70.86,4003.67,969.67
1122,969.16,2420.04,80.97,3971.00,948.67
1124,969.46,2423.23,60.98,3923.67,939.67
1126,969.76,2426.42,29.22,3889.67,945.33
1128,970.06,2429.60,40.50,3862.33,930.00
1130,970.36,2432.79,82.20,3875.33,941.00
1132,970.66,2435.96,68.75,3840.00,935.67
1134,970.96,2439.14,63.41,3829.33,945.00
1136,971.26,2442.31,54.19,3811.00,955.00
1138,971.56,2445.48,53.50,3783.00,946.67
1140,971.86,2448.65,14.53,3736.33,942.67
1142,972.16,2451.81,0.00,3694.33,954.00
1144,972.45,2454.97,18.99,3703.00,947.67
1146,972.75,2458.13,1.97,3675.00,947.67
1148,973.05,2461.28,7.89,3653.33,938.67
1150,973.35,2464.43,0.00,3642.67,953.33
1152,973.65,2467.58,21.68,3632.33,940.33
1154,973.95,2470.72,27.10,3625.00,945.00
1156,974.24,2473.86,55.35,3607.67,934.33
1158,974.54,2477.00,44.05,3584.67,934.67
1160,974.84,2480.13,35.95,3594.00,953.33
1162,975.14,2483.27,9.35,3542.67,940.33
1164,975.43,2486.40,55.89,3544.00,935.33
1166,975.73,2489.52,20.23,3516.00,940.33
1168,976.03,2492.64,0.00,3477.00,938.00
1170,976.33,2495.76,59.01,3510.67,947.00
1172,976.62,2498.88,45.71,3483.33,933.33
1174,976.92,2501.99,0.90,3467.67,958.67
1176,977.22,2505.10,0.00,3441.67,953.33
1178,977.51,2508.21,0.00,3400.33,940.00
1180,977.81,2511.31,0.00,3394.67,947.00
1182,978.11,2514.41,0.00,3395.67,947.00
1184,978.40,2517.51,0.00,3384.67,949.00
1186,978.70,2520.61,2.33,3378.67,943.00
1188,979.00,2523.70,8.23,3394.33,962.67
1190,979.29,2526.79,17.83,3371.00,944.33
1192,979.59,2529.87,44.04,3378.67,947.00
1194,979.88,2532.95,49.38,3359.67,933.00
1196,980.18,2536.03,23.78,3359.67,956.33
1198,980.48,2539.11,69.87,3375.00,958.67
1200,980.77,2542.18,35.95,3342.00,947.67
1202,981.07,2545.25,3.00,3331.33,963.33
1204,981.36,2548.32,0.00,3299.00,945.33
1206,981.66,2551.38,0.00,3315.00,967.00
1208,981.95,2554.44,0.41,3286.67,944.67
1210,982.25,2557.50,0.00,3288.00,968.33
1212,982.54,2560.56,0.00,3279.67,962.00
1214,982.84,2563.61,0.04,3301.33,965.33
1216,983.13,2566.66,1.26,3304.67,962.67
1218,983.43,2569.70,30.64,3331.33,959.33
1220,983.72,2572.74,107.89,3360.33,958.00
1222,984.01,2575.78,120.49,3364.67,954.33
1224,984.31,2578.82,215.76,3422.33,942.33
1226,984.60,2581.85,357.85,3507.33,955.67
1228,984.90,2584.88,568.89,3571.33,935.33
1230,985.19,2587.91,714.53,3657.00,952.67
1232,985.48,2590.93,720.84,3682.00,960.33
1234,985.78,2593.96,734.30,3682.33,949.00
1236,986.07,2596.97,809.29,3711.67,953.00
1238,986.36,2599.99,870.01,3747.33,973.00
1240,986.66,2603.00,739.44,3681.67,966.67
1242,986.95,2606.01,604.44,3626.33,968.33
1244,987.24,2609.01,440.43,3546.33,962.33
1246,987.54,2612.02,320.08,3456.67,929.33
1248,987.83,2615.02,203.68,3424.67,959.00
1250,988.12,2618.01,141.56,3399.00,965.00
1252,988.41,2621.01,56.38,3355.33,960.67
1254,988.71,2624.00,26.86,3326.00,941.00
1256,989.00,2626.99,0.00,3313.00,955.33
1258,989.29,2629.97,0.00,3306.00,948.33
1260,989.58,2632.95,33.10,3333.00,960.67
1262,989.87,2635.93,0.00,3311.00,962.67
1264,990.16,2638.91,0.00,3280.67,949.33
1266,990.46,2641.88,3.61,3328.00,961.33
1268,990.75,2644.85,31.90,3363.33,981.00
1270,991.04,2647.81,0.00,3317.67,954.33
1272,991.33,2650.78,42.27,3358.33,952.00
1274,991.62,2653.74,74.67,3379.00,962.67
1276,991.91,2656.70,111.72,3383.33,954.33
1278,992.20,2659.65,260.92,3456.67,959.67
1280,992.49,2662.60,283.41,3456.33,948.33
1282,992.78,2665.55,401.32,3538.67,975.67
1284,993.07,2668.50,531.93,3592.00,968.33
1286,993.36,2671.44,651.08,3647.33,964.67
1288,993.65,2674.38,767.00,3710.00,974.00
1290,993.94,2677.31,966.17,3771.33,956.33
1292,994.23,2680.25,1118.95,3824.67,962.67
1294,994.52,2683.18,1362.13,3906.33,959.33
1296,994.81,2686.10,1302.45,3874.33,960.33
1298,995.10,2689.03,1350.24,3883.33,963.33
1300,995.39,2691.95,1098.27,3785.33,953.33
1302,995.68,2694.87,715.97,3690.00,970.33
1304,995.97,2697.78,385.91,3564.33,969.00
1306,996.26,2700.70,369.77,3537.33,945.67
1308,996.55,2703.61,495.74,3600.33,957.00
1310,996.84,2706.51,791.50,3731.00,969.67
1312,997.13,2709.42,1277.71,3907.33,959.33
1314,997.41,2712.32,1797.53,4113.33,965.33
1316,997.70,2715.21,2448.65,4347.00,952.33
1318,997.99,2718.11,3231.60,4619.67,950.67
1320,998.28,2721.00,3892.08,4836.00,948.33
1322,998.57,2723.89,4374.38,5031.33,978.67
1324,998.86,2726.77,4608.16,5091.33,955.00
1326,999.14,2729.66,4498.25,5049.67,955.67
1328,999.43,2732.54,4309.01,4980.33,958.33
1330,999.72,2735.41,3950.78,4847.33,954.33
1332,1000.01,2738.29,3571.68,4737.67,975.33
1334,1000.29,2741.16,3177.19,4564.67,961.33
1336,1000.58,2744.03,2943.04,4433.00,948.00
1338,1000.87,2746.89,2586.96,4300.67,968.33
1340,1001.15,2749.75,2214.03,4147.00,955.33
1342,1001.44,2752.61,1830.06,4019.33,963.33
1344,1001.73,2755.47,1438.39,3871.67,958.67
1346,1002.01,2758.32,1207.23,3773.00,953.00
1348,1002.30,2761.17,1033.69,3712.33,967.67
1350,1002.59,2764.02,846.33,3632.33,969.67
1352,1002.87,2766.86,748.79,3565.33,957.00
1354,1003.16,2769.70,614.60,3492.00,945.67
1356,1003.44,2772.54,354.38,3417.33,945.67
1358,1003.73,2775.38,99.53,3365.00,952.67
1360,1004.01,2778.21,4.67,3299.00,938.67
1362,1004.30,2781.04,0.00,3251.00,957.00
1364,1004.58,2783.87,0.00,3237.67,954.00
1366,1004.87,2786.69,0.00,3219.33,941.00
1368,1005.15,2789.51,0.00,3267.00,968.33
1370,1005.44,2792.33,0.00,3330.67,961.33
1372,1005.72,2795.14,0.00,3408.33,965.67
1374,1006.01,2797.95,0.00,3500.67,974.33
1376,1006.29,2800.76,0.00,3575.33,955.00
1378,1006.58,2803.57,0.00,3786.33,978.33
1380,1006.86,2806.37,0.19,3906.67,941.00
1382,1007.14,2809.17,22.63,4098.33,960.67
1384,1007.43,2811.97,279.48,4318.00,951.00
1386,1007.71,2814.77,916.27,4561.67,949.00
1388,1008.00,2817.56,1722.06,4785.33,949.33
1390,1008.28,2820.35,2865.08,5114.33,972.33
1392,1008.56,2823.13,3904.09,5367.00,951.67
1394,1008.85,2825.91,4764.79,5628.67,963.33
1396,1009.13,2828.69,5791.02,5928.33,957.67
1398,1009.41,2831.47,7220.54,6350.00,970.67
1400,1009.69,2834.24,8541.53,6712.00,948.67
1402,1009.98,2837.02,10192.70,7238.67,960.67
1404,1010.26,2839.78,12242.29,7871.00,968.67
1406,1010.54,2842.55,15290.67,8719.00,948.00
1408,1010.82,2845.31,19288.40,9792.33,965.33
1410,1011.11,2848.07,24045.64,10977.67,965.33
1412,1011.39,2850.83,28599.48,12088.00,970.33
1414,1011.67,2853.58,32385.42,13041.67,967.67
1416,1011.95,2856.33,34880.63,13738.00,961.33
1418,1012.23,2859.08,36494.17,14283.67,961.00
1420,1012.51,2861.83,38313.60,14891.00,952.00
1422,1012.80,2864.57,40982.90,15680.67,983.33
1424,1013.08,2867.31,45865.33,16866.33,974.67
1426,1013.36,2870.04,52345.33,18256.00,970.67
1428,1013.64,2872.78,59495.95,19635.00,964.67
1430,1013.92,2875.51,64291.82,20445.67,983.67
1432,1014.20,2878.24,64938.21,20460.67,964.00
1434,1014.48,2880.96,60254.61,19471.00,956.33
1436,1014.76,2883.68,53966.65,18104.00,949.33
1438,1015.04,2886.40,49188.89,16916.33,961.33
1440,1015.32,2889.12,46192.86,15979.33,973.00
1442,1015.60,2891.83,44680.71,15348.33,955.67
1444,1015.88,2894.54,43626.44,14940.00,968.33
1446,1016.16,2897.25,42282.77,14510.00,954.67
1448,1016.44,2899.96,42109.01,14396.67,967.33
1450,1016.72,2902.66,43229.78,14541.00,969.33
1452,1017.00,2905.36,45039.87,14821.00,969.67
1454,1017.28,2908.06,47053.93,15128.33,960.00
1456,1017.55,2910.75,49287.29,15526.00,972.67
1458,1017.83,2913.44,50822.72,15776.00,954.33
1460,1018.11,2916.13,51928.02,15989.67,969.00
1462,1018.39,2918.81,53064.02,16168.00,976.67
1464,1018.67,2921.49,54976.98,16455.00,958.67
1466,1018.95,2924.17,56459.91,16652.67,951.33
1468,1019.22,2926.85,57535.03,16818.33,966.67
1470,1019.50,2929.52,58349.55,16868.67,944.67
1472,1019.78,2932.20,59446.96,16863.33,946.33
1474,1020.06,2934.86,60443.53,16696.33,955.67
1476,1020.33,2937.53,59676.05,16262.67,979.33
1478,1020.61,2940.19,54157.83,15095.33,961.00
1480,1020.89,2942.85,46262.31,13642.33,973.33
1482,1021.17,2945.51,39189.78,12253.33,962.00
1484,1021.44,2948.16,35189.80,11368.00,963.33
1486,1021.72,2950.81,34180.13,10984.00,962.00
1488,1022.00,2953.46,35334.26,10987.00,975.33
1490,1022.27,2956.11,37614.35,11152.67,953.67
1492,1022.55,2958.75,40192.76,11430.67,981.67
1494,1022.82,2961.39,41666.77,11501.00,960.00
1496,1023.10,2964.03,40486.39,11215.33,980.33
1498,1023.38,2966.66,37269.17,10577.00,958.33
1500,1023.65,2969.29,33249.59,9807.33,972.33
1502,1023.93,2971.92,29246.75,8960.33,975.33
1504,1024.20,2974.55,25962.03,8201.67,969.33
1506,1024.48,2977.17,22455.64,7414.67,958.67
1508,1024.75,2979.79,18748.29,6640.33,954.33
1510,1025.03,2982.41,14971.91,5881.00,966.67
1512,1025.30,2985.02,12095.09,5272.00,956.67
1514,1025.58,2987.63,9529.06,4727.00,960.00
1516,1025.85,2990.24,7566.65,4290.00,952.67
1518,1026.13,2992.85,5782.46,3925.33,971.67
1520,1026.40,2995.45,4332.61,3609.00,966.00
1522,1026.68,2998.05,3291.67,3367.33,959.00
1524,1026.95,3000.65,2404.13,3175.00,968.33
1526,1027.22,3003.25,1554.03,2983.33,958.67
1528,1027.50,3005.84,900.34,2834.33,952.00
1530,1027.77,3008.43,298.54,2701.67,963.33
1532,1028.04,3011.02,45.86,2599.00,970.67
1534,1028.32,3013.60,0.00,2455.33,960.00
1536,1028.59,3016.18,0.00,2372.00,963.67
1538,1028.86,3018.76,0.00,2268.33,936.33
1540,1029.14,3021.34,0.00,2226.33,958.67
1542,1029.41,3023.91,0.00,2144.00,947.67
1544,1029.68,3026.48,0.00,2080.67,950.67
1546,1029.95,3029.05,0.00,2068.33,961.33
1548,1030.22,3031.61,0.00,2003.67,959.33
1550,1030.50,3034.17,0.00,1963.67,946.67
1552,1030.77,3036.73,0.00,1915.00,954.67
1554,1031.04,3039.29,68.86,1914.33,964.00
1556,1031.31,3041.84,0.00,1814.67,939.33
1558,1031.58,3044.39,0.00,1839.67,977.33
1560,1031.85,3046.94,3.48,1822.00,972.33
1562,1032.13,3049.49,0.00,1770.00,953.33
1564,1032.40,3052.03,0.00,1761.67,975.67
1566,1032.67,3054.57,0.00,1722.67,952.00
1568,1032.94,3057.11,0.00,1715.67,980.33
1570,1033.21,3059.64,13.83,1679.00,941.67
1572,1033.48,3062.18,0.20,1689.33,975.00
1574,1033.75,3064.70,0.00,1654.33,959.00
1576,1034.02,3067.23,0.00,1638.33,971.33
1578,1034.29,3069.75,0.00,1598.33,939.67
1580,1034.56,3072.28,57.67,1627.33,966.00
1582,1034.83,3074.79,41.97,1579.00,941.33
1584,1035.10,3077.31,138.45,1594.67,957.67
1586,1035.37,3079.82,0.00,1552.67,951.00
1588,1035.64,3082.33,14.18,1582.33,980.33
1590,1035.91,3084.84,0.00,1545.67,961.33
1592,1036.17,3087.34,67.47,1533.33,951.33
1594,1036.44,3089.85,111.09,1553.00,979.00
1596,1036.71,3092.35,0.00,1500.67,956.33
1598,1036.98,3094.84,14.56,1491.33,946.33
1600,1037.25,3097.34,41.56,1489.33,946.33
1602,1037.52,3099.83,0.00,1473.33,955.00
1604,1037.78,3102.32,4.25,1473.33,956.67
1606,1038.05,3104.80,0.00,1471.33,972.00
1608,1038.32,3107.29,197.49,1468.67,950.67
1610,1038.59,3109.77,57.39,1450.00,950.67
1612,1038.85,3112.24,0.00,1434.00,949.33
1614,1039.12,3114.72,0.00,1438.00,964.67
1616,1039.39,3117.19,0.00,1411.33,941.67
1618,1039.66,3119.66,32.66,1448.00,976.00
1620,1039.92,3122.13,76.90,1433.67,963.67
1622,1040.19,3124.59,116.02,1432.67,961.33
1624,1040.45,3127.05,0.00,1398.00,949.67
1626,1040.72,3129.51,0.00,1410.67,964.00
1628,1040.99,3131.97,18.85,1421.67,971.67
1630,1041.25,3134.42,0.00,1418.33,977.00
1632,1041.52,3136.87,0.00,1379.67,940.33
1634,1041.78,3139.32,0.00,1393.67,963.33
1636,1042.05,3141.77,0.00,1449.33,1011.33
1638,1042.32,3144.21,0.00,1391.33,955.33
1640,1042.58,3146.65,0.00,1412.33,972.00
1642,1042.85,3149.09,0.00,1404.00,969.00
1644,1043.11,3151.52,89.39,1414.67,961.33
1646,1043.38,3153.96,102.92,1423.00,967.67
1648,1043.64,3156.39,58.85,1408.33,955.00
1650,1043.90,3158.81,82.43,1416.33,958.00
1652,1044.17,3161.24,157.94,1432.33,966.00
1654,1044.43,3163.66,162.07,1414.67,948.33
1656,1044.70,3166.08,163.14,1447.67,980.00
1658,1044.96,3168.49,178.59,1436.33,964.00
1660,1045.22,3170.91,0.00,1414.00,958.00
1662,1045.49,3173.32,164.85,1438.33,958.00
1664,1045.75,3175.73,55.52,1430.67,965.33
1666,1046.01,3178.13,333.47,1442.67,952.67
1668,1046.28,3180.54,98.33,1446.00,976.33
1670,1046.54,3182.94,192.32,1455.00,974.00
1672,1046.80,3185.34,251.76,1450.00,960.00
1674,1047.07,3187.73,267.32,1439.00,948.33
1676,1047.33,3190.12,197.59,1440.33,957.33
1678,1047.59,3192.51,104.40,1442.33,966.00
1680,1047.85,3194.90,124.10,1463.33,982.67
1682,1048.11,3197.29,120.92,1457.33,976.67
1684,1048.38,3199.67,151.47,1457.00,973.67
1686,1048.64,3202.05,54.29,1455.67,980.00
1688,1048.90,3204.43,53.11,1441.00,964.00
1690,1049.16,3206.80,72.37,1438.67,959.33
1692,1049.42,3209.17,194.57,1458.00,969.33
1694,1049.68,3211.54,244.26,1443.67,952.67
1696,1049.94,3213.91,97.51,1445.67,964.00
1698,1050.20,3216.27,156.06,1456.33,966.33
1700,1050.46,3218.63,0.00,1454.67,992.00
1702,1050.72,3220.99,12.50,1447.67,969.33
1704,1050.98,3223.35,86.90,1456.33,971.00
1706,1051.24,3225.70,77.69,1451.00,964.00
1708,1051.50,3228.05,18.12,1439.00,955.00
1710,1051.76,3230.40,95.22,1466.00,971.67
1712,1052.02,3232.75,227.59,1475.67,970.00
1714,1052.28,3235.09,256.77,1488.67,981.67
1716,1052.54,3237.43,109.17,1459.33,964.00
1718,1052.80,3239.77,397.16,1478.33,958.00
1720,1053.06,3242.11,286.08,1472.00,963.00
1722,1053.32,3244.44,720.96,1489.33,950.67
1724,1053.58,3246.77,805.42,1525.33,989.33
1726,1053.84,3249.10,1147.97,1519.33,965.33
1728,1054.10,3251.42,1305.12,1524.00,965.00
1730,1054.35,3253.75,1519.93,1530.33,961.67
1732,1054.61,3256.07,1828.72,1560.00,974.67
1734,1054.87,3258.39,2081.70,1562.00,963.33
1736,1055.13,3260.70,2197.39,1569.67,968.00
1738,1055.38,3263.01,2658.18,1589.67,962.67
1740,1055.64,3265.32,3033.50,1609.33,965.33
1742,1055.90,3267.63,3414.69,1615.00,953.00
1744,1056.16,3269.94,3912.80,1669.00,979.67
1746,1056.41,3272.24,4065.92,1679.00,985.00
1748,1056.67,3274.54,4345.22,1679.00,972.33
1750,1056.93,3276.84,4777.72,1704.33,976.67
1752,1057.18,3279.13,5420.44,1724.67,962.67
1754,1057.44,3281.42,5423.10,1711.33,957.33
1756,1057.69,3283.71,6341.35,1765.00,961.33
1758,1057.95,3286.00,7001.39,1820.00,984.67
1760,1058.21,3288.28,7262.98,1805.67,962.00
1762,1058.46,3290.57,7843.52,1846.00,973.67
1764,1058.72,3292.85,8498.21,1878.00,973.67
1766,1058.97,3295.12,8739.09,1863.33,953.33
1768,1059.23,3297.40,9265.39,1889.00,958.33
1770,1059.48,3299.67,10173.54,1940.33,968.67
1772,1059.74,3301.94,10427.73,1932.67,956.67
1774,1059.99,3304.21,10379.95,1944.00,978.33
1776,1060.25,3306.47,11350.78,1991.67,979.33
1778,1060.50,3308.73,11973.12,1997.33,964.00
1780,1060.76,3310.99,12295.76,2006.67,971.00
1782,1061.01,3313.25,12694.61,2009.33,964.67
1784,1061.26,3315.50,12225.00,1968.67,960.00
1786,1061.52,3317.76,12473.66,1985.33,972.33
1788,1061.77,3320.01,11722.12,1946.33,984.33
1790,1062.02,3322.25,11691.21,1907.67,956.33
1792,1062.28,3324.50,10861.40,1871.33,971.67
1794,1062.53,3326.74,9994.20,1794.67,949.67
1796,1062.78,3328.98,9469.69,1769.00,962.00
1798,1063.04,3331.22,8662.57,1713.67,956.33
1800,1063.29,3333.45,7627.70,1657.00,956.33
1802,1063.54,3335.68,6833.63,1618.67,960.67
1804,1063.79,3337.91,6071.98,1589.00,972.67
1806,1064.05,3340.14,5490.38,1565.67,983.33
1808,1064.30,3342.36,5007.35,1505.00,955.00
1810,1064.55,3344.59,4853.81,1507.00,975.00
1812,1064.80,3346.81,5131.28,1499.33,962.67
1814,1065.05,3349.02,4572.02,1461.33,957.33
1816,1065.30,3351.24,4850.00,1487.67,974.00
1818,1065.55,3353.45,4777.06,1465.33,961.33
1820,1065.81,3355.66,4979.80,1496.00,991.00
1822,1066.06,3357.87,5251.56,1476.00,966.67
1824,1066.31,3360.07,5358.51,1458.67,950.00
1826,1066.56,3362.27,5201.73,1472.00,974.67
1828,1066.81,3364.47,5350.43,1456.00,957.67
1830,1067.06,3366.67,6006.14,1485.33,964.67
1832,1067.31,3368.87,5227.86,1448.33,967.00
1834,1067.56,3371.06,5572.81,1437.67,945.33
1836,1067.81,3373.25,5486.38,1431.33,948.33
1838,1068.06,3375.44,5606.67,1433.33,952.67
1840,1068.31,3377.62,5598.61,1431.33,958.67
1842,1068.56,3379.81,5503.50,1407.33,945.00
1844,1068.80,3381.99,5286.73,1434.00,985.33
1846,1069.05,3384.16,4838.60,1399.33,972.33
1848,1069.30,3386.34,4623.91,1373.33,957.67
1850,1069.55,3388.51,3965.35,1342.67,955.67
1852,1069.80,3390.68,3533.04,1334.00,966.67
1854,1070.05,3392.85,2973.56,1327.00,985.33
1856,1070.30,3395.02,2828.02,1296.00,964.67
1858,1070.54,3397.18,2345.04,1258.00,950.67
1860,1070.79,3399.34,2149.51,1264.67,969.00
1862,1071.04,3401.50,2016.42,1246.33,958.67
1864,1071.29,3403.66,1533.42,1212.00,944.33
1866,1071.53,3405.81,1361.06,1220.33,960.00
1868,1071.78,3407.96,1072.89,1205.67,958.00
1870,1072.03,3410.11,976.85,1207.00,966.67
1872,1072.27,3412.26,886.30,1197.67,966.67
1874,1072.52,3414.40,597.67,1176.00,960.00
1876,1072.77,3416.54,842.82,1176.33,954.67
1878,1073.01,3418.68,675.56,1189.00,971.00
1880,1073.26,3420.82,147.15,1134.67,938.33
1882,1073.51,3422.96,301.22,1166.33,966.33
1884,1073.75,3425.09,313.30,1157.33,960.00
1886,1074.00,3427.22,56.10,1132.33,950.00
1888,1074.24,3429.35,142.51,1162.00,980.33
1890,1074.49,3431.47,304.03,1134.33,953.00
1892,1074.73,3433.59,464.03,1126.00,944.33
1894,1074.98,3435.71,49.17,1147.00,979.33
1896,1075.22,3437.83,22.23,1122.67,959.00
1898,1075.47,3439.95,190.44,1136.00,968.00
1900,1075.71,3442.06,9.72,1130.00,973.67
1902,1075.96,3444.17,143.74,1117.67,959.33
1904,1076.20,3446.28,0.00,1078.67,930.33
1906,1076.44,3448.38,195.21,1135.33,983.67
1908,1076.69,3450.49,783.71,1126.00,964.00
1910,1076.93,3452.59,450.55,1118.33,965.33
1912,1077.17,3454.69,0.00,1092.33,958.33
1914,1077.42,3456.79,42.75,1099.33,963.33
1916,1077.66,3458.88,262.05,1091.00,951.33
1918,1077.90,3460.97,241.42,1081.67,946.67
1920,1078.15,3463.06,290.15,1111.67,978.00
1922,1078.39,3465.15,77.44,1085.33,959.33
1924,1078.63,3467.23,388.04,1074.00,942.33
1926,1078.87,3469.32,131.71,1095.33,972.67
1928,1079.12,3471.40,316.71,1081.00,954.00
1930,1079.36,3473.47,185.10,1107.00,985.33
1932,1079.60,3475.55,153.64,1069.00,950.67
1934,1079.84,3477.62,0.00,1080.33,970.33
1936,1080.08,3479.69,68.63,1066.67,957.00
1938,1080.33,3481.76,686.01,1065.33,944.33
1940,1080.57,3483.83,449.21,1077.67,963.33
1942,1080.81,3485.89,594.72,1076.67,959.33
1944,1081.05,3487.95,57.78,1075.33,974.00
1946,1081.29,3490.01,464.22,1072.67,964.00
1948,1081.53,3492.07,213.12,1057.00,956.33
1950,1081.77,3494.12,449.61,1054.33,949.33
1952,1082.01,3496.18,27.31,1065.33,972.33
1954,1082.25,3498.23,230.01,1048.33,950.33
1956,1082.49,3500.27,43.77,1055.00,965.00
1958,1082.73,3502.32,325.08,1044.33,948.67
1960,1082.97,3504.36,524.93,1061.67,965.33
1962,1083.21,3506.40,716.03,1047.33,950.33
1964,1083.45,3508.44,1053.80,1037.33,934.33
1966,1083.69,3510.48,0.00,1067.67,990.33
1968,1083.93,3512.51,739.71,1056.67,961.33
1970,1084.16,3514.54,503.99,1040.00,952.33
1972,1084.40,3516.57,1000.88,1048.67,951.33
1974,1084.64,3518.60,192.28,1031.00,951.33
1976,1084.88,3520.62,269.07,1055.67,974.00
1978,1085.12,3522.65,282.17,1061.33,981.67
1980,1085.36,3524.67,960.73,1052.00,962.00
1982,1085.59,3526.68,982.86,1036.00,950.00
1984,1085.83,3528.70,868.92,1052.67,968.67
1986,1086.07,3530.71,761.55,1027.33,942.67
1988,1086.31,3532.72,541.20,1047.33,966.00
1990,1086.54,3534.73,534.95,1024.67,945.00
1992,1086.78,3536.74,430.77,1052.00,979.00
1994,1087.02,3538.74,1488.77,1048.67,960.67
1996,1087.25,3540.74,815.65,1020.33,945.00
1998,1087.49,3542.74,465.90,1030.33,960.67
2000,1087.73,3544.74,488.60,1028.67,958.67
2002,1087.96,3546.74,648.39,1027.67,955.67
2004,1088.20,3548.73,475.41,1049.33,982.33
2006,1088.43,3550.72,895.99,1035.67,962.00
2008,1088.67,3552.71,805.34,1027.33,956.67
2010,1088.90,3554.69,680.91,1013.33,946.33
2012,1089.14,3556.68,541.00,1025.33,962.00
2014,1089.38,3558.66,664.22,1016.00,951.67
2016,1089.61,3560.64,1108.08,1013.67,943.00
2018,1089.84,3562.62,816.59,1025.33,960.00
2020,1090.08,3564.59,354.45,1005.00,947.67
2022,1090.31,3566.56,689.56,1009.00,944.33
2024,1090.55,3568.53,264.68,1009.00,953.67
2026,1090.78,3570.50,405.34,996.67,939.33
2028,1091.02,3572.47,495.50,1002.67,945.67
2030,1091.25,3574.43,750.57,1002.00,943.00
2032,1091.48,3576.39,495.59,983.33,929.67
2034,1091.72,3578.35,1082.09,988.00,926.67
2036,1091.95,3580.31,880.72,1006.00,947.67
2038,1092.18,3582.26,228.24,974.67,926.67
2040,1092.42,3584.22,674.01,979.00,926.00
2042,1092.65,3586.17,0.00,980.33,937.00
2044,1092.88,3588.12,608.57,980.33,923.33
2046,1093.11,3590.06,4.23,969.33,926.67
2047,1093.23,3591.03,0.00,960.67,920.67