File: src/enlighten/plugins/Raman/MatchingLibrary/785X/2-methyl propanol.csv
ENLIGHTEN Version,4.1.22
Measurement ID,20250220-200056-941028-WP-01977
Serial Number,WP-01977
Model,WP-785X-F13-R-ILC
Detector,S16011-1106
Label,2-methyl propanol
Declared Match,
Declared Score,0
Scan Averaging,4
Boxcar,0
Technique,Raman
Baseline Correction Algo,AirPLS
ROI Pixel Start,47
ROI Pixel End,2047
ROI Start Line,0
ROI Stop Line,63
CCD C4,1.38617e-12
Slit Width,25
Cropped,True
Interpolated,False
Wavenumber Correction,-0.100481
Raman Intensity Corrected,True
Deconvolved,True
Region,
High Gain Mode,False
Laser Power mW,
Electrical Dark Correction,False
Battery %,
Device ID,<DeviceID USB:0x24aa:0x1000:0:1>
FW Version,10.0.0.10
FPGA Version,035-001
BLE Version,
Prefix,enlighten
Suffix,
Preset,
Auto-Raman,True
Session Count,0
Plugin Name,
Integration Time,323
Timestamp,2025-02-20 20:00:56.941
Note,
Temperature,0
CCD C0,793.274
CCD C1,0.153259
CCD C2,1.40788e-05
CCD C3,-1.132e-08
CCD Offset,0
CCD Gain,1.9
CCD Offset Odd,0
CCD Gain Odd,1.9
Laser Wavelength,785.032
Laser Enable,False
Laser Power %,0
Laser Temperature,0
Pixel Count,2048

Pixel,Wavelength,Wavenumber,Processed,Raw,Dark
0,793.27,132.25,NA,936.75,916.75
2,793.58,137.12,NA,945.00,926.00
4,793.89,141.99,NA,942.50,922.50
6,794.19,146.86,NA,941.25,918.75
8,794.50,151.72,NA,953.50,935.50
10,794.81,156.58,NA,949.50,931.50
12,795.12,161.44,NA,935.75,916.00
14,795.42,166.30,NA,939.25,918.75
16,795.73,171.16,NA,943.00,920.25
18,796.04,176.01,NA,955.25,937.25
20,796.35,180.86,NA,958.50,932.00
22,796.65,185.71,NA,970.50,947.00
24,796.96,190.56,NA,958.75,932.00
26,797.27,195.41,NA,975.00,945.50
28,797.58,200.25,NA,970.25,940.50
30,797.88,205.09,NA,963.50,928.50
32,798.19,209.93,NA,957.00,926.00
34,798.50,214.77,NA,957.25,928.00
36,798.81,219.60,NA,963.25,929.00
38,799.12,224.43,NA,991.75,930.25
40,799.43,229.27,NA,1096.25,945.00
42,799.74,234.09,NA,1476.00,936.00
44,800.04,238.92,NA,2083.00,958.50
46,800.35,243.75,NA,2345.50,929.75
48,800.66,248.57,132.14,2430.50,951.00
50,800.97,253.39,170.50,2467.50,943.50
52,801.28,258.21,231.60,2568.00,947.75
54,801.59,263.02,339.59,2682.50,949.75
56,801.90,267.83,422.67,2752.75,937.25
58,802.21,272.65,450.09,2791.50,946.50
60,802.52,277.46,392.65,2723.25,946.75
62,802.83,282.26,291.30,2612.25,959.50
64,803.14,287.07,217.23,2508.00,956.25
66,803.45,291.87,165.81,2417.75,950.00
68,803.76,296.67,106.13,2340.50,953.50
70,804.07,301.47,68.40,2275.50,945.50
72,804.38,306.26,52.78,2222.50,937.50
74,804.69,311.06,3.37,2174.00,945.50
76,805.00,315.85,0.00,2142.75,940.25
78,805.31,320.64,0.00,2134.50,947.75
80,805.62,325.42,0.00,2122.00,948.25
82,805.93,330.21,0.38,2134.75,946.25
84,806.24,334.99,43.01,2203.25,935.75
86,806.55,339.77,157.76,2360.75,945.75
88,806.86,344.55,343.47,2697.25,948.50
90,807.17,349.32,844.22,3421.50,936.25
92,807.48,354.10,1854.67,4558.00,941.00
94,807.80,358.87,2513.12,5220.25,950.75
96,808.11,363.63,1964.67,4750.75,946.00
98,808.42,368.40,1189.35,3871.75,931.50
100,808.73,373.16,833.04,3323.25,938.25
102,809.04,377.93,724.23,3062.00,934.25
104,809.35,382.68,557.00,2805.75,931.50
106,809.66,387.44,291.75,2487.00,941.50
108,809.98,392.19,162.10,2282.00,928.25
110,810.29,396.95,94.36,2180.50,943.00
112,810.60,401.70,115.90,2185.00,932.25
114,810.91,406.44,155.02,2260.00,934.75
116,811.22,411.19,295.97,2518.00,944.00
118,811.54,415.93,679.58,3054.50,945.00
120,811.85,420.67,1289.69,3699.75,929.25
122,812.16,425.41,1468.05,3889.00,935.75
124,812.47,430.14,985.74,3407.25,940.50
126,812.79,434.87,522.77,2799.75,932.50
128,813.10,439.60,299.96,2433.75,930.50
130,813.41,444.33,227.75,2286.75,938.75
132,813.72,449.06,195.46,2221.25,931.00
134,814.04,453.78,198.61,2224.75,935.00
136,814.35,458.50,251.78,2274.25,925.50
138,814.66,463.22,334.79,2400.50,923.00
140,814.98,467.93,451.43,2607.50,933.00
142,815.29,472.65,723.63,3053.25,931.75
144,815.60,477.36,1177.64,3891.75,939.50
146,815.92,482.06,2218.22,5660.00,924.50
148,816.23,486.77,4379.86,8782.75,940.50
150,816.54,491.47,7397.14,12348.75,953.00
152,816.86,496.17,8208.72,13220.75,929.50
154,817.17,500.87,5936.03,10711.50,939.75
156,817.48,505.57,3183.38,7130.50,930.00
158,817.80,510.26,1564.20,4567.25,929.25
160,818.11,514.95,860.15,3276.75,935.75
162,818.42,519.64,527.57,2656.50,940.75
164,818.74,524.32,321.57,2288.25,936.50
166,819.05,529.00,206.57,2090.75,942.00
168,819.37,533.68,129.47,1945.00,931.50
170,819.68,538.36,100.19,1879.75,936.50
172,819.99,543.04,60.94,1814.25,942.00
174,820.31,547.71,27.19,1747.00,934.75
176,820.62,552.38,13.60,1698.50,920.75
178,820.94,557.05,6.61,1680.50,931.50
180,821.25,561.71,0.00,1640.25,920.75
182,821.57,566.37,0.00,1618.75,922.50
184,821.88,571.03,0.00,1625.00,933.75
186,822.20,575.69,0.00,1610.75,933.50
188,822.51,580.34,0.00,1609.00,928.75
190,822.83,584.99,0.24,1620.25,934.75
192,823.14,589.64,31.31,1675.00,931.25
194,823.46,594.29,95.96,1735.25,929.75
196,823.77,598.93,153.44,1790.50,927.00
198,824.09,603.57,97.21,1721.25,920.25
200,824.40,608.21,40.95,1657.75,936.75
202,824.72,612.85,15.24,1613.75,944.00
204,825.03,617.48,0.56,1564.25,933.25
206,825.35,622.11,0.00,1560.50,943.00
208,825.66,626.74,0.00,1550.50,945.00
210,825.98,631.36,1.13,1548.75,928.50
212,826.29,635.99,15.56,1564.25,930.25
214,826.61,640.61,22.76,1557.75,929.00
216,826.92,645.22,6.10,1534.75,925.50
218,827.24,649.84,0.34,1515.25,921.50
220,827.56,654.45,0.42,1528.00,938.75
222,827.87,659.06,0.00,1520.25,939.00
224,828.19,663.67,0.00,1506.75,934.50
226,828.50,668.27,0.78,1534.00,957.50
228,828.82,672.87,0.00,1507.25,942.50
230,829.13,677.47,0.00,1489.75,933.00
232,829.45,682.06,0.00,1502.50,936.75
234,829.77,686.66,0.00,1530.50,968.25
236,830.08,691.25,0.00,1494.50,937.25
238,830.40,695.83,0.17,1517.75,936.50
240,830.72,700.42,5.83,1524.00,929.00
242,831.03,705.00,7.19,1512.50,913.25
244,831.35,709.58,0.00,1525.25,934.00
246,831.66,714.15,2.24,1520.25,911.50
248,831.98,718.73,0.00,1529.50,933.50
250,832.30,723.30,0.00,1535.25,924.50
252,832.61,727.87,0.00,1557.50,938.25
254,832.93,732.43,0.00,1539.50,911.25
256,833.25,736.99,1.57,1607.25,937.25
258,833.56,741.55,21.02,1647.25,927.75
260,833.88,746.11,40.04,1681.75,924.50
262,834.20,750.66,50.72,1729.75,931.75
264,834.51,755.22,92.52,1820.75,934.00
266,834.83,759.76,132.61,1908.75,939.25
268,835.15,764.31,212.43,2079.25,940.00
270,835.47,768.85,357.90,2438.75,921.00
272,835.78,773.39,713.09,3421.75,923.00
274,836.10,777.93,2097.02,6066.00,927.00
276,836.42,782.46,5876.84,10385.50,935.75
278,836.73,787.00,6456.60,10980.00,920.75
280,837.05,791.52,2624.72,6961.75,919.00
282,837.37,796.05,1216.28,4563.25,935.00
284,837.69,800.57,1347.36,4591.75,921.00
286,838.00,805.09,2195.82,6656.75,931.25
288,838.32,809.61,4853.02,12963.25,931.50
290,838.64,814.13,14256.90,27550.50,945.00
292,838.95,818.64,29164.09,42517.00,929.00
294,839.27,823.15,21720.19,35709.25,928.25
296,839.59,827.65,7134.65,17691.50,939.75
298,839.91,832.15,2568.64,8161.75,928.75
300,840.22,836.65,1500.67,4979.75,946.50
302,840.54,841.15,1070.55,3835.00,929.75
304,840.86,845.65,794.31,3318.25,942.00
306,841.18,850.14,561.97,2938.00,933.75
308,841.50,854.63,358.40,2638.25,964.50
310,841.81,859.11,235.18,2392.00,930.00
312,842.13,863.60,93.84,2193.50,936.75
314,842.45,868.07,24.57,2060.50,920.75
316,842.77,872.55,2.07,2049.75,933.25
318,843.08,877.03,0.00,2052.00,949.25
320,843.40,881.50,2.83,2075.50,915.50
322,843.72,885.97,50.04,2209.25,935.00
324,844.04,890.43,197.43,2520.50,921.25
326,844.36,894.89,599.38,3200.00,922.50
328,844.67,899.35,1243.96,4043.50,938.00
330,844.99,903.81,1451.85,4348.25,922.75
332,845.31,908.26,1112.84,4064.50,929.00
334,845.63,912.71,840.75,3765.50,939.75
336,845.95,917.16,1011.51,3953.00,933.00
338,846.27,921.61,1331.48,4422.75,1051.75
340,846.58,926.05,1247.31,4363.50,933.00
342,846.90,930.49,1215.05,4623.25,932.25
344,847.22,934.92,1899.53,5766.25,931.50
346,847.54,939.36,3487.01,7583.50,916.25
348,847.86,943.79,3669.91,7890.25,919.25
350,848.18,948.21,2349.13,6768.00,925.50
352,848.49,952.64,2111.03,6781.25,932.25
354,848.81,957.06,4027.74,9245.25,914.25
356,849.13,961.48,6421.10,11480.00,952.25
358,849.45,965.89,4296.09,9327.50,944.00
360,849.77,970.31,1685.39,5857.25,929.50
362,850.09,974.71,773.70,3994.75,931.75
364,850.40,979.12,462.80,3235.00,939.75
366,850.72,983.52,277.97,2887.25,948.75
368,851.04,987.92,184.27,2710.50,917.25
370,851.36,992.32,189.33,2755.75,919.75
372,851.68,996.72,361.73,3062.75,926.50
374,852.00,1001.11,702.44,3469.25,921.75
376,852.32,1005.50,823.99,3588.50,915.00
378,852.63,1009.88,454.25,3241.25,946.00
380,852.95,1014.26,185.02,2857.50,933.00
382,853.27,1018.64,166.72,2831.00,940.75
384,853.59,1023.02,324.85,3084.50,930.00
386,853.91,1027.39,617.88,3586.50,918.00
388,854.23,1031.76,1066.80,4389.75,922.00
390,854.55,1036.13,1731.05,5443.75,932.75
392,854.87,1040.49,2405.71,6485.00,926.00
394,855.18,1044.86,2780.52,7168.50,937.50
396,855.50,1049.21,3032.29,7516.25,935.75
398,855.82,1053.57,3016.01,7335.50,932.50
400,856.14,1057.92,2253.72,6246.75,922.00
402,856.46,1062.27,1182.16,4734.75,925.75
404,856.78,1066.62,508.43,3590.00,915.50
406,857.10,1070.96,191.08,2994.25,917.25
408,857.42,1075.30,34.85,2740.25,940.00
410,857.74,1079.64,0.21,2609.50,930.50
412,858.06,1083.97,0.35,2615.25,922.00
414,858.37,1088.30,8.16,2660.25,924.00
416,858.69,1092.63,68.44,2768.00,913.75
418,859.01,1096.95,195.73,2990.50,913.50
420,859.33,1101.27,345.64,3303.50,928.25
422,859.65,1105.59,670.45,3909.50,928.00
424,859.97,1109.91,1193.66,4849.00,914.75
426,860.29,1114.22,1994.59,6314.25,923.00
428,860.61,1118.53,3337.12,8458.50,917.00
430,860.93,1122.84,5116.30,10757.50,922.50
432,861.25,1127.14,5798.96,11550.25,936.25
434,861.56,1131.44,4393.78,9960.00,921.25
436,861.88,1135.74,2822.99,7782.50,918.50
438,862.20,1140.03,1984.15,6290.75,925.50
440,862.52,1144.32,1554.01,5436.50,923.00
442,862.84,1148.61,1227.23,4867.50,930.50
444,863.16,1152.89,1041.94,4558.00,924.00
446,863.48,1157.17,965.62,4460.50,926.50
448,863.80,1161.45,1007.28,4626.25,932.25
450,864.12,1165.73,1345.54,5234.75,929.25
452,864.44,1170.00,2204.10,6370.25,919.50
454,864.76,1174.27,2860.10,7110.50,927.00
456,865.07,1178.53,2527.60,6717.25,916.25
458,865.39,1182.80,1677.73,5627.50,925.25
460,865.71,1187.06,889.07,4446.00,927.50
462,866.03,1191.31,413.37,3630.25,924.00
464,866.35,1195.57,151.12,3142.25,922.50
466,866.67,1199.82,18.23,2935.75,930.75
468,866.99,1204.06,0.00,2830.00,922.00
470,867.31,1208.31,0.00,2821.75,937.25
472,867.63,1212.55,0.00,2862.25,925.50
474,867.95,1216.79,14.92,2933.25,909.50
476,868.27,1221.02,123.01,3135.75,927.50
478,868.58,1225.25,272.03,3361.75,915.00
480,868.90,1229.48,496.68,3784.50,930.25
482,869.22,1233.71,844.69,4380.75,935.25
484,869.54,1237.93,1302.20,5144.25,943.50
486,869.86,1242.15,1948.74,6095.00,928.25
488,870.18,1246.36,2494.41,6848.00,913.25
490,870.50,1250.58,2752.70,7209.75,929.25
492,870.82,1254.79,2538.38,6915.00,946.50
494,871.14,1258.99,1935.24,6093.25,932.25
496,871.46,1263.20,1284.95,5195.50,937.25
498,871.78,1267.40,905.51,4570.25,926.00
500,872.10,1271.59,816.98,4362.50,919.25
502,872.41,1275.79,847.41,4390.75,920.50
504,872.73,1279.98,971.54,4631.75,929.00
506,873.05,1284.17,1237.29,5158.50,934.50
508,873.37,1288.35,1761.78,6065.25,913.25
510,873.69,1292.53,2850.13,7534.50,919.25
512,874.01,1296.71,3952.43,8698.25,917.50
514,874.33,1300.88,3459.77,8231.50,914.25
516,874.65,1305.06,2261.09,6888.25,929.50
518,874.97,1309.22,1692.10,6005.00,917.50
520,875.29,1313.39,1661.42,5797.75,927.25
522,875.60,1317.55,1769.79,5843.00,929.50
524,875.92,1321.71,1820.90,5934.00,923.50
526,876.24,1325.87,1852.23,6125.25,938.00
528,876.56,1330.02,2057.87,6614.50,922.00
530,876.88,1334.17,2737.51,7749.00,934.50
532,877.20,1338.32,4322.17,9597.75,913.50
534,877.52,1342.46,5272.69,10487.75,916.00
536,877.84,1346.60,3905.25,9143.00,932.75
538,878.16,1350.73,2452.91,7328.25,919.75
540,878.47,1354.87,1860.02,6342.75,926.00
542,878.79,1359.00,1836.73,6146.00,926.50
544,879.11,1363.13,2108.67,6365.00,920.00
546,879.43,1367.25,2303.03,6529.25,924.50
548,879.75,1371.37,2129.53,6323.50,920.25
550,880.07,1375.49,1693.90,5791.25,921.50
552,880.39,1379.60,1400.30,5376.75,926.00
554,880.71,1383.71,1277.19,5142.00,921.25
556,881.03,1387.82,1268.61,5074.25,918.25
558,881.34,1391.93,1216.64,4985.75,910.25
560,881.66,1396.03,1152.47,4921.25,925.00
562,881.98,1400.13,1175.41,4960.50,927.50
564,882.30,1404.22,1217.44,5017.75,925.00
566,882.62,1408.31,1262.12,5078.75,923.50
568,882.94,1412.40,1336.93,5202.00,929.25
570,883.26,1416.49,1392.16,5299.50,921.50
572,883.57,1420.57,1516.03,5517.25,937.25
574,883.89,1424.65,1653.09,5731.25,921.25
576,884.21,1428.73,1932.97,6240.50,936.00
578,884.53,1432.80,2345.42,7070.50,939.25
580,884.85,1436.87,3195.49,8627.00,924.50
582,885.17,1440.93,5127.09,11490.75,915.75
584,885.49,1445.00,8208.74,15299.50,916.25
586,885.80,1449.06,10182.85,18016.25,920.50
588,886.12,1453.11,9986.84,18852.25,940.75
590,886.44,1457.17,10725.20,20238.00,929.00
592,886.76,1461.22,13384.01,22777.00,928.50
594,887.08,1465.26,13997.04,22979.00,939.50
596,887.40,1469.31,10767.29,19369.25,917.00
598,887.71,1473.35,7619.40,15210.50,918.25
600,888.03,1477.38,5523.75,11924.00,927.25
602,888.35,1481.42,3816.83,9275.75,930.50
604,888.67,1485.45,2670.27,7468.50,926.50
606,888.99,1489.48,1987.71,6323.25,914.25
608,889.31,1493.50,1564.79,5614.00,924.50
610,889.62,1497.52,1243.23,5098.00,928.50
612,889.94,1501.54,998.43,4704.25,913.50
614,890.26,1505.56,813.35,4428.00,921.50
616,890.58,1509.57,657.67,4188.25,923.75
618,890.90,1513.57,569.02,4041.25,917.25
620,891.21,1517.58,436.85,3861.50,924.50
622,891.53,1521.58,367.63,3752.50,925.50
624,891.85,1525.58,318.04,3668.75,924.50
626,892.17,1529.57,253.91,3578.25,928.00
628,892.49,1533.57,186.14,3479.75,928.75
630,892.80,1537.56,124.07,3385.00,916.25
632,893.12,1541.54,61.51,3288.00,916.25
634,893.44,1545.52,28.06,3230.25,927.00
636,893.76,1549.50,0.54,3136.75,913.00
638,894.07,1553.48,0.00,3081.75,931.00
640,894.39,1557.45,0.00,3049.50,915.50
642,894.71,1561.42,0.00,3020.50,931.25
644,895.03,1565.39,0.00,2966.50,906.25
646,895.34,1569.35,0.00,2972.50,937.25
648,895.66,1573.31,0.00,2934.00,916.75
650,895.98,1577.26,0.00,2901.50,914.25
652,896.30,1581.22,0.00,2874.75,913.25
654,896.61,1585.17,1.81,2881.50,918.75
656,896.93,1589.11,1.73,2875.25,931.00
658,897.25,1593.06,0.00,2830.50,913.75
660,897.57,1597.00,8.56,2841.50,921.50
662,897.88,1600.93,45.91,2860.50,920.00
664,898.20,1604.87,26.68,2830.50,922.75
666,898.52,1608.80,26.83,2808.00,915.75
668,898.84,1612.72,60.98,2826.00,910.75
670,899.15,1616.65,61.43,2830.50,929.75
672,899.47,1620.57,69.19,2810.75,912.25
674,899.79,1624.49,94.54,2824.00,918.00
676,900.10,1628.40,93.87,2804.00,911.25
678,900.42,1632.31,124.09,2847.25,927.00
680,900.74,1636.22,132.50,2813.50,906.00
682,901.05,1640.12,131.10,2833.75,940.50
684,901.37,1644.02,138.61,2814.50,922.50
686,901.69,1647.92,184.40,2855.00,925.00
688,902.00,1651.82,213.23,2869.00,919.50
690,902.32,1655.71,231.10,2868.75,911.75
692,902.64,1659.60,248.48,2881.75,915.50
694,902.95,1663.48,272.42,2907.75,927.50
696,903.27,1667.36,297.04,2902.75,920.00
698,903.59,1671.24,296.36,2900.75,932.50
700,903.90,1675.11,264.89,2857.00,931.25
702,904.22,1678.99,267.40,2818.75,913.25
704,904.54,1682.85,285.20,2842.00,942.50
706,904.85,1686.72,269.31,2776.50,909.75
708,905.17,1690.58,259.12,2755.50,917.25
710,905.49,1694.44,245.89,2712.00,911.75
712,905.80,1698.29,248.12,2702.00,917.50
714,906.12,1702.15,236.11,2672.00,922.00
716,906.43,1706.00,231.61,2646.50,920.25
718,906.75,1709.84,214.82,2612.75,927.50
720,907.07,1713.68,202.39,2561.75,914.75
722,907.38,1717.52,169.71,2513.00,922.25
724,907.70,1721.36,136.48,2456.25,921.50
726,908.01,1725.19,124.58,2426.00,924.50
728,908.33,1729.02,100.72,2379.25,930.75
730,908.65,1732.85,107.33,2358.25,922.25
732,908.96,1736.67,88.71,2321.75,923.50
734,909.28,1740.49,79.98,2283.25,910.00
736,909.59,1744.30,61.85,2254.00,924.00
738,909.91,1748.12,61.41,2229.25,922.00
740,910.22,1751.93,58.82,2211.50,925.00
742,910.54,1755.73,22.58,2184.75,951.00
744,910.85,1759.54,2.81,2121.50,933.50
746,911.17,1763.34,10.95,2101.00,919.00
748,911.49,1767.13,1.59,2079.75,923.50
750,911.80,1770.93,0.00,2042.75,917.00
752,912.12,1774.72,0.00,2039.00,927.75
754,912.43,1778.50,0.00,2011.75,912.25
756,912.75,1782.29,0.00,2001.50,916.00
758,913.06,1786.07,6.30,2011.75,914.50
760,913.38,1789.84,19.23,2010.50,914.50
762,913.69,1793.62,16.54,2002.00,919.50
764,914.01,1797.39,21.36,2004.50,922.50
766,914.32,1801.15,37.04,2001.00,914.50
768,914.64,1804.92,42.50,1991.25,911.25
770,914.95,1808.68,41.93,1987.25,920.50
772,915.26,1812.44,41.86,1983.75,926.25
774,915.58,1816.19,18.05,1933.50,908.75
776,915.89,1819.94,23.74,1949.00,925.00
778,916.21,1823.69,53.65,1969.25,927.75
780,916.52,1827.43,76.88,1982.75,933.50
782,916.84,1831.17,59.53,1943.75,914.25
784,917.15,1834.91,54.81,1934.50,918.50
786,917.47,1838.64,82.33,1962.50,930.00
788,917.78,1842.38,92.46,1955.75,923.00
790,918.09,1846.10,94.02,1935.75,914.00
792,918.41,1849.83,80.59,1923.75,922.00
794,918.72,1853.55,77.16,1896.50,907.50
796,919.04,1857.27,87.29,1904.50,920.75
798,919.35,1860.98,68.14,1873.00,917.25
800,919.66,1864.69,86.30,1886.00,917.25
802,919.98,1868.40,104.12,1891.75,917.25
804,920.29,1872.11,106.79,1879.00,912.50
806,920.60,1875.81,112.25,1879.25,914.25
808,920.92,1879.51,128.35,1885.00,912.25
810,921.23,1883.20,134.56,1895.75,929.00
812,921.55,1886.90,145.69,1875.00,909.50
814,921.86,1890.58,130.37,1870.00,927.00
816,922.17,1894.27,115.91,1849.50,930.75
818,922.49,1897.95,136.67,1848.50,921.00
820,922.80,1901.63,110.58,1807.75,920.25
822,923.11,1905.31,107.13,1788.50,917.00
824,923.42,1908.98,85.76,1767.00,926.50
826,923.74,1912.65,70.76,1744.50,926.50
828,924.05,1916.31,84.16,1737.50,918.50
830,924.36,1919.98,92.40,1721.50,910.00
832,924.68,1923.64,77.33,1694.75,909.00
834,924.99,1927.29,83.41,1698.50,913.25
836,925.30,1930.94,66.07,1664.00,904.50
838,925.61,1934.59,78.36,1676.25,915.25
840,925.93,1938.24,93.79,1679.75,915.25
842,926.24,1941.88,86.33,1667.50,920.00
844,926.55,1945.52,80.13,1640.75,910.25
846,926.86,1949.16,81.84,1645.00,921.75
848,927.18,1952.79,72.44,1620.75,917.25
850,927.49,1956.42,47.25,1588.50,919.50
852,927.80,1960.05,51.28,1623.25,960.25
854,928.11,1963.67,73.95,1595.25,922.50
856,928.42,1967.29,55.97,1569.75,924.00
858,928.74,1970.91,45.62,1545.25,918.25
860,929.05,1974.52,35.59,1520.00,913.50
862,929.36,1978.13,45.04,1517.25,912.00
864,929.67,1981.74,27.93,1497.50,918.75
866,929.98,1985.35,30.31,1491.75,920.50
868,930.29,1988.95,27.71,1478.25,919.50
870,930.61,1992.54,18.93,1455.25,913.25
872,930.92,1996.14,11.63,1440.00,917.00
874,931.23,1999.73,11.97,1439.75,922.00
876,931.54,2003.32,0.70,1417.00,922.00
878,931.85,2006.90,6.72,1406.75,914.50
880,932.16,2010.48,5.76,1393.50,911.00
882,932.47,2014.06,0.18,1381.00,913.00
884,932.78,2017.63,0.78,1381.25,920.25
886,933.09,2021.21,9.63,1376.75,917.25
888,933.41,2024.77,9.85,1368.50,919.25
890,933.72,2028.34,7.10,1377.75,937.75
892,934.03,2031.90,0.00,1346.50,923.50
894,934.34,2035.46,0.00,1340.00,929.25
896,934.65,2039.01,0.00,1318.75,915.00
898,934.96,2042.57,11.11,1335.75,922.75
900,935.27,2046.11,4.32,1338.25,938.50
902,935.58,2049.66,18.78,1309.25,899.75
904,935.89,2053.20,23.90,1325.50,921.50
906,936.20,2056.74,31.01,1322.25,914.50
908,936.51,2060.28,49.03,1336.00,917.75
910,936.82,2063.81,57.57,1342.25,924.50
912,937.13,2067.34,54.42,1326.25,919.50
914,937.44,2070.86,66.93,1325.50,914.00
916,937.75,2074.39,62.66,1313.75,911.25
918,938.06,2077.91,69.17,1313.25,911.25
920,938.37,2081.42,54.47,1302.50,922.50
922,938.68,2084.94,53.04,1280.50,910.50
924,938.99,2088.45,49.34,1271.25,912.50
926,939.30,2091.95,26.31,1254.00,921.50
928,939.60,2095.46,13.79,1232.50,918.50
930,939.91,2098.96,5.67,1233.00,934.50
932,940.22,2102.45,4.33,1211.25,921.50
934,940.53,2105.95,21.86,1208.00,908.50
936,940.84,2109.44,15.12,1203.75,917.50
938,941.15,2112.92,20.81,1209.75,926.00
940,941.46,2116.41,31.36,1196.00,911.25
942,941.77,2119.89,14.87,1191.25,923.00
944,942.07,2123.37,5.99,1168.75,914.25
946,942.38,2126.84,0.13,1169.00,928.00
948,942.69,2130.31,0.00,1153.75,925.50
950,943.00,2133.78,0.75,1149.00,917.00
952,943.31,2137.24,8.98,1149.00,915.50
954,943.62,2140.70,0.00,1142.75,929.00
956,943.92,2144.16,0.14,1139.25,919.00
958,944.23,2147.62,1.86,1143.75,924.00
960,944.54,2151.07,0.00,1142.75,933.00
962,944.85,2154.52,10.74,1157.00,938.25
964,945.16,2157.96,3.10,1142.25,929.00
966,945.46,2161.40,1.85,1137.50,927.50
968,945.77,2164.84,11.63,1123.75,909.00
970,946.08,2168.28,11.66,1130.75,918.00
972,946.39,2171.71,6.84,1123.75,915.50
974,946.69,2175.14,10.18,1127.75,917.50
976,947.00,2178.57,0.97,1119.50,919.00
978,947.31,2181.99,0.00,1104.50,912.75
980,947.61,2185.41,9.75,1126.50,919.00
982,947.92,2188.82,7.98,1125.50,919.50
984,948.23,2192.24,5.80,1112.25,908.75
986,948.53,2195.65,14.28,1129.00,920.00
988,948.84,2199.05,7.86,1107.75,900.25
990,949.15,2202.46,4.02,1124.50,920.00
992,949.45,2205.86,22.39,1129.50,912.25
994,949.76,2209.25,14.87,1120.50,910.50
996,950.07,2212.65,15.15,1123.25,910.50
998,950.37,2216.04,4.31,1116.25,911.25
1000,950.68,2219.43,6.56,1126.25,917.00
1002,950.98,2222.81,22.99,1140.25,918.00
1004,951.29,2226.19,30.33,1134.75,910.50
1006,951.60,2229.57,29.58,1134.75,907.00
1008,951.90,2232.94,39.67,1150.50,911.00
1010,952.21,2236.32,56.10,1164.50,916.00
1012,952.51,2239.68,66.91,1173.25,920.75
1014,952.82,2243.05,68.69,1159.25,903.50
1016,953.12,2246.41,52.29,1175.75,926.00
1018,953.43,2249.77,36.39,1178.00,941.50
1020,953.73,2253.12,52.02,1173.75,927.25
1022,954.04,2256.48,52.57,1150.00,903.75
1024,954.34,2259.83,58.95,1178.75,927.75
1026,954.65,2263.17,68.03,1172.75,915.75
1028,954.95,2266.51,68.63,1175.00,915.50
1030,955.26,2269.85,62.44,1187.50,931.75
1032,955.56,2273.19,65.38,1184.50,925.50
1034,955.87,2276.52,65.11,1185.25,926.50
1036,956.17,2279.85,82.46,1199.75,929.50
1038,956.48,2283.18,97.26,1190.00,910.00
1040,956.78,2286.50,104.64,1197.00,911.00
1042,957.08,2289.82,96.67,1186.50,906.00
1044,957.39,2293.14,89.98,1198.00,920.25
1046,957.69,2296.45,92.03,1188.00,909.25
1048,957.99,2299.76,111.04,1226.00,934.25
1050,958.30,2303.07,104.80,1205.50,918.75
1052,958.60,2306.38,112.34,1207.75,918.00
1054,958.91,2309.68,105.22,1199.00,917.75
1056,959.21,2312.98,88.30,1183.50,908.75
1058,959.51,2316.27,62.94,1185.25,924.00
1060,959.82,2319.56,68.40,1197.25,933.00
1062,960.12,2322.85,117.14,1203.25,910.00
1064,960.42,2326.14,112.53,1197.75,915.25
1066,960.72,2329.42,124.00,1208.25,917.00
1068,961.03,2332.70,89.86,1195.25,922.00
1070,961.33,2335.97,75.88,1191.25,923.00
1072,961.63,2339.25,78.99,1183.75,914.75
1074,961.93,2342.52,101.79,1199.25,916.75
1076,962.24,2345.78,107.08,1205.50,921.00
1078,962.54,2349.05,133.19,1223.25,917.50
1080,962.84,2352.31,141.58,1229.50,916.25
1082,963.14,2355.56,179.66,1256.00,917.50
1084,963.45,2358.82,207.46,1272.50,916.75
1086,963.75,2362.07,247.50,1306.00,923.00
1088,964.05,2365.32,280.19,1340.75,933.50
1090,964.35,2368.56,266.65,1321.00,922.00
1092,964.65,2371.80,286.81,1333.50,922.50
1094,964.95,2375.04,283.41,1327.75,919.25
1096,965.25,2378.27,274.54,1318.25,915.25
1098,965.56,2381.51,270.28,1323.25,924.25
1100,965.86,2384.73,260.19,1312.75,923.50
1102,966.16,2387.96,277.08,1308.00,910.50
1104,966.46,2391.18,248.78,1311.50,933.50
1106,966.76,2394.40,211.24,1270.25,916.75
1108,967.06,2397.62,209.27,1281.50,929.25
1110,967.36,2400.83,199.38,1254.25,910.50
1112,967.66,2404.04,201.11,1272.75,931.75
1114,967.96,2407.25,184.77,1235.75,910.00
1116,968.26,2410.45,172.92,1238.00,920.50
1118,968.56,2413.65,138.90,1209.00,912.75
1120,968.86,2416.85,110.20,1214.00,936.25
1122,969.16,2420.04,83.51,1180.00,920.50
1124,969.46,2423.23,81.28,1169.25,913.75
1126,969.76,2426.42,82.23,1171.50,918.75
1128,970.06,2429.60,47.11,1136.75,906.00
1130,970.36,2432.79,35.08,1142.00,918.75
1132,970.66,2435.96,31.52,1129.75,912.25
1134,970.96,2439.14,20.51,1126.00,914.00
1136,971.26,2442.31,3.11,1134.25,929.50
1138,971.56,2445.48,0.00,1117.00,920.00
1140,971.86,2448.65,0.00,1103.75,916.75
1142,972.16,2451.81,0.00,1115.50,920.25
1144,972.45,2454.97,0.00,1122.75,923.00
1146,972.75,2458.13,2.15,1127.00,918.75
1148,973.05,2461.28,4.44,1126.00,916.50
1150,973.35,2464.43,11.30,1134.00,919.75
1152,973.65,2467.58,11.28,1136.25,918.75
1154,973.95,2470.72,0.17,1134.75,920.25
1156,974.24,2473.86,6.50,1140.50,917.25
1158,974.54,2477.00,5.02,1139.25,915.00
1160,974.84,2480.13,22.64,1165.00,925.25
1162,975.14,2483.27,47.37,1174.25,918.50
1164,975.43,2486.40,61.84,1173.25,907.50
1166,975.73,2489.52,85.29,1196.00,914.50
1168,976.03,2492.64,95.75,1205.75,918.75
1170,976.33,2495.76,80.27,1209.75,926.75
1172,976.62,2498.88,54.92,1188.00,912.00
1174,976.92,2501.99,58.54,1205.50,924.50
1176,977.22,2505.10,76.59,1208.50,920.75
1178,977.51,2508.21,60.84,1195.75,917.50
1180,977.81,2511.31,53.34,1197.50,917.50
1182,978.11,2514.41,27.29,1190.25,917.25
1184,978.40,2517.51,12.38,1186.50,920.00
1186,978.70,2520.61,0.00,1173.25,923.50
1188,979.00,2523.70,6.77,1193.00,927.50
1190,979.29,2526.79,0.00,1174.50,915.00
1192,979.59,2529.87,0.00,1186.50,919.25
1194,979.88,2532.95,0.00,1176.00,911.25
1196,980.18,2536.03,1.20,1208.25,926.25
1198,980.48,2539.11,0.00,1219.25,934.75
1200,980.77,2542.18,14.92,1224.00,922.00
1202,981.07,2545.25,4.26,1231.50,926.50
1204,981.36,2548.32,0.00,1222.25,919.75
1206,981.66,2551.38,0.00,1241.75,930.25
1208,981.95,2554.44,0.00,1250.50,927.00
1210,982.25,2557.50,0.00,1268.25,934.25
1212,982.54,2560.56,12.12,1296.25,933.25
1214,982.84,2563.61,66.88,1338.50,935.00
1216,983.13,2566.66,144.21,1376.50,934.25
1218,983.43,2569.70,233.96,1423.00,926.00
1220,983.72,2572.74,334.19,1483.00,930.25
1222,984.01,2575.78,427.73,1529.25,927.25
1224,984.31,2578.82,498.54,1553.25,912.75
1226,984.60,2581.85,481.47,1571.00,929.75
1228,984.90,2584.88,457.40,1553.50,911.50
1230,985.19,2587.91,351.62,1529.50,929.75
1232,985.48,2590.93,302.91,1512.75,929.00
1234,985.78,2593.96,235.37,1484.75,931.50
1236,986.07,2596.97,172.27,1456.75,928.75
1238,986.36,2599.99,129.19,1450.50,935.25
1240,986.66,2603.00,74.93,1429.50,936.00
1242,986.95,2606.01,41.30,1420.50,936.00
1244,987.24,2609.01,22.28,1417.25,934.25
1246,987.54,2612.02,31.10,1395.25,902.25
1248,987.83,2615.02,41.82,1429.25,930.75
1250,988.12,2618.01,41.15,1435.75,931.00
1252,988.41,2621.01,27.72,1435.25,929.00
1254,988.71,2624.00,28.48,1431.50,918.25
1256,989.00,2626.99,7.11,1440.25,931.25
1258,989.29,2629.97,0.00,1438.50,929.50
1260,989.58,2632.95,21.35,1462.00,928.00
1262,989.87,2635.93,0.00,1449.50,932.75
1264,990.16,2638.91,0.02,1455.75,924.00
1266,990.46,2641.88,0.00,1460.25,933.75
1268,990.75,2644.85,0.00,1482.50,947.25
1270,991.04,2647.81,0.00,1466.75,926.25
1272,991.33,2650.78,0.00,1488.00,932.25
1274,991.62,2653.74,0.15,1517.50,927.00
1276,991.91,2656.70,55.63,1575.75,926.75
1278,992.20,2659.65,139.14,1615.75,933.25
1280,992.49,2662.60,210.54,1647.00,919.00
1282,992.78,2665.55,271.78,1716.75,943.00
1284,993.07,2668.50,347.65,1754.25,938.75
1286,993.36,2671.44,369.04,1764.25,936.50
1288,993.65,2674.38,387.61,1772.00,932.75
1290,993.94,2677.31,297.46,1758.75,931.00
1292,994.23,2680.25,83.77,1716.25,930.75
1294,994.52,2683.18,4.83,1695.25,935.25
1296,994.81,2686.10,0.00,1681.00,930.75
1298,995.10,2689.03,0.00,1680.00,935.75
1300,995.39,2691.95,0.00,1695.75,930.25
1302,995.68,2694.87,0.00,1737.50,940.75
1304,995.97,2697.78,44.93,1830.50,938.50
1306,996.26,2700.70,238.19,1900.75,918.00
1308,996.55,2703.61,599.06,2069.25,933.25
1310,996.84,2706.51,943.17,2254.25,937.75
1312,997.13,2709.42,1374.24,2486.25,930.50
1314,997.41,2712.32,2132.87,2838.00,937.00
1316,997.70,2715.21,3455.60,3296.25,929.50
1318,997.99,2718.11,5109.32,3767.50,933.00
1320,998.28,2721.00,5819.44,3929.75,927.00
1322,998.57,2723.89,5186.23,3811.00,944.75
1324,998.86,2726.77,3732.36,3411.00,922.50
1326,999.14,2729.66,2418.91,3003.75,931.25
1328,999.43,2732.54,1544.78,2668.75,932.25
1330,999.72,2735.41,1042.13,2452.25,925.00
1332,1000.01,2738.29,663.95,2317.75,938.50
1334,1000.29,2741.16,368.48,2199.50,931.00
1336,1000.58,2744.03,235.94,2144.25,917.75
1338,1000.87,2746.89,141.50,2142.50,944.00
1340,1001.15,2749.75,160.86,2148.50,928.00
1342,1001.44,2752.61,138.85,2153.75,929.75
1344,1001.73,2755.47,199.91,2188.00,926.00
1346,1002.01,2758.32,327.23,2247.00,924.00
1348,1002.30,2761.17,377.37,2290.75,937.00
1350,1002.59,2764.02,611.28,2395.50,947.00
1352,1002.87,2766.86,766.63,2434.75,930.50
1354,1003.16,2769.70,900.84,2477.50,925.00
1356,1003.44,2772.54,984.84,2508.50,923.50
1358,1003.73,2775.38,950.19,2512.50,930.75
1360,1004.01,2778.21,771.81,2456.50,921.75
1362,1004.30,2781.04,590.15,2422.00,923.75
1364,1004.58,2783.87,245.10,2346.75,923.50
1366,1004.87,2786.69,46.78,2292.00,910.50
1368,1005.15,2789.51,0.68,2278.50,932.75
1370,1005.44,2792.33,0.00,2249.25,938.50
1372,1005.72,2795.14,0.00,2254.00,939.75
1374,1006.01,2797.95,0.00,2287.50,932.50
1376,1006.29,2800.76,0.00,2326.75,931.75
1378,1006.58,2803.57,0.00,2389.75,949.50
1380,1006.86,2806.37,0.00,2446.00,924.50
1382,1007.14,2809.17,3.00,2560.25,927.00
1384,1007.43,2811.97,27.44,2628.50,924.50
1386,1007.71,2814.77,190.37,2741.75,917.50
1388,1008.00,2817.56,460.96,2860.75,925.00
1390,1008.28,2820.35,933.36,2996.25,933.50
1392,1008.56,2823.13,1455.93,3115.50,927.75
1394,1008.85,2825.91,1820.86,3222.50,941.00
1396,1009.13,2828.69,2385.16,3376.00,931.00
1398,1009.41,2831.47,2852.46,3508.25,941.00
1400,1009.69,2834.24,3581.98,3683.75,922.50
1402,1009.98,2837.02,4225.87,3872.50,933.75
1404,1010.26,2839.78,4853.33,4066.50,937.00
1406,1010.54,2842.55,5762.78,4330.25,926.50
1408,1010.82,2845.31,7004.00,4695.50,929.75
1410,1011.11,2848.07,8637.39,5176.75,942.00
1412,1011.39,2850.83,10949.26,5839.25,943.00
1414,1011.67,2853.58,13910.92,6696.75,939.75
1416,1011.95,2856.33,17608.03,7822.00,937.75
1418,1012.23,2859.08,22262.86,9314.00,929.50
1420,1012.51,2861.83,28589.23,11300.00,932.25
1422,1012.80,2864.57,39047.21,14130.50,953.50
1424,1013.08,2867.31,54792.25,17591.25,943.50
1426,1013.36,2870.04,71975.99,20833.50,948.75
1428,1013.64,2872.78,80187.51,22315.00,938.00
1430,1013.92,2875.51,74217.79,21417.00,955.50
1432,1014.20,2878.24,62435.54,19276.25,937.25
1434,1014.48,2880.96,52689.21,17097.00,938.75
1436,1014.76,2883.68,47917.56,15645.75,922.25
1438,1015.04,2886.40,45589.54,14657.00,932.00
1440,1015.32,2889.12,44122.77,13972.00,937.75
1442,1015.60,2891.83,42545.08,13406.25,929.75
1444,1015.88,2894.54,41132.77,13003.00,943.50
1446,1016.16,2897.25,40365.72,12733.50,927.50
1448,1016.44,2899.96,40474.36,12663.75,945.00
1450,1016.72,2902.66,41337.35,12689.00,937.25
1452,1017.00,2905.36,42582.32,12788.75,950.25
1454,1017.28,2908.06,43095.19,12718.25,932.75
1456,1017.55,2910.75,42288.71,12457.50,946.50
1458,1017.83,2913.44,40973.29,12115.00,926.50
1460,1018.11,2916.13,39126.23,11695.75,941.50
1462,1018.39,2918.81,37346.14,11251.25,945.25
1464,1018.67,2921.49,36504.00,10960.00,936.50
1466,1018.95,2924.17,36406.42,10803.25,938.75
1468,1019.22,2926.85,36499.13,10683.00,939.75
1470,1019.50,2929.52,36367.89,10519.50,927.00
1472,1019.78,2932.20,36589.95,10465.75,922.50
1474,1020.06,2934.86,35891.70,10242.75,939.25
1476,1020.33,2937.53,35351.54,10076.50,949.25
1478,1020.61,2940.19,34222.34,9787.50,941.50
1480,1020.89,2942.85,33435.89,9604.75,940.00
1482,1021.17,2945.51,32989.39,9491.75,937.00
1484,1021.44,2948.16,33504.10,9553.75,933.50
1486,1021.72,2950.81,34887.71,9724.25,931.75
1488,1022.00,2953.46,37412.94,10056.50,941.25
1490,1022.27,2956.11,39979.11,10350.75,929.75
1492,1022.55,2958.75,40813.95,10383.50,945.25
1494,1022.82,2961.39,39917.53,10131.50,932.75
1496,1023.10,2964.03,37633.82,9694.75,948.00
1498,1023.38,2966.66,34089.80,8984.50,933.75
1500,1023.65,2969.29,31247.40,8396.75,941.50
1502,1023.93,2971.92,28358.68,7724.75,943.50
1504,1024.20,2974.55,26046.40,7130.50,939.75
1506,1024.48,2977.17,23553.60,6530.25,937.25
1508,1024.75,2979.79,20194.84,5820.25,927.25
1510,1025.03,2982.41,16804.69,5169.00,933.00
1512,1025.30,2985.02,13307.62,4485.00,931.75
1514,1025.58,2987.63,10756.74,3971.00,938.75
1516,1025.85,2990.24,8606.50,3504.75,929.75
1518,1026.13,2992.85,6850.75,3136.75,940.75
1520,1026.40,2995.45,5530.33,2841.50,936.00
1522,1026.68,2998.05,4554.80,2615.00,930.00
1524,1026.95,3000.65,3776.81,2450.50,942.25
1526,1027.22,3003.25,3138.04,2296.50,930.25
1528,1027.50,3005.84,2461.34,2148.00,924.50
1530,1027.77,3008.43,1880.93,2040.25,938.50
1532,1028.04,3011.02,1444.51,1947.75,938.75
1534,1028.32,3013.60,1031.19,1852.50,930.25
1536,1028.59,3016.18,632.05,1777.00,939.00
1538,1028.86,3018.76,484.23,1710.25,908.25
1540,1029.14,3021.34,176.19,1651.00,926.00
1542,1029.41,3023.91,47.99,1591.25,924.75
1544,1029.68,3026.48,1.69,1536.50,921.50
1546,1029.95,3029.05,0.00,1501.00,931.50
1548,1030.22,3031.61,0.00,1463.25,928.75
1550,1030.50,3034.17,0.00,1432.25,927.00
1552,1030.77,3036.73,0.00,1392.50,929.00
1554,1031.04,3039.29,0.00,1375.75,940.75
1556,1031.31,3041.84,0.00,1341.75,921.50
1558,1031.58,3044.39,22.74,1354.75,941.75
1560,1031.85,3046.94,0.00,1315.00,940.25
1562,1032.13,3049.49,0.00,1279.00,926.00
1564,1032.40,3052.03,0.00,1291.25,938.25
1566,1032.67,3054.57,0.00,1262.00,923.25
1568,1032.94,3057.11,0.00,1263.25,947.50
1570,1033.21,3059.64,0.00,1221.25,917.25
1572,1033.48,3062.18,0.00,1236.75,942.50
1574,1033.75,3064.70,0.00,1224.25,934.25
1576,1034.02,3067.23,6.35,1222.25,937.50
1578,1034.29,3069.75,0.00,1190.00,920.00
1580,1034.56,3072.28,14.52,1202.50,931.75
1582,1034.83,3074.79,0.00,1180.25,919.25
1584,1035.10,3077.31,0.00,1183.25,934.50
1586,1035.37,3079.82,0.00,1172.75,923.50
1588,1035.64,3082.33,0.00,1185.00,946.50
1590,1035.91,3084.84,7.09,1177.50,934.00
1592,1036.17,3087.34,0.00,1158.00,924.00
1594,1036.44,3089.85,73.67,1185.50,943.00
1596,1036.71,3092.35,65.78,1158.50,921.25
1598,1036.98,3094.84,10.65,1148.50,918.75
1600,1037.25,3097.34,13.29,1148.25,918.75
1602,1037.52,3099.83,4.90,1152.75,927.75
1604,1037.78,3102.32,26.84,1156.75,930.50
1606,1038.05,3104.80,74.34,1164.75,937.50
1608,1038.32,3107.29,0.00,1142.75,931.75
1610,1038.59,3109.77,58.96,1154.25,929.25
1612,1038.85,3112.24,17.68,1146.75,928.25
1614,1039.12,3114.72,39.05,1158.75,939.00
1616,1039.39,3117.19,104.61,1139.00,915.25
1618,1039.66,3119.66,88.79,1155.50,935.00
1620,1039.92,3122.13,59.49,1153.75,936.25
1622,1040.19,3124.59,73.97,1150.50,930.25
1624,1040.45,3127.05,35.89,1144.75,932.75
1626,1040.72,3129.51,201.05,1163.25,934.50
1628,1040.99,3131.97,248.43,1166.00,937.50
1630,1041.25,3134.42,215.79,1169.75,944.50
1632,1041.52,3136.87,225.97,1146.25,919.50
1634,1041.78,3139.32,317.82,1161.25,926.75
1636,1042.05,3141.77,369.12,1205.50,968.75
1638,1042.32,3144.21,314.05,1160.50,931.50
1640,1042.58,3146.65,357.43,1179.25,947.50
1642,1042.85,3149.09,589.74,1187.25,933.25
1644,1043.11,3151.52,470.08,1170.50,932.25
1646,1043.38,3153.96,584.85,1187.75,938.25
1648,1043.64,3156.39,601.19,1180.50,931.25
1650,1043.90,3158.81,684.32,1186.75,931.50
1652,1044.17,3161.24,754.09,1200.75,941.25
1654,1044.43,3163.66,928.69,1196.50,921.00
1656,1044.70,3166.08,788.07,1211.25,953.25
1658,1044.96,3168.49,994.23,1208.50,932.75
1660,1045.22,3170.91,1023.46,1205.75,929.25
1662,1045.49,3173.32,953.60,1202.75,934.75
1664,1045.75,3175.73,1168.00,1221.00,934.25
1666,1046.01,3178.13,1149.92,1208.75,927.00
1668,1046.28,3180.54,1137.24,1217.75,939.25
1670,1046.54,3182.94,1159.91,1221.75,943.50
1672,1046.80,3185.34,1259.16,1223.00,938.25
1674,1047.07,3187.73,1348.20,1214.50,924.50
1676,1047.33,3190.12,1372.59,1224.50,936.00
1678,1047.59,3192.51,1528.23,1233.50,934.25
1680,1047.85,3194.90,1472.21,1240.75,949.00
1682,1048.11,3197.29,1516.60,1240.00,945.00
1684,1048.38,3199.67,1481.03,1232.25,942.25
1686,1048.64,3202.05,1608.21,1239.00,941.50
1688,1048.90,3204.43,1630.71,1229.25,934.75
1690,1049.16,3206.80,1781.78,1233.00,928.00
1692,1049.42,3209.17,1553.25,1229.75,946.25
1694,1049.68,3211.54,1689.27,1225.50,932.50
1696,1049.94,3213.91,1802.23,1230.00,931.00
1698,1050.20,3216.27,1809.74,1234.75,938.25
1700,1050.46,3218.63,1774.63,1245.25,953.75
1702,1050.72,3220.99,1769.53,1234.25,945.50
1704,1050.98,3223.35,1884.97,1239.00,944.25
1706,1051.24,3225.70,1964.11,1229.00,931.75
1708,1051.50,3228.05,2003.64,1221.25,923.50
1710,1051.76,3230.40,1952.48,1235.75,944.50
1712,1052.02,3232.75,1988.47,1227.00,936.75
1714,1052.28,3235.09,2223.10,1249.75,945.50
1716,1052.54,3237.43,2085.08,1227.75,936.50
1718,1052.80,3239.77,2106.67,1225.25,933.00
1720,1053.06,3242.11,2107.04,1228.25,937.75
1722,1053.32,3244.44,2194.02,1222.50,928.50
1724,1053.58,3246.77,2223.06,1245.75,953.50
1726,1053.84,3249.10,2384.40,1238.00,937.75
1728,1054.10,3251.42,2366.55,1232.75,937.25
1730,1054.35,3253.75,2489.39,1233.50,931.75
1732,1054.61,3256.07,2334.34,1234.25,947.00
1734,1054.87,3258.39,2498.31,1230.75,935.50
1736,1055.13,3260.70,2474.85,1222.00,931.00
1738,1055.38,3263.01,2310.71,1216.25,937.75
1740,1055.64,3265.32,2483.45,1228.25,939.00
1742,1055.90,3267.63,2338.72,1198.75,923.50
1744,1056.16,3269.94,2567.58,1232.75,946.75
1746,1056.41,3272.24,2481.87,1231.00,954.50
1748,1056.67,3274.54,2493.33,1217.50,942.25
1750,1056.93,3276.84,2494.93,1218.25,944.50
1752,1057.18,3279.13,2486.27,1207.50,936.25
1754,1057.44,3281.42,2509.35,1200.50,930.75
1756,1057.69,3283.71,2627.29,1207.00,933.75
1758,1057.95,3286.00,2627.56,1214.50,945.00
1760,1058.21,3288.28,2653.94,1201.75,933.00
1762,1058.46,3290.57,2559.64,1206.00,944.50
1764,1058.72,3292.85,2466.50,1199.00,944.75
1766,1058.97,3295.12,2557.30,1186.50,929.25
1768,1059.23,3297.40,2692.44,1189.50,927.75
1770,1059.48,3299.67,2597.40,1199.00,947.00
1772,1059.74,3301.94,2635.69,1178.75,927.75
1774,1059.99,3304.21,2687.50,1192.00,940.00
1776,1060.25,3306.47,2587.11,1195.25,950.50
1778,1060.50,3308.73,2601.03,1175.50,931.50
1780,1060.76,3310.99,2651.89,1173.75,928.50
1782,1061.01,3313.25,2661.77,1180.00,936.25
1784,1061.26,3315.50,2690.56,1174.50,933.00
1786,1061.52,3317.76,2791.90,1188.75,947.00
1788,1061.77,3320.01,2939.46,1189.25,943.00
1790,1062.02,3322.25,2849.98,1174.75,933.50
1792,1062.28,3324.50,2732.31,1170.50,935.75
1794,1062.53,3326.74,2715.97,1157.75,926.75
1796,1062.78,3328.98,2955.49,1169.25,930.25
1798,1063.04,3331.22,2836.80,1156.75,927.75
1800,1063.29,3333.45,2861.33,1160.00,931.25
1802,1063.54,3335.68,2754.55,1156.50,933.25
1804,1063.79,3337.91,2641.83,1161.25,944.75
1806,1064.05,3340.14,2519.21,1161.50,954.25
1808,1064.30,3342.36,2759.84,1140.25,924.50
1810,1064.55,3344.59,2585.15,1149.75,945.00
1812,1064.80,3346.81,2542.71,1136.00,935.00
1814,1065.05,3349.02,2738.40,1140.00,931.75
1816,1065.30,3351.24,2851.41,1151.00,939.75
1818,1065.55,3353.45,2662.91,1132.00,931.25
1820,1065.81,3355.66,2514.16,1155.75,963.50
1822,1066.06,3357.87,2603.12,1132.50,938.75
1824,1066.31,3360.07,2684.10,1119.75,925.75
1826,1066.56,3362.27,2644.17,1130.75,941.25
1828,1066.81,3364.47,2615.98,1117.75,930.75
1830,1067.06,3366.67,2631.50,1119.75,932.50
1832,1067.31,3368.87,2396.28,1112.25,936.00
1834,1067.56,3371.06,2579.90,1100.25,916.75
1836,1067.81,3373.25,2491.23,1095.00,917.75
1838,1068.06,3375.44,2694.54,1106.75,925.00
1840,1068.31,3377.62,2827.68,1106.25,923.50
1842,1068.56,3379.81,2626.23,1092.00,919.75
1844,1068.80,3381.99,2680.87,1124.75,950.00
1846,1069.05,3384.16,2530.21,1107.00,937.25
1848,1069.30,3386.34,2311.77,1094.50,934.50
1850,1069.55,3388.51,2518.24,1089.25,924.50
1852,1069.80,3390.68,2602.96,1097.75,934.50
1854,1070.05,3392.85,2580.74,1113.50,953.50
1856,1070.30,3395.02,2494.47,1089.50,932.00
1858,1070.54,3397.18,2304.68,1073.50,922.25
1860,1070.79,3399.34,2175.81,1080.25,935.50
1862,1071.04,3401.50,2436.11,1077.50,926.50
1864,1071.29,3403.66,2357.33,1062.75,918.25
1866,1071.53,3405.81,2367.69,1078.75,935.25
1868,1071.78,3407.96,2263.33,1070.50,930.25
1870,1072.03,3410.11,2213.81,1073.25,934.25
1872,1072.27,3412.26,2103.95,1070.75,937.50
1874,1072.52,3414.40,2391.73,1066.25,926.50
1876,1072.77,3416.54,2342.31,1062.25,927.50
1878,1073.01,3418.68,1971.05,1062.00,940.75
1880,1073.26,3420.82,2234.31,1041.75,911.50
1882,1073.51,3422.96,2161.05,1063.00,936.25
1884,1073.75,3425.09,2114.70,1059.75,936.25
1886,1074.00,3427.22,2034.58,1040.50,921.00
1888,1074.24,3429.35,2085.60,1061.75,941.00
1890,1074.49,3431.47,1835.66,1038.50,926.50
1892,1074.73,3433.59,1873.44,1031.50,920.00
1894,1074.98,3435.71,2088.36,1059.50,944.00
1896,1075.22,3437.83,1835.59,1041.25,935.50
1898,1075.47,3439.95,2056.88,1053.25,940.75
1900,1075.71,3442.06,1823.64,1045.50,940.25
1902,1075.96,3444.17,1752.40,1038.00,935.75
1904,1076.20,3446.28,1871.07,1009.50,904.75
1906,1076.44,3448.38,1677.11,1053.75,956.25
1908,1076.69,3450.49,1774.20,1039.00,940.00
1910,1076.93,3452.59,1867.04,1034.00,933.75
1912,1077.17,3454.69,1887.98,1027.75,928.25
1914,1077.42,3456.79,1958.50,1032.50,932.25
1916,1077.66,3458.88,1817.58,1022.00,926.75
1918,1077.90,3460.97,1544.60,1009.75,922.75
1920,1078.15,3463.06,1863.28,1036.50,940.75
1922,1078.39,3465.15,1639.79,1024.25,935.00
1924,1078.63,3467.23,1596.68,1000.50,912.75
1926,1078.87,3469.32,1721.44,1025.25,935.00
1928,1079.12,3471.40,1553.69,1014.25,930.75
1930,1079.36,3473.47,1692.92,1040.75,956.00
1932,1079.60,3475.55,1496.90,998.50,920.75
1934,1079.84,3477.62,1610.24,1013.25,933.50
1936,1080.08,3479.69,1808.61,1009.25,924.00
1938,1080.33,3481.76,1306.27,997.25,924.00
1940,1080.57,3483.83,1420.73,1011.25,934.50
1942,1080.81,3485.89,1200.03,1004.75,934.25
1944,1081.05,3487.95,944.64,1006.25,943.50
1946,1081.29,3490.01,1117.13,1003.50,937.50
1948,1081.53,3492.07,1026.38,992.25,930.00
1950,1081.77,3494.12,1188.37,990.00,925.50
1952,1082.01,3496.18,1349.95,1008.50,942.00
1954,1082.25,3498.23,1169.20,990.00,928.25
1956,1082.49,3500.27,1289.64,998.00,932.75
1958,1082.73,3502.32,1052.92,983.00,922.25
1960,1082.97,3504.36,820.52,992.75,938.00
1962,1083.21,3506.40,756.39,982.00,930.25
1964,1083.45,3508.44,1367.11,980.75,917.00
1966,1083.69,3510.48,1127.18,1008.25,950.25
1968,1083.93,3512.51,990.09,990.00,934.50
1970,1084.16,3514.54,1040.28,985.00,927.50
1972,1084.40,3516.57,616.90,979.00,931.50
1974,1084.64,3518.60,670.28,975.75,928.00
1976,1084.88,3520.62,1081.33,995.00,940.50
1978,1085.12,3522.65,829.70,993.75,946.00
1980,1085.36,3524.67,1145.23,983.50,929.25
1982,1085.59,3526.68,787.26,972.00,924.50
1984,1085.83,3528.70,751.89,990.50,944.50
1986,1086.07,3530.71,1012.02,969.75,920.25
1988,1086.31,3532.72,1335.48,984.75,929.75
1990,1086.54,3534.73,721.78,966.75,922.50
1992,1086.78,3536.74,733.47,992.75,947.50
1994,1087.02,3538.74,462.72,972.25,933.75
1996,1087.25,3540.74,951.13,968.50,922.50
1998,1087.49,3542.74,930.65,979.25,934.25
2000,1087.73,3544.74,362.81,968.00,932.25
2002,1087.96,3546.74,228.30,969.50,935.75
2004,1088.20,3548.73,357.21,979.50,942.75
2006,1088.43,3550.72,412.85,966.25,930.75
2008,1088.67,3552.71,1352.73,972.25,923.75
2010,1088.90,3554.69,533.92,953.50,918.75
2012,1089.14,3556.68,399.65,967.50,934.75
2014,1089.38,3558.66,642.52,960.25,923.50
2016,1089.61,3560.64,383.25,959.25,926.50
2018,1089.84,3562.62,348.30,966.00,932.50
2020,1090.08,3564.59,194.70,956.50,925.50
2022,1090.31,3566.56,61.88,954.50,927.75
2024,1090.55,3568.53,322.02,956.75,925.50
2026,1090.78,3570.50,753.23,952.50,916.75
2028,1091.02,3572.47,528.62,946.00,914.50
2030,1091.25,3574.43,422.20,951.75,921.50
2032,1091.48,3576.39,440.06,935.75,905.00
2034,1091.72,3578.35,332.92,934.00,905.50
2036,1091.95,3580.31,216.17,945.00,919.00
2038,1092.18,3582.26,588.28,932.00,901.25
2040,1092.42,3584.22,719.43,933.00,900.75
2042,1092.65,3586.17,232.93,935.50,910.25
2044,1092.88,3588.12,0.00,926.00,908.50
2046,1093.11,3590.06,113.44,926.50,901.50
2047,1093.23,3591.03,89.61,924.00,897.75