File: src/enlighten/plugins/Raman/MatchingLibrary/785X/acetonitrile.csv
ENLIGHTEN Version,4.1.22
Measurement ID,20250220-195618-676783-WP-01977
Serial Number,WP-01977
Model,WP-785X-F13-R-ILC
Detector,S16011-1106
Label,acetonitrile
Declared Match,
Declared Score,0
Scan Averaging,5
Boxcar,0
Technique,Raman
Baseline Correction Algo,AirPLS
ROI Pixel Start,47
ROI Pixel End,2047
ROI Start Line,0
ROI Stop Line,63
CCD C4,1.38617e-12
Slit Width,25
Cropped,True
Interpolated,False
Wavenumber Correction,-0.100481
Raman Intensity Corrected,True
Deconvolved,True
Region,
High Gain Mode,False
Laser Power mW,
Electrical Dark Correction,False
Battery %,
Device ID,<DeviceID USB:0x24aa:0x1000:0:1>
FW Version,10.0.0.10
FPGA Version,035-001
BLE Version,
Prefix,enlighten
Suffix,
Preset,
Auto-Raman,True
Session Count,0
Plugin Name,
Integration Time,211
Timestamp,2025-02-20 19:56:18.6768
Note,
Temperature,0
CCD C0,793.274
CCD C1,0.153259
CCD C2,1.40788e-05
CCD C3,-1.132e-08
CCD Offset,0
CCD Gain,1.9
CCD Offset Odd,0
CCD Gain Odd,1.9
Laser Wavelength,785.032
Laser Enable,False
Laser Power %,0
Laser Temperature,0
Pixel Count,2048

Pixel,Wavelength,Wavenumber,Processed,Raw,Dark
0,793.27,132.25,NA,907.00,892.40
2,793.58,137.12,NA,917.20,896.40
4,793.89,141.99,NA,914.80,893.00
6,794.19,146.86,NA,913.20,892.00
8,794.50,151.72,NA,922.40,900.20
10,794.81,156.58,NA,920.00,903.00
12,795.12,161.44,NA,910.60,894.60
14,795.42,166.30,NA,916.20,893.20
16,795.73,171.16,NA,915.60,892.60
18,796.04,176.01,NA,928.80,902.00
20,796.35,180.86,NA,924.20,903.20
22,796.65,185.71,NA,941.80,909.00
24,796.96,190.56,NA,933.00,903.60
26,797.27,195.41,NA,937.40,911.20
28,797.58,200.25,NA,936.40,903.80
30,797.88,205.09,NA,926.80,901.60
32,798.19,209.93,NA,941.60,897.40
34,798.50,214.77,NA,930.80,898.20
36,798.81,219.60,NA,936.20,896.00
38,799.12,224.43,NA,949.60,896.60
40,799.43,229.27,NA,1043.40,906.40
42,799.74,234.09,NA,1347.20,907.60
44,800.04,238.92,NA,1804.40,921.00
46,800.35,243.75,NA,1940.20,903.80
48,800.66,248.57,151.24,1939.20,906.20
50,800.97,253.39,77.12,1886.40,913.80
52,801.28,258.21,54.54,1850.40,909.00
54,801.59,263.02,30.10,1812.20,912.60
56,801.90,267.83,2.65,1771.80,907.40
58,802.21,272.65,0.00,1747.20,909.80
60,802.52,277.46,0.00,1727.40,907.00
62,802.83,282.26,0.00,1725.60,917.20
64,803.14,287.07,0.00,1709.00,915.40
66,803.45,291.87,0.00,1704.00,912.60
68,803.76,296.67,4.89,1732.60,914.20
70,804.07,301.47,1.22,1723.80,907.80
72,804.38,306.26,16.02,1748.40,905.60
74,804.69,311.06,44.87,1772.20,901.20
76,805.00,315.85,70.23,1810.20,910.60
78,805.31,320.64,113.35,1865.20,909.00
80,805.62,325.42,174.76,1943.60,911.60
82,805.93,330.21,228.76,2011.40,911.20
84,806.24,334.99,293.93,2095.40,900.00
86,806.55,339.77,399.50,2248.20,910.20
88,806.86,344.55,543.21,2449.80,911.80
90,807.17,349.32,752.99,2754.20,905.40
92,807.48,354.10,1087.23,3251.00,903.40
94,807.80,358.87,1614.87,4064.80,910.20
96,808.11,363.63,2534.21,5506.60,908.00
98,808.42,368.40,4187.13,8055.80,906.20
100,808.73,373.16,7286.68,12106.80,905.80
102,809.04,377.93,11073.46,16100.60,901.60
104,809.35,382.68,11200.84,16185.00,901.60
106,809.66,387.44,7110.46,11953.80,909.80
108,809.98,392.19,3747.72,7601.20,904.20
110,810.29,396.95,2137.01,5021.20,911.40
112,810.60,401.70,1374.78,3714.20,907.00
114,810.91,406.44,968.44,3043.60,907.40
116,811.22,411.19,711.09,2644.80,913.00
118,811.54,415.93,552.57,2384.00,908.60
120,811.85,420.67,438.50,2198.20,901.40
122,812.16,425.41,348.57,2053.60,899.00
124,812.47,430.14,282.26,1953.40,907.40
126,812.79,434.87,232.22,1867.20,904.60
128,813.10,439.60,177.30,1775.80,897.60
130,813.41,444.33,144.90,1716.40,900.20
132,813.72,449.06,115.65,1654.60,894.40
134,814.04,453.78,70.97,1597.60,904.00
136,814.35,458.50,53.27,1551.40,897.40
138,814.66,463.22,37.01,1517.20,894.40
140,814.98,467.93,17.40,1483.60,900.40
142,815.29,472.65,22.29,1465.40,902.20
144,815.60,477.36,4.59,1429.60,904.00
146,815.92,482.06,1.88,1396.20,896.20
148,816.23,486.77,5.80,1383.00,903.60
150,816.54,491.47,8.65,1368.20,912.00
152,816.86,496.17,3.76,1326.60,892.80
154,817.17,500.87,0.00,1289.00,900.40
156,817.48,505.57,0.00,1263.00,899.40
158,817.80,510.26,0.00,1237.80,894.80
160,818.11,514.95,0.00,1215.60,901.80
162,818.42,519.64,0.00,1210.20,907.60
164,818.74,524.32,0.00,1197.40,902.60
166,819.05,529.00,0.17,1202.80,906.80
168,819.37,533.68,9.41,1202.40,903.60
170,819.68,538.36,25.12,1210.00,907.20
172,819.99,543.04,19.20,1199.00,911.00
174,820.31,547.71,18.40,1174.20,899.20
176,820.62,552.38,5.12,1145.20,898.40
178,820.94,557.05,0.00,1124.20,903.60
180,821.25,561.71,0.00,1099.00,890.00
182,821.57,566.37,0.00,1094.60,895.80
184,821.88,571.03,0.00,1097.80,900.80
186,822.20,575.69,0.00,1083.20,904.20
188,822.51,580.34,0.00,1082.60,897.80
190,822.83,584.99,0.00,1077.00,903.00
192,823.14,589.64,0.00,1074.00,899.00
194,823.46,594.29,0.00,1068.60,901.00
196,823.77,598.93,0.00,1065.00,899.20
198,824.09,603.57,2.52,1061.80,892.20
200,824.40,608.21,0.00,1062.20,900.40
202,824.72,612.85,0.06,1070.60,909.00
204,825.03,617.48,0.00,1060.00,904.20
206,825.35,622.11,0.36,1063.40,905.80
208,825.66,626.74,1.13,1064.00,907.00
210,825.98,631.36,0.00,1046.20,902.20
212,826.29,635.99,4.62,1061.00,899.20
214,826.61,640.61,0.26,1057.40,901.80
216,826.92,645.22,2.29,1053.20,893.40
218,827.24,649.84,9.47,1059.20,890.00
220,827.56,654.45,2.98,1066.40,905.00
222,827.87,659.06,7.50,1071.20,903.00
224,828.19,663.67,5.38,1066.80,901.80
226,828.50,668.27,2.83,1077.80,916.00
228,828.82,672.87,1.40,1063.80,903.00
230,829.13,677.47,4.69,1065.00,898.40
232,829.45,682.06,0.00,1063.20,906.60
234,829.77,686.66,3.07,1070.00,905.00
236,830.08,691.25,0.11,1064.20,902.60
238,830.40,695.83,4.40,1069.20,898.20
240,830.72,700.42,8.31,1076.40,897.40
242,831.03,705.00,16.48,1071.40,882.00
244,831.35,709.58,20.25,1097.20,898.00
246,831.66,714.15,20.06,1090.40,888.00
248,831.98,718.73,31.57,1125.20,901.80
250,832.30,723.30,51.95,1158.80,896.80
252,832.61,727.87,82.59,1222.40,905.80
254,832.93,732.43,133.64,1301.00,885.20
256,833.25,736.99,226.41,1479.80,901.00
258,833.56,741.55,373.26,1714.00,902.00
260,833.88,746.11,566.50,1980.00,899.00
262,834.20,750.66,667.61,2115.20,902.60
264,834.51,755.22,564.37,2001.40,905.40
266,834.83,759.76,401.35,1761.60,900.00
268,835.15,764.31,275.55,1558.60,901.60
270,835.47,768.85,174.14,1382.60,890.60
272,835.78,773.39,116.16,1278.60,893.40
274,836.10,777.93,72.84,1205.00,894.40
276,836.42,782.46,53.86,1172.40,897.00
278,836.73,787.00,36.42,1143.80,896.00
280,837.05,791.52,32.64,1127.40,890.60
282,837.37,796.05,20.66,1123.20,905.80
284,837.69,800.57,12.73,1108.80,899.00
286,838.00,805.09,11.12,1103.40,898.20
288,838.32,809.61,13.61,1103.00,896.00
290,838.64,814.13,7.37,1106.60,905.80
292,838.95,818.64,7.59,1096.80,894.60
294,839.27,823.15,4.42,1092.40,896.40
296,839.59,827.65,1.25,1093.00,900.80
298,839.91,832.15,0.59,1086.00,892.80
300,840.22,836.65,0.00,1093.40,912.40
302,840.54,841.15,0.00,1084.80,891.80
304,840.86,845.65,0.00,1099.80,902.40
306,841.18,850.14,3.30,1103.20,895.20
308,841.50,854.63,0.00,1119.20,918.60
310,841.81,859.11,0.00,1109.00,899.80
312,842.13,863.60,0.84,1123.20,901.60
314,842.45,868.07,2.58,1122.80,894.20
316,842.77,872.55,17.90,1157.00,900.00
318,843.08,877.03,20.89,1180.20,910.40
320,843.40,881.50,44.14,1202.80,890.80
322,843.72,885.97,66.49,1258.00,902.20
324,844.04,890.43,84.69,1310.60,897.60
326,844.36,894.89,160.37,1456.80,897.00
328,844.67,899.35,330.72,1748.60,905.20
330,844.99,903.81,559.61,2283.00,892.40
332,845.31,908.26,894.06,3673.80,905.80
334,845.63,912.71,2848.39,8532.00,903.40
336,845.95,917.16,11864.69,19827.60,907.80
338,846.27,921.61,16719.86,24087.40,1021.40
340,846.58,926.05,7128.56,14623.00,902.60
342,846.90,930.49,2009.01,6394.20,904.20
344,847.22,934.92,692.45,2994.20,901.80
346,847.54,939.36,327.86,1890.20,889.20
348,847.86,943.79,204.78,1566.20,891.60
350,848.18,948.21,128.89,1421.40,893.20
352,848.49,952.64,85.99,1352.80,898.40
354,848.81,957.06,52.17,1285.80,888.20
356,849.13,961.48,40.82,1286.60,910.00
358,849.45,965.89,25.09,1257.00,901.40
360,849.77,970.31,17.85,1241.40,895.40
362,850.09,974.71,16.17,1236.00,894.40
364,850.40,979.12,4.22,1237.60,905.00
366,850.72,983.52,0.00,1237.80,915.80
368,851.04,987.92,0.00,1216.80,893.20
370,851.36,992.32,13.77,1236.60,889.20
372,851.68,996.72,0.45,1231.60,899.00
374,852.00,1001.11,5.71,1244.80,895.60
376,852.32,1005.50,22.74,1253.60,886.00
378,852.63,1009.88,23.30,1282.60,908.00
380,852.95,1014.26,28.44,1294.40,901.80
382,853.27,1018.64,49.54,1331.80,900.80
384,853.59,1023.02,84.52,1377.00,893.00
386,853.91,1027.39,107.83,1420.40,888.60
388,854.23,1031.76,153.95,1501.80,895.20
390,854.55,1036.13,192.98,1558.40,896.00
392,854.87,1040.49,203.01,1576.00,894.40
394,855.18,1044.86,191.54,1564.40,898.80
396,855.50,1049.21,160.79,1523.60,902.20
398,855.82,1053.57,125.46,1474.60,902.80
400,856.14,1057.92,99.00,1420.60,894.40
402,856.46,1062.27,73.66,1383.40,898.00
404,856.78,1066.62,61.36,1358.40,892.00
406,857.10,1070.96,62.26,1354.20,890.00
408,857.42,1075.30,46.75,1347.00,906.60
410,857.74,1079.64,38.17,1325.00,895.60
412,858.06,1083.97,37.27,1325.40,896.00
414,858.37,1088.30,27.40,1302.20,890.40
416,858.69,1092.63,24.33,1299.60,889.20
418,859.01,1096.95,22.54,1296.00,886.40
420,859.33,1101.27,20.11,1297.60,893.40
422,859.65,1105.59,15.80,1294.60,895.60
424,859.97,1109.91,13.77,1286.80,889.00
426,860.29,1114.22,7.14,1281.80,891.40
428,860.61,1118.53,9.94,1280.60,889.20
430,860.93,1122.84,3.83,1283.80,894.60
432,861.25,1127.14,0.42,1290.20,905.40
434,861.56,1131.44,5.38,1284.80,891.00
436,861.88,1135.74,9.71,1289.20,892.00
438,862.20,1140.03,0.00,1276.00,894.00
440,862.52,1144.32,0.00,1281.60,897.40
442,862.84,1148.61,3.98,1295.40,898.00
444,863.16,1152.89,0.00,1288.60,896.00
446,863.48,1157.17,0.00,1294.40,898.40
448,863.80,1161.45,3.14,1301.80,895.20
450,864.12,1165.73,0.00,1298.40,897.20
452,864.44,1170.00,0.00,1303.60,894.80
454,864.76,1174.27,0.00,1299.60,898.00
456,865.07,1178.53,0.00,1310.20,892.40
458,865.39,1182.80,0.00,1326.60,899.00
460,865.71,1187.06,0.00,1324.00,897.00
462,866.03,1191.31,0.00,1344.60,898.40
464,866.35,1195.57,0.00,1352.00,897.00
466,866.67,1199.82,0.00,1373.80,898.60
468,866.99,1204.06,0.00,1385.60,894.80
470,867.31,1208.31,0.00,1398.40,903.40
472,867.63,1212.55,0.00,1414.00,902.40
474,867.95,1216.79,0.00,1431.80,889.80
476,868.27,1221.02,0.00,1446.40,893.00
478,868.58,1225.25,0.00,1479.80,892.40
480,868.90,1229.48,0.00,1511.60,899.60
482,869.22,1233.71,0.00,1543.40,903.00
484,869.54,1237.93,0.00,1588.20,906.20
486,869.86,1242.15,0.00,1598.40,893.60
488,870.18,1246.36,0.00,1642.60,889.20
490,870.50,1250.58,0.00,1674.00,899.20
492,870.82,1254.79,0.00,1724.60,913.60
494,871.14,1258.99,0.00,1762.00,896.40
496,871.46,1263.20,0.00,1812.40,902.80
498,871.78,1267.40,0.00,1858.80,895.40
500,872.10,1271.59,3.00,1924.60,893.60
502,872.41,1275.79,0.00,1963.40,894.00
504,872.73,1279.98,5.73,2042.20,894.60
506,873.05,1284.17,13.27,2099.60,899.20
508,873.37,1288.35,21.45,2141.40,883.00
510,873.69,1292.53,31.53,2208.40,890.00
512,874.01,1296.71,53.41,2282.80,892.60
514,874.33,1300.88,100.83,2363.40,890.80
516,874.65,1305.06,151.95,2440.60,893.00
518,874.97,1309.22,188.05,2504.20,890.00
520,875.29,1313.39,259.38,2623.60,896.00
522,875.60,1317.55,293.92,2694.60,901.20
524,875.92,1321.71,354.66,2791.20,897.40
526,876.24,1325.87,417.67,2892.40,903.00
528,876.56,1330.02,482.38,2996.60,896.00
530,876.88,1334.17,549.75,3114.40,901.00
532,877.20,1338.32,613.62,3206.80,891.20
534,877.52,1342.46,696.83,3345.00,888.00
536,877.84,1346.60,784.09,3510.20,893.60
538,878.16,1350.73,916.37,3729.00,892.00
540,878.47,1354.87,1133.51,4096.60,893.00
542,878.79,1359.00,1435.81,4678.80,896.20
544,879.11,1363.13,1950.54,5705.00,899.20
546,879.43,1367.25,3059.73,7485.40,893.80
548,879.75,1371.37,5239.62,10085.20,894.60
550,880.07,1375.49,6538.31,11403.00,897.20
552,880.39,1379.60,4995.12,9927.20,900.60
554,880.71,1383.71,3318.57,7873.20,896.20
556,881.03,1387.82,2517.15,6530.40,892.20
558,881.34,1391.93,2212.53,5881.40,889.20
560,881.66,1396.03,2136.48,5668.00,893.40
562,881.98,1400.13,2120.09,5624.40,898.80
564,882.30,1404.22,2166.81,5676.40,897.40
566,882.62,1408.31,2223.67,5730.80,890.60
568,882.94,1412.40,2254.45,5781.00,898.20
570,883.26,1416.49,2241.02,5760.80,893.60
572,883.57,1420.57,2198.07,5709.80,899.80
574,883.89,1424.65,2176.83,5680.20,890.00
576,884.21,1428.73,2155.84,5682.40,901.00
578,884.53,1432.80,2227.96,5792.80,909.00
580,884.85,1436.87,2385.60,5977.20,890.80
582,885.17,1440.93,2523.60,6165.60,895.00
584,885.49,1445.00,2627.76,6289.40,890.80
586,885.80,1449.06,2622.46,6264.40,892.00
588,886.12,1453.11,2454.85,6040.80,902.20
590,886.44,1457.17,2283.81,5774.20,895.60
592,886.76,1461.22,1967.92,5330.00,895.00
594,887.08,1465.26,1728.53,4994.40,907.80
596,887.40,1469.31,1536.35,4673.00,895.00
598,887.71,1473.35,1359.92,4402.40,894.80
600,888.03,1477.38,1261.42,4243.60,894.60
602,888.35,1481.42,1142.27,4069.40,902.80
604,888.67,1485.45,1074.63,3955.20,898.20
606,888.99,1489.48,1013.05,3844.20,890.00
608,889.31,1493.50,955.76,3769.60,898.80
610,889.62,1497.52,874.53,3655.80,899.60
612,889.94,1501.54,862.10,3606.80,888.40
614,890.26,1505.56,801.60,3526.80,894.40
616,890.58,1509.57,741.63,3455.40,896.00
618,890.90,1513.57,744.35,3438.20,890.00
620,891.21,1517.58,699.65,3366.00,893.60
622,891.53,1521.58,674.78,3335.40,895.80
624,891.85,1525.58,642.21,3287.20,889.20
626,892.17,1529.57,599.59,3233.00,901.80
628,892.49,1533.57,574.53,3190.40,903.80
630,892.80,1537.56,521.72,3102.40,889.20
632,893.12,1541.54,488.07,3059.40,893.00
634,893.44,1545.52,430.92,2985.40,902.60
636,893.76,1549.50,391.63,2909.60,886.80
638,894.07,1553.48,353.13,2868.40,900.40
640,894.39,1557.45,305.55,2793.40,894.20
642,894.71,1561.42,281.44,2765.20,900.20
644,895.03,1565.39,229.58,2672.80,884.80
646,895.34,1569.35,208.35,2656.40,903.40
648,895.66,1573.31,158.90,2582.80,891.60
650,895.98,1577.26,134.23,2542.40,889.40
652,896.30,1581.22,97.34,2489.00,889.60
654,896.61,1585.17,64.69,2444.60,892.80
656,896.93,1589.11,48.17,2425.80,902.60
658,897.25,1593.06,17.13,2358.40,889.00
660,897.57,1597.00,2.20,2322.80,896.60
662,897.88,1600.93,1.96,2302.00,893.60
664,898.20,1604.87,0.00,2267.40,891.80
666,898.52,1608.80,3.48,2252.60,888.40
668,898.84,1612.72,0.00,2222.20,889.00
670,899.15,1616.65,2.93,2220.00,898.60
672,899.47,1620.57,0.00,2174.60,891.80
674,899.79,1624.49,0.00,2164.20,891.40
676,900.10,1628.40,0.00,2136.40,887.60
678,900.42,1632.31,0.00,2130.60,898.00
680,900.74,1636.22,0.52,2106.80,885.20
682,901.05,1640.12,0.00,2105.20,911.80
684,901.37,1644.02,0.00,2077.80,892.60
686,901.69,1647.92,0.00,2070.20,900.20
688,902.00,1651.82,12.81,2069.40,895.20
690,902.32,1655.71,8.62,2049.00,892.00
692,902.64,1659.60,0.00,2017.80,888.00
694,902.95,1663.48,16.27,2035.00,896.20
696,903.27,1667.36,13.01,2011.40,892.20
698,903.59,1671.24,7.84,2000.80,896.20
700,903.90,1675.11,1.60,1975.80,894.20
702,904.22,1678.99,2.16,1955.60,886.80
704,904.54,1682.85,0.00,1959.00,909.80
706,904.85,1686.72,14.45,1940.40,885.60
708,905.17,1690.58,0.00,1921.20,896.80
710,905.49,1694.44,0.00,1898.00,888.80
712,905.80,1698.29,6.01,1906.80,898.00
714,906.12,1702.15,7.37,1892.60,896.60
716,906.43,1706.00,18.33,1889.00,895.00
718,906.75,1709.84,14.70,1879.60,898.80
720,907.07,1713.68,3.36,1841.00,886.40
722,907.38,1717.52,1.80,1833.20,893.40
724,907.70,1721.36,0.00,1812.80,892.60
726,908.01,1725.19,0.00,1801.80,892.60
728,908.33,1729.02,0.00,1789.60,895.00
730,908.65,1732.85,5.74,1792.80,894.00
732,908.96,1736.67,0.00,1777.20,899.40
734,909.28,1740.49,2.16,1766.20,889.40
736,909.59,1744.30,4.69,1763.40,895.00
738,909.91,1748.12,8.50,1755.80,893.40
740,910.22,1751.93,12.64,1756.40,899.20
742,910.54,1755.73,1.02,1748.00,911.60
744,910.85,1759.54,2.92,1731.80,901.40
746,911.17,1763.34,7.39,1714.60,891.20
748,911.49,1767.13,0.00,1697.20,894.00
750,911.80,1770.93,2.63,1693.20,886.60
752,912.12,1774.72,10.06,1697.40,895.80
754,912.43,1778.50,11.09,1682.40,887.60
756,912.75,1782.29,7.39,1672.00,888.20
758,913.06,1786.07,26.16,1684.60,888.00
760,913.38,1789.84,23.60,1679.00,893.80
762,913.69,1793.62,25.30,1682.20,900.40
764,914.01,1797.39,26.94,1666.00,891.20
766,914.32,1801.15,32.93,1662.80,890.20
768,914.64,1804.92,31.71,1659.20,893.80
770,914.95,1808.68,44.68,1669.20,896.20
772,915.26,1812.44,40.10,1660.80,899.80
774,915.58,1816.19,47.00,1651.80,888.00
776,915.89,1819.94,71.57,1686.80,896.60
778,916.21,1823.69,111.93,1720.60,898.20
780,916.52,1827.43,173.09,1769.60,902.40
782,916.84,1831.17,134.12,1714.80,886.20
784,917.15,1834.91,114.48,1692.80,886.40
786,917.47,1838.64,100.91,1672.80,895.00
788,917.78,1842.38,89.28,1645.60,891.00
790,918.09,1846.10,72.79,1619.00,888.00
792,918.41,1849.83,63.33,1603.00,895.60
794,918.72,1853.55,70.66,1587.40,883.60
796,919.04,1857.27,56.83,1575.00,891.60
798,919.35,1860.98,60.75,1568.80,887.20
800,919.66,1864.69,50.51,1553.00,893.60
802,919.98,1868.40,65.03,1558.40,892.20
804,920.29,1872.11,62.62,1548.20,892.00
806,920.60,1875.81,55.23,1526.60,886.00
808,920.92,1879.51,64.43,1528.60,887.20
810,921.23,1883.20,56.98,1523.80,896.60
812,921.55,1886.90,56.09,1508.40,888.40
814,921.86,1890.58,61.22,1518.60,903.40
816,922.17,1894.27,64.82,1509.60,900.00
818,922.49,1897.95,55.42,1491.80,897.00
820,922.80,1901.63,41.30,1464.00,891.40
822,923.11,1905.31,52.93,1466.60,891.40
824,923.42,1908.98,51.27,1460.20,894.20
826,923.74,1912.65,54.12,1461.00,896.80
828,924.05,1916.31,52.11,1444.00,890.60
830,924.36,1919.98,68.39,1447.60,886.20
832,924.68,1923.64,58.41,1428.60,883.60
834,924.99,1927.29,55.14,1421.00,886.80
836,925.30,1930.94,58.47,1414.20,886.80
838,925.61,1934.59,48.58,1404.60,893.80
840,925.93,1938.24,45.60,1395.60,892.80
842,926.24,1941.88,42.15,1383.60,893.40
844,926.55,1945.52,41.77,1373.60,891.20
846,926.86,1949.16,49.98,1374.40,889.40
848,927.18,1952.79,42.61,1357.20,889.60
850,927.49,1956.42,50.54,1358.60,890.00
852,927.80,1960.05,48.46,1374.20,913.80
854,928.11,1963.67,40.67,1334.80,890.00
856,928.42,1967.29,35.39,1328.60,895.40
858,928.74,1970.91,31.16,1313.00,891.60
860,929.05,1974.52,30.16,1299.80,888.00
862,929.36,1978.13,35.71,1296.60,886.80
864,929.67,1981.74,28.82,1286.40,890.40
866,929.98,1985.35,13.10,1269.00,895.20
868,930.29,1988.95,15.57,1262.40,893.00
870,930.61,1992.54,19.43,1254.80,889.80
872,930.92,1996.14,14.02,1244.20,891.00
874,931.23,1999.73,6.24,1236.20,897.20
876,931.54,2003.32,13.03,1230.00,889.60
878,931.85,2006.90,4.70,1216.80,892.00
880,932.16,2010.48,9.20,1210.60,888.40
882,932.47,2014.06,10.28,1203.60,888.80
884,932.78,2017.63,7.57,1202.00,894.40
886,933.09,2021.21,0.00,1183.40,891.20
888,933.41,2024.77,6.10,1188.20,895.40
890,933.72,2028.34,8.67,1191.20,901.80
892,934.03,2031.90,0.00,1168.60,897.80
894,934.34,2035.46,1.87,1161.40,890.60
896,934.65,2039.01,3.65,1153.00,886.40
898,934.96,2042.57,0.00,1146.60,897.00
900,935.27,2046.11,6.54,1161.00,901.40
902,935.58,2049.66,0.00,1128.20,883.40
904,935.89,2053.20,7.78,1144.20,892.20
906,936.20,2056.74,0.00,1128.80,891.60
908,936.51,2060.28,6.98,1138.00,893.80
910,936.82,2063.81,27.33,1145.20,893.00
912,937.13,2067.34,6.31,1133.20,898.60
914,937.44,2070.86,6.15,1123.00,891.40
916,937.75,2074.39,17.00,1118.60,883.80
918,938.06,2077.91,12.78,1116.20,890.00
920,938.37,2081.42,13.41,1116.80,893.20
922,938.68,2084.94,4.80,1100.20,888.00
924,938.99,2088.45,1.60,1097.00,891.60
926,939.30,2091.95,1.56,1097.00,894.00
928,939.60,2095.46,0.00,1085.00,891.80
930,939.91,2098.96,1.70,1094.60,899.40
932,940.22,2102.45,0.00,1081.00,894.80
934,940.53,2105.95,4.00,1076.20,884.80
936,940.84,2109.44,0.00,1072.20,888.80
938,941.15,2112.92,2.14,1081.80,895.20
940,941.46,2116.41,0.00,1069.40,887.60
942,941.77,2119.89,0.00,1072.00,895.00
944,942.07,2123.37,0.00,1066.60,889.20
946,942.38,2126.84,0.00,1072.80,898.40
948,942.69,2130.31,1.45,1076.80,896.00
950,943.00,2133.78,0.00,1073.60,895.20
952,943.31,2137.24,0.00,1075.00,895.20
954,943.62,2140.70,0.00,1073.20,896.80
956,943.92,2144.16,0.00,1072.60,890.20
958,944.23,2147.62,0.00,1082.20,891.80
960,944.54,2151.07,0.00,1098.20,903.40
962,944.85,2154.52,0.00,1101.00,903.00
964,945.16,2157.96,0.42,1109.60,898.60
966,945.46,2161.40,0.00,1104.00,897.80
968,945.77,2164.84,0.00,1104.00,881.20
970,946.08,2168.28,0.00,1120.80,890.40
972,946.39,2171.71,0.00,1134.80,891.00
974,946.69,2175.14,0.00,1151.20,891.20
976,947.00,2178.57,0.00,1165.40,892.00
978,947.31,2181.99,0.00,1175.00,883.40
980,947.61,2185.41,1.87,1215.80,890.80
982,947.92,2188.82,20.49,1253.80,896.20
984,948.23,2192.24,71.30,1307.20,887.60
986,948.53,2195.65,166.71,1426.40,894.20
988,948.84,2199.05,392.28,1596.40,878.00
990,949.15,2202.46,824.86,1857.60,895.40
992,949.45,2205.86,876.47,1891.40,890.20
994,949.76,2209.25,463.49,1677.80,886.80
996,950.07,2212.65,301.23,1572.20,892.40
998,950.37,2216.04,350.00,1596.20,883.20
1000,950.68,2219.43,475.61,1703.00,895.40
1002,950.98,2222.81,719.77,1904.80,897.40
1004,951.29,2226.19,1049.94,2170.80,886.80
1006,951.60,2229.57,1356.53,2479.20,890.80
1008,951.90,2232.94,1783.62,2985.00,886.40
1010,952.21,2236.32,2537.76,4003.20,892.40
1012,952.51,2239.68,4153.81,6307.40,897.00
1014,952.82,2243.05,7933.63,11188.80,890.00
1016,953.12,2246.41,18589.47,20936.60,903.40
1018,953.43,2249.77,43515.29,35106.60,919.80
1020,953.73,2253.12,63807.99,43571.40,908.20
1022,954.04,2256.48,37677.76,32519.40,889.20
1024,954.34,2259.83,11461.39,15804.80,899.60
1026,954.65,2263.17,4521.76,7807.40,890.80
1028,954.95,2266.51,3274.95,4989.80,896.40
1030,955.26,2269.85,2928.41,3881.00,900.00
1032,955.56,2273.19,2419.10,3294.60,896.20
1034,955.87,2276.52,2002.25,3017.00,895.80
1036,956.17,2279.85,1809.93,2943.20,901.20
1038,956.48,2283.18,2052.53,3197.80,887.20
1040,956.78,2286.50,2799.06,3761.60,890.20
1042,957.08,2289.82,4374.02,4638.00,885.60
1044,957.39,2293.14,5654.32,5193.40,897.00
1046,957.69,2296.45,4563.10,4629.20,890.20
1048,957.99,2299.76,2504.47,3477.40,901.80
1050,958.30,2303.07,1324.67,2568.00,893.80
1052,958.60,2306.38,813.80,2048.60,892.20
1054,958.91,2309.68,529.43,1741.20,894.40
1056,959.21,2312.98,362.00,1560.60,886.00
1058,959.51,2316.27,244.32,1461.00,892.00
1060,959.82,2319.56,161.41,1396.60,899.20
1062,960.12,2322.85,114.14,1345.60,888.40
1064,960.42,2326.14,59.74,1299.80,886.80
1066,960.72,2329.42,40.75,1284.80,891.80
1068,961.03,2332.70,15.20,1255.20,893.80
1070,961.33,2335.97,13.92,1234.80,891.60
1072,961.63,2339.25,33.15,1223.80,885.80
1074,961.93,2342.52,4.61,1198.00,891.00
1076,962.24,2345.78,0.00,1173.00,888.80
1078,962.54,2349.05,0.00,1157.00,890.00
1080,962.84,2352.31,0.00,1136.40,895.00
1082,963.14,2355.56,0.00,1122.20,892.40
1084,963.45,2358.82,0.00,1109.80,887.20
1086,963.75,2362.07,0.00,1107.40,900.00
1088,964.05,2365.32,0.00,1108.00,903.00
1090,964.35,2368.56,0.00,1088.60,894.60
1092,964.65,2371.80,0.00,1088.00,895.80
1094,964.95,2375.04,0.00,1083.80,890.60
1096,965.25,2378.27,0.00,1076.60,886.00
1098,965.56,2381.51,2.95,1087.80,895.60
1100,965.86,2384.73,9.49,1087.00,892.80
1102,966.16,2387.96,11.01,1084.00,891.80
1104,966.46,2391.18,4.45,1086.40,901.60
1106,966.76,2394.40,31.23,1094.00,891.40
1108,967.06,2397.62,54.48,1112.80,900.00
1110,967.36,2400.83,64.85,1104.40,887.20
1112,967.66,2404.04,74.75,1122.80,900.20
1114,967.96,2407.25,81.19,1111.80,886.80
1116,968.26,2410.45,102.82,1124.80,890.40
1118,968.56,2413.65,107.37,1122.60,890.40
1120,968.86,2416.85,95.43,1123.80,900.20
1122,969.16,2420.04,82.41,1107.40,891.20
1124,969.46,2423.23,68.37,1091.40,888.40
1126,969.76,2426.42,74.63,1092.80,890.40
1128,970.06,2429.60,59.59,1075.60,884.60
1130,970.36,2432.79,57.14,1075.20,888.20
1132,970.66,2435.96,58.75,1076.40,893.00
1134,970.96,2439.14,58.59,1073.00,893.20
1136,971.26,2442.31,50.91,1072.60,898.60
1138,971.56,2445.48,41.31,1059.00,893.40
1140,971.86,2448.65,53.05,1058.80,890.00
1142,972.16,2451.81,47.22,1057.20,893.60
1144,972.45,2454.97,25.51,1043.20,895.40
1146,972.75,2458.13,39.25,1049.00,895.40
1148,973.05,2461.28,52.43,1049.00,890.00
1150,973.35,2464.43,45.31,1047.40,895.20
1152,973.65,2467.58,45.96,1044.00,893.00
1154,973.95,2470.72,62.31,1050.80,891.80
1156,974.24,2473.86,68.53,1050.00,891.80
1158,974.54,2477.00,65.58,1044.00,889.80
1160,974.84,2480.13,66.66,1049.00,895.80
1162,975.14,2483.27,75.03,1047.20,891.80
1164,975.43,2486.40,71.87,1035.00,883.20
1166,975.73,2489.52,70.28,1037.20,889.20
1168,976.03,2492.64,68.39,1027.00,885.00
1170,976.33,2495.76,61.43,1028.80,892.20
1172,976.62,2498.88,37.26,1010.20,888.00
1174,976.92,2501.99,38.21,1021.20,899.00
1176,977.22,2505.10,21.75,1003.80,895.20
1178,977.51,2508.21,16.99,995.80,894.20
1180,977.81,2511.31,27.52,995.40,889.80
1182,978.11,2514.41,10.49,989.20,893.20
1184,978.40,2517.51,7.52,985.80,894.20
1186,978.70,2520.61,27.72,989.60,891.60
1188,979.00,2523.70,21.02,987.40,895.20
1190,979.29,2526.79,7.45,976.40,890.80
1192,979.59,2529.87,1.99,976.20,896.20
1194,979.88,2532.95,12.52,971.80,885.80
1196,980.18,2536.03,14.87,975.80,894.20
1198,980.48,2539.11,18.24,982.40,900.40
1200,980.77,2542.18,14.18,972.40,892.40
1202,981.07,2545.25,20.97,976.00,895.60
1204,981.36,2548.32,3.83,966.00,895.40
1206,981.66,2551.38,3.18,969.20,899.20
1208,981.95,2554.44,5.29,962.40,893.20
1210,982.25,2557.50,19.62,977.40,903.40
1212,982.54,2560.56,0.00,966.20,902.80
1214,982.84,2563.61,1.53,970.80,907.00
1216,983.13,2566.66,15.22,968.40,899.20
1218,983.43,2569.70,2.38,960.60,898.60
1220,983.72,2572.74,0.14,961.80,902.20
1222,984.01,2575.78,13.96,960.20,894.20
1224,984.31,2578.82,15.97,953.60,888.80
1226,984.60,2581.85,4.09,957.60,899.20
1228,984.90,2584.88,7.83,948.80,887.20
1230,985.19,2587.91,0.00,950.20,895.60
1232,985.48,2590.93,0.00,953.00,901.20
1234,985.78,2593.96,15.51,958.20,894.20
1236,986.07,2596.97,25.96,957.20,892.80
1238,986.36,2599.99,8.22,959.80,903.00
1240,986.66,2603.00,30.87,963.80,897.40
1242,986.95,2606.01,12.68,961.00,902.00
1244,987.24,2609.01,9.63,961.60,902.60
1246,987.54,2612.02,2.80,939.80,886.00
1248,987.83,2615.02,7.46,957.00,901.80
1250,988.12,2618.01,28.49,963.20,899.00
1252,988.41,2621.01,19.95,960.40,898.60
1254,988.71,2624.00,26.21,958.60,893.60
1256,989.00,2626.99,29.01,964.40,900.20
1258,989.29,2629.97,28.23,957.80,896.00
1260,989.58,2632.95,26.73,962.80,902.60
1262,989.87,2635.93,27.91,961.20,897.00
1264,990.16,2638.91,5.54,947.20,891.80
1266,990.46,2641.88,2.78,956.80,904.20
1268,990.75,2644.85,7.21,962.00,909.00
1270,991.04,2647.81,7.06,949.20,898.40
1272,991.33,2650.78,17.38,951.40,897.40
1274,991.62,2653.74,12.04,951.60,895.80
1276,991.91,2656.70,0.00,942.20,898.00
1278,992.20,2659.65,0.01,949.60,901.60
1280,992.49,2662.60,0.07,944.60,895.40
1282,992.78,2665.55,0.00,953.00,904.20
1284,993.07,2668.50,0.83,956.00,905.20
1286,993.36,2671.44,0.00,957.60,907.40
1288,993.65,2674.38,14.89,963.20,905.00
1290,993.94,2677.31,0.00,952.40,899.20
1292,994.23,2680.25,0.00,951.80,900.00
1294,994.52,2683.18,0.00,950.20,900.20
1296,994.81,2686.10,0.00,956.20,898.60
1298,995.10,2689.03,2.19,961.40,899.20
1300,995.39,2691.95,0.00,956.20,894.80
1302,995.68,2694.87,3.47,972.00,903.40
1304,995.97,2697.78,4.45,979.40,907.60
1306,996.26,2700.70,4.35,970.40,895.60
1308,996.55,2703.61,35.03,994.80,901.80
1310,996.84,2706.51,56.58,1008.20,904.20
1312,997.13,2709.42,89.49,1021.60,898.60
1314,997.41,2712.32,138.47,1052.40,905.40
1316,997.70,2715.21,219.42,1080.00,894.40
1318,997.99,2718.11,323.61,1138.20,898.80
1320,998.28,2721.00,449.66,1201.80,899.00
1322,998.57,2723.89,734.70,1328.60,905.00
1324,998.86,2726.77,1182.41,1471.20,892.80
1326,999.14,2729.66,1756.25,1640.60,898.40
1328,999.43,2732.54,2166.08,1746.00,899.20
1330,999.72,2735.41,2032.12,1713.80,897.40
1332,1000.01,2738.29,1568.00,1602.40,906.60
1334,1000.29,2741.16,1176.08,1477.40,899.60
1336,1000.58,2744.03,854.51,1355.20,895.20
1338,1000.87,2746.89,653.63,1282.20,902.00
1340,1001.15,2749.75,476.02,1207.00,898.80
1342,1001.44,2752.61,386.73,1171.40,899.60
1344,1001.73,2755.47,278.17,1129.20,899.80
1346,1002.01,2758.32,221.56,1104.40,895.80
1348,1002.30,2761.17,180.10,1096.80,904.20
1350,1002.59,2764.02,150.87,1086.60,905.60
1352,1002.87,2766.86,102.33,1066.20,901.40
1354,1003.16,2769.70,66.53,1052.00,895.00
1356,1003.44,2772.54,22.73,1041.00,894.40
1358,1003.73,2775.38,2.15,1039.60,902.80
1360,1004.01,2778.21,10.22,1034.60,892.20
1362,1004.30,2781.04,21.92,1044.60,899.20
1364,1004.58,2783.87,7.22,1036.40,893.20
1366,1004.87,2786.69,7.12,1032.60,886.80
1368,1005.15,2789.51,0.00,1043.80,901.00
1370,1005.44,2792.33,0.00,1044.20,904.20
1372,1005.72,2795.14,0.00,1049.00,903.40
1374,1006.01,2797.95,0.00,1050.60,904.00
1376,1006.29,2800.76,0.00,1045.00,895.60
1378,1006.58,2803.57,0.00,1066.40,908.20
1380,1006.86,2806.37,0.00,1054.80,896.20
1382,1007.14,2809.17,0.00,1071.60,896.60
1384,1007.43,2811.97,0.00,1076.80,895.20
1386,1007.71,2814.77,0.00,1085.00,888.00
1388,1008.00,2817.56,0.00,1094.00,893.60
1390,1008.28,2820.35,0.00,1122.20,904.00
1392,1008.56,2823.13,0.00,1137.20,897.80
1394,1008.85,2825.91,0.00,1182.60,903.20
1396,1009.13,2828.69,0.00,1211.40,899.40
1398,1009.41,2831.47,10.01,1275.40,902.60
1400,1009.69,2834.24,146.13,1332.60,886.40
1402,1009.98,2837.02,398.58,1407.60,894.80
1404,1010.26,2839.78,484.72,1456.60,903.20
1406,1010.54,2842.55,521.44,1487.40,893.20
1408,1010.82,2845.31,368.47,1491.00,903.00
1410,1011.11,2848.07,282.51,1501.40,901.60
1412,1011.39,2850.83,131.84,1498.00,906.20
1414,1011.67,2853.58,45.79,1498.60,903.80
1416,1011.95,2856.33,17.28,1510.20,899.80
1418,1012.23,2859.08,6.31,1526.20,899.40
1420,1012.51,2861.83,10.31,1550.40,896.00
1422,1012.80,2864.57,28.19,1598.20,912.40
1424,1013.08,2867.31,155.87,1656.00,905.40
1426,1013.36,2870.04,247.54,1691.60,905.00
1428,1013.64,2872.78,397.09,1742.40,900.40
1430,1013.92,2875.51,508.43,1802.40,909.40
1432,1014.20,2878.24,458.32,1806.80,902.60
1434,1014.48,2880.96,530.28,1835.80,895.20
1436,1014.76,2883.68,443.82,1835.80,898.20
1438,1015.04,2886.40,397.44,1846.60,889.60
1440,1015.32,2889.12,144.55,1835.00,908.00
1442,1015.60,2891.83,43.83,1817.40,898.00
1444,1015.88,2894.54,28.93,1837.80,904.60
1446,1016.16,2897.25,47.55,1846.40,889.20
1448,1016.44,2899.96,45.29,1873.00,906.20
1450,1016.72,2902.66,130.52,1907.40,900.00
1452,1017.00,2905.36,343.71,1977.40,912.40
1454,1017.28,2908.06,649.14,2022.80,899.20
1456,1017.55,2910.75,1178.93,2149.40,907.80
1458,1017.83,2913.44,1558.35,2228.00,898.60
1460,1018.11,2916.13,2313.13,2416.40,899.60
1462,1018.39,2918.81,3074.46,2605.00,906.60
1464,1018.67,2921.49,4127.26,2847.20,900.20
1466,1018.95,2924.17,5818.19,3261.80,902.80
1468,1019.22,2926.85,7710.08,3799.40,904.80
1470,1019.50,2929.52,9923.27,4595.80,896.00
1472,1019.78,2932.20,13435.38,5929.40,894.80
1474,1020.06,2934.86,21567.86,8324.20,901.40
1476,1020.33,2937.53,41197.04,12288.00,912.80
1478,1020.61,2940.19,77305.00,17313.60,904.20
1480,1020.89,2942.85,103600.73,20165.80,908.40
1482,1021.17,2945.51,81943.73,17626.20,900.20
1484,1021.44,2948.16,43911.33,12387.00,899.80
1486,1021.72,2950.81,22539.94,8249.00,901.20
1488,1022.00,2953.46,14247.46,5886.80,908.20
1490,1022.27,2956.11,11051.68,4603.60,901.80
1492,1022.55,2958.75,9151.71,3845.40,909.40
1494,1022.82,2961.39,7458.36,3327.80,900.80
1496,1023.10,2964.03,6059.65,2997.80,906.20
1498,1023.38,2966.66,4876.47,2728.80,898.00
1500,1023.65,2969.29,4087.90,2552.60,902.60
1502,1023.93,2971.92,3651.30,2441.00,903.20
1504,1024.20,2974.55,3374.95,2361.00,902.20
1506,1024.48,2977.17,3243.88,2319.00,905.00
1508,1024.75,2979.79,3257.36,2301.80,899.40
1510,1025.03,2982.41,3409.30,2317.20,898.80
1512,1025.30,2985.02,3672.80,2348.80,894.60
1514,1025.58,2987.63,4044.61,2409.40,899.80
1516,1025.85,2990.24,4468.51,2473.00,898.20
1518,1026.13,2992.85,4949.38,2558.00,907.40
1520,1026.40,2995.45,5435.24,2620.60,901.20
1522,1026.68,2998.05,6084.70,2707.40,901.00
1524,1026.95,3000.65,6466.73,2747.60,904.20
1526,1027.22,3003.25,6573.40,2745.40,902.20
1528,1027.50,3005.84,6344.28,2693.20,901.60
1530,1027.77,3008.43,5893.21,2611.00,906.60
1532,1028.04,3011.02,5245.90,2489.80,905.40
1534,1028.32,3013.60,4627.56,2373.40,905.00
1536,1028.59,3016.18,4039.30,2268.20,910.80
1538,1028.86,3018.76,3325.68,2112.60,889.20
1540,1029.14,3021.34,2846.61,2031.20,902.00
1542,1029.41,3023.91,2353.72,1927.80,896.60
1544,1029.68,3026.48,1887.66,1832.60,894.00
1546,1029.95,3029.05,1536.09,1771.40,903.40
1548,1030.22,3031.61,1238.73,1711.20,903.00
1550,1030.50,3034.17,958.66,1646.80,896.20
1552,1030.77,3036.73,776.26,1608.20,896.60
1554,1031.04,3039.29,541.00,1574.20,905.60
1556,1031.31,3041.84,312.04,1519.20,893.60
1558,1031.58,3044.39,252.49,1515.00,908.80
1560,1031.85,3046.94,122.44,1480.20,911.00
1562,1032.13,3049.49,88.50,1450.00,898.60
1564,1032.40,3052.03,15.82,1430.80,908.60
1566,1032.67,3054.57,12.67,1403.00,897.20
1568,1032.94,3057.11,0.00,1392.20,912.40
1570,1033.21,3059.64,21.71,1362.20,890.40
1572,1033.48,3062.18,17.26,1362.40,907.40
1574,1033.75,3064.70,69.38,1352.40,906.80
1576,1034.02,3067.23,68.54,1332.20,901.80
1578,1034.29,3069.75,0.00,1295.20,898.00
1580,1034.56,3072.28,0.00,1293.40,904.20
1582,1034.83,3074.79,16.09,1281.20,895.20
1584,1035.10,3077.31,12.07,1274.20,901.00
1586,1035.37,3079.82,24.82,1261.20,897.40
1588,1035.64,3082.33,17.81,1259.80,908.20
1590,1035.91,3084.84,60.75,1252.20,906.00
1592,1036.17,3087.34,26.36,1228.60,895.80
1594,1036.44,3089.85,8.88,1233.80,913.40
1596,1036.71,3092.35,19.08,1209.20,897.20
1598,1036.98,3094.84,0.00,1195.60,898.40
1600,1037.25,3097.34,29.86,1188.40,892.40
1602,1037.52,3099.83,11.78,1184.20,900.00
1604,1037.78,3102.32,23.25,1181.40,904.20
1606,1038.05,3104.80,49.75,1175.80,904.60
1608,1038.32,3107.29,118.83,1167.00,897.80
1610,1038.59,3109.77,0.00,1148.80,901.60
1612,1038.85,3112.24,36.73,1144.20,897.80
1614,1039.12,3114.72,41.92,1147.60,906.20
1616,1039.39,3117.19,0.00,1116.40,890.80
1618,1039.66,3119.66,0.00,1121.60,906.80
1620,1039.92,3122.13,52.55,1120.40,902.40
1622,1040.19,3124.59,0.00,1111.80,908.20
1624,1040.45,3127.05,64.83,1100.20,893.40
1626,1040.72,3129.51,8.94,1101.00,906.20
1628,1040.99,3131.97,14.69,1096.20,905.40
1630,1041.25,3134.42,6.61,1096.20,911.40
1632,1041.52,3136.87,0.00,1071.00,892.60
1634,1041.78,3139.32,17.38,1076.20,899.00
1636,1042.05,3141.77,36.96,1096.60,922.40
1638,1042.32,3144.21,0.00,1063.40,899.20
1640,1042.58,3146.65,19.55,1072.80,908.60
1642,1042.85,3149.09,41.47,1065.20,901.60
1644,1043.11,3151.52,0.00,1057.20,903.40
1646,1043.38,3153.96,0.00,1056.20,907.00
1648,1043.64,3156.39,49.63,1055.80,897.00
1650,1043.90,3158.81,82.77,1054.00,897.80
1652,1044.17,3161.24,62.44,1054.20,904.40
1654,1044.43,3163.66,144.90,1049.00,895.60
1656,1044.70,3166.08,174.33,1064.20,912.00
1658,1044.96,3168.49,55.32,1045.60,904.60
1660,1045.22,3170.91,25.56,1034.80,897.40
1662,1045.49,3173.32,5.72,1032.40,899.20
1664,1045.75,3175.73,0.00,1032.00,905.40
1666,1046.01,3178.13,0.00,1023.80,898.00
1668,1046.28,3180.54,38.49,1034.00,905.40
1670,1046.54,3182.94,11.13,1031.60,909.00
1672,1046.80,3185.34,69.19,1024.60,899.60
1674,1047.07,3187.73,43.18,1019.20,895.40
1676,1047.33,3190.12,0.00,1021.60,908.60
1678,1047.59,3192.51,27.35,1024.00,903.80
1680,1047.85,3194.90,52.75,1031.60,912.60
1682,1048.11,3197.29,111.54,1032.00,911.80
1684,1048.38,3199.67,68.04,1024.60,909.60
1686,1048.64,3202.05,111.32,1030.00,912.00
1688,1048.90,3204.43,78.62,1018.20,904.20
1690,1049.16,3206.80,148.05,1018.40,900.40
1692,1049.42,3209.17,43.73,1019.40,911.60
1694,1049.68,3211.54,140.93,1015.20,898.80
1696,1049.94,3213.91,84.95,1011.60,901.80
1698,1050.20,3216.27,192.67,1021.20,904.60
1700,1050.46,3218.63,179.32,1022.20,909.80
1702,1050.72,3220.99,132.47,1014.60,907.00
1704,1050.98,3223.35,163.71,1015.80,906.20
1706,1051.24,3225.70,112.81,1005.40,900.60
1708,1051.50,3228.05,112.71,1005.40,901.20
1710,1051.76,3230.40,188.58,1018.20,908.20
1712,1052.02,3232.75,182.02,1010.60,904.60
1714,1052.28,3235.09,270.79,1018.80,910.00
1716,1052.54,3237.43,258.00,1008.00,901.80
1718,1052.80,3239.77,245.33,1007.00,900.20
1720,1053.06,3242.11,153.38,1006.00,905.80
1722,1053.32,3244.44,215.14,1001.20,897.40
1724,1053.58,3246.77,261.67,1020.60,917.00
1726,1053.84,3249.10,342.55,1006.60,899.80
1728,1054.10,3251.42,356.93,1010.80,904.00
1730,1054.35,3253.75,341.62,1006.20,901.40
1732,1054.61,3256.07,289.71,1011.40,911.20
1734,1054.87,3258.39,262.28,1001.00,903.40
1736,1055.13,3260.70,296.16,997.00,898.00
1738,1055.38,3263.01,377.72,1005.40,902.60
1740,1055.64,3265.32,405.48,1004.00,901.40
1742,1055.90,3267.63,446.38,997.60,893.40
1744,1056.16,3269.94,366.31,1011.00,913.00
1746,1056.41,3272.24,283.50,1006.40,915.40
1748,1056.67,3274.54,438.59,1007.40,907.80
1750,1056.93,3276.84,465.54,1008.20,907.40
1752,1057.18,3279.13,295.11,994.20,905.00
1754,1057.44,3281.42,367.11,990.60,898.00
1756,1057.69,3283.71,437.42,995.40,901.00
1758,1057.95,3286.00,477.70,1008.40,913.20
1760,1058.21,3288.28,446.09,996.80,903.40
1762,1058.46,3290.57,437.06,1002.40,909.60
1764,1058.72,3292.85,403.11,997.00,907.80
1766,1058.97,3295.12,407.77,986.80,899.20
1768,1059.23,3297.40,354.21,984.00,901.40
1770,1059.48,3299.67,497.29,997.60,908.20
1772,1059.74,3301.94,402.01,984.60,901.40
1774,1059.99,3304.21,447.10,992.00,906.20
1776,1060.25,3306.47,403.04,993.80,911.40
1778,1060.50,3308.73,435.29,983.00,900.20
1780,1060.76,3310.99,339.85,977.80,902.00
1782,1061.01,3313.25,467.60,986.80,905.00
1784,1061.26,3315.50,422.65,980.00,901.40
1786,1061.52,3317.76,358.47,980.60,906.20
1788,1061.77,3320.01,416.44,987.40,910.80
1790,1062.02,3322.25,353.00,971.80,900.00
1792,1062.28,3324.50,401.48,974.40,901.20
1794,1062.53,3326.74,383.28,970.40,899.40
1796,1062.78,3328.98,462.99,977.40,903.20
1798,1063.04,3331.22,399.88,972.60,902.20
1800,1063.29,3333.45,438.57,973.40,901.60
1802,1063.54,3335.68,432.28,972.60,902.20
1804,1063.79,3337.91,482.19,978.40,907.00
1806,1064.05,3340.14,503.52,986.00,915.00
1808,1064.30,3342.36,453.08,962.80,894.60
1810,1064.55,3344.59,395.30,975.00,909.40
1812,1064.80,3346.81,438.13,963.20,895.80
1814,1065.05,3349.02,476.82,965.80,898.00
1816,1065.30,3351.24,424.11,973.00,909.60
1818,1065.55,3353.45,503.86,966.40,900.80
1820,1065.81,3355.66,475.14,978.80,915.40
1822,1066.06,3357.87,405.24,963.60,903.80
1824,1066.31,3360.07,373.60,955.00,897.20
1826,1066.56,3362.27,503.61,969.80,906.60
1828,1066.81,3364.47,441.67,958.80,898.20
1830,1067.06,3366.67,367.35,962.80,905.80
1832,1067.31,3368.87,472.01,963.20,903.00
1834,1067.56,3371.06,530.48,951.20,891.20
1836,1067.81,3373.25,562.88,953.20,893.20
1838,1068.06,3375.44,458.85,953.60,897.80
1840,1068.31,3377.62,523.21,955.60,897.20
1842,1068.56,3379.81,573.76,954.80,894.80
1844,1068.80,3381.99,435.85,967.40,913.80
1846,1069.05,3384.16,417.24,960.80,908.80
1848,1069.30,3386.34,656.95,956.00,895.40
1850,1069.55,3388.51,422.25,950.40,900.20
1852,1069.80,3390.68,478.15,958.60,907.00
1854,1070.05,3392.85,612.89,971.40,915.40
1856,1070.30,3395.02,555.71,955.00,901.60
1858,1070.54,3397.18,441.02,948.60,900.00
1860,1070.79,3399.34,622.79,957.80,902.80
1862,1071.04,3401.50,507.55,945.60,895.40
1864,1071.29,3403.66,500.79,942.00,892.40
1866,1071.53,3405.81,511.51,951.20,902.60
1868,1071.78,3407.96,670.32,951.00,898.80
1870,1072.03,3410.11,552.03,950.60,903.00
1872,1072.27,3412.26,273.19,947.80,909.40
1874,1072.52,3414.40,397.28,944.60,901.00
1876,1072.77,3416.54,360.49,942.00,900.80
1878,1073.01,3418.68,478.84,953.80,910.20
1880,1073.26,3420.82,728.61,938.20,887.60
1882,1073.51,3422.96,498.85,949.40,906.60
1884,1073.75,3425.09,561.89,946.40,901.80
1886,1074.00,3427.22,509.79,935.20,893.20
1888,1074.24,3429.35,605.07,949.80,905.40
1890,1074.49,3431.47,407.72,936.20,898.40
1892,1074.73,3433.59,357.61,933.00,897.00
1894,1074.98,3435.71,428.70,951.20,913.20
1896,1075.22,3437.83,501.97,942.00,902.40
1898,1075.47,3439.95,645.72,947.60,904.60
1900,1075.71,3442.06,717.82,948.40,903.80
1902,1075.96,3444.17,415.50,937.40,902.00
1904,1076.20,3446.28,393.87,922.40,887.80
1906,1076.44,3448.38,489.55,946.60,910.00
1908,1076.69,3450.49,639.24,947.80,908.60
1910,1076.93,3452.59,626.03,943.00,905.40
1912,1077.17,3454.69,715.05,939.20,898.60
1914,1077.42,3456.79,508.69,939.20,902.80
1916,1077.66,3458.88,202.37,926.00,899.20
1918,1077.90,3460.97,512.99,931.60,895.60
1920,1078.15,3463.06,504.29,940.80,907.40
1922,1078.39,3465.15,571.92,935.60,902.00
1924,1078.63,3467.23,459.37,924.60,894.60
1926,1078.87,3469.32,616.46,939.20,905.40
1928,1079.12,3471.40,488.20,929.80,898.60
1930,1079.36,3473.47,458.09,949.00,917.60
1932,1079.60,3475.55,206.13,923.00,899.20
1934,1079.84,3477.62,328.36,931.40,904.80
1936,1080.08,3479.69,404.29,928.00,900.80
1938,1080.33,3481.76,532.48,925.60,896.20
1940,1080.57,3483.83,838.47,934.40,897.40
1942,1080.81,3485.89,0.00,923.40,908.60
1944,1081.05,3487.95,440.86,936.40,910.00
1946,1081.29,3490.01,468.32,929.80,903.40
1948,1081.53,3492.07,534.50,926.40,897.60
1950,1081.77,3494.12,280.12,920.20,896.60
1952,1082.01,3496.18,362.63,933.40,907.00
1954,1082.25,3498.23,293.88,920.00,897.00
1956,1082.49,3500.27,584.46,933.20,905.20
1958,1082.73,3502.32,674.44,918.20,889.20
1960,1082.97,3504.36,384.70,928.00,904.60
1962,1083.21,3506.40,143.81,920.80,902.60
1964,1083.45,3508.44,177.79,910.40,891.40
1966,1083.69,3510.48,393.62,938.80,915.00
1968,1083.93,3512.51,587.39,930.00,902.80
1970,1084.16,3514.54,701.26,925.20,896.60
1972,1084.40,3516.57,379.19,922.80,901.00
1974,1084.64,3518.60,347.23,918.60,897.40
1976,1084.88,3520.62,530.18,930.00,905.00
1978,1085.12,3522.65,359.92,932.00,910.60
1980,1085.36,3524.67,442.04,923.80,900.40
1982,1085.59,3526.68,179.27,917.20,899.60
1984,1085.83,3528.70,61.78,924.60,909.80
1986,1086.07,3530.71,609.88,919.20,892.60
1988,1086.31,3532.72,200.15,920.60,903.00
1990,1086.54,3534.73,434.78,918.00,895.80
1992,1086.78,3536.74,533.36,931.60,908.60
1994,1087.02,3538.74,540.14,923.20,900.60
1996,1087.25,3540.74,186.46,915.80,899.40
1998,1087.49,3542.74,555.42,922.80,898.60
2000,1087.73,3544.74,442.05,925.60,904.20
2002,1087.96,3546.74,454.66,922.60,901.80
2004,1088.20,3548.73,424.84,930.20,910.40
2006,1088.43,3550.72,378.89,919.60,900.60
2008,1088.67,3552.71,665.71,924.60,900.00
2010,1088.90,3554.69,258.97,909.80,892.80
2012,1089.14,3556.68,578.30,922.40,900.00
2014,1089.38,3558.66,633.65,916.40,893.60
2016,1089.61,3560.64,546.89,913.20,891.60
2018,1089.84,3562.62,338.91,922.40,904.20
2020,1090.08,3564.59,458.61,910.80,890.60
2022,1090.31,3566.56,279.58,911.60,895.40
2024,1090.55,3568.53,930.71,920.40,894.60
2026,1090.78,3570.50,359.10,909.60,892.60
2028,1091.02,3572.47,187.35,908.60,894.20
2030,1091.25,3574.43,520.78,910.80,890.40
2032,1091.48,3576.39,163.50,900.20,886.00
2034,1091.72,3578.35,242.05,902.40,886.40
2036,1091.95,3580.31,195.88,907.80,893.00
2038,1092.18,3582.26,368.32,901.00,884.40
2040,1092.42,3584.22,547.01,898.60,881.40
2042,1092.65,3586.17,689.51,901.20,882.80
2044,1092.88,3588.12,241.34,898.40,883.60
2046,1093.11,3590.06,143.93,899.80,881.20
2047,1093.23,3591.03,1.02,891.80,881.20