File: src/enlighten/plugins/Raman/MatchingLibrary/785X/arginine.csv
ENLIGHTEN Version,4.1.22
Measurement ID,20250220-202757-986215-WP-01977
Serial Number,WP-01977
Model,WP-785X-F13-R-ILC
Detector,S16011-1106
Label,arginine
Declared Match,
Declared Score,0
Scan Averaging,2
Boxcar,0
Technique,Raman
Baseline Correction Algo,AirPLS
ROI Pixel Start,47
ROI Pixel End,2047
ROI Start Line,0
ROI Stop Line,63
CCD C4,1.38617e-12
Slit Width,25
Cropped,True
Interpolated,False
Wavenumber Correction,-0.100481
Raman Intensity Corrected,True
Deconvolved,True
Region,
High Gain Mode,False
Laser Power mW,
Electrical Dark Correction,False
Battery %,
Device ID,<DeviceID USB:0x24aa:0x1000:0:1>
FW Version,10.0.0.10
FPGA Version,035-001
BLE Version,
Prefix,enlighten
Suffix,
Preset,
Auto-Raman,True
Session Count,0
Plugin Name,
Integration Time,805
Timestamp,2025-02-20 20:27:57.9862
Note,
Temperature,0
CCD C0,793.274
CCD C1,0.153259
CCD C2,1.40788e-05
CCD C3,-1.132e-08
CCD Offset,0
CCD Gain,1.9
CCD Offset Odd,0
CCD Gain Odd,1.9
Laser Wavelength,785.032
Laser Enable,False
Laser Power %,0
Laser Temperature,0
Pixel Count,2048

Pixel,Wavelength,Wavenumber,Processed,Raw,Dark
0,793.27,132.25,NA,1111.00,1033.00
2,793.58,137.12,NA,1153.50,1050.50
4,793.89,141.99,NA,1125.00,1034.00
6,794.19,146.86,NA,1134.00,1053.00
8,794.50,151.72,NA,1158.50,1067.50
10,794.81,156.58,NA,1156.00,1065.50
12,795.12,161.44,NA,1129.00,1040.00
14,795.42,166.30,NA,1140.50,1035.00
16,795.73,171.16,NA,1134.50,1043.00
18,796.04,176.01,NA,1172.00,1069.50
20,796.35,180.86,NA,1171.00,1079.00
22,796.65,185.71,NA,1220.50,1103.50
24,796.96,190.56,NA,1164.00,1067.50
26,797.27,195.41,NA,1209.00,1094.00
28,797.58,200.25,NA,1220.00,1086.50
30,797.88,205.09,NA,1192.50,1055.00
32,798.19,209.93,NA,1202.00,1057.00
34,798.50,214.77,NA,1196.50,1059.50
36,798.81,219.60,NA,1236.50,1046.50
38,799.12,224.43,NA,1356.00,1070.00
40,799.43,229.27,NA,1890.00,1093.00
42,799.74,234.09,NA,3812.50,1078.00
44,800.04,238.92,NA,6675.50,1136.00
46,800.35,243.75,NA,7874.00,1081.50
48,800.66,248.57,553.28,8241.00,1100.50
50,800.97,253.39,492.41,8165.50,1105.50
52,801.28,258.21,348.80,8027.00,1105.00
54,801.59,263.02,98.55,7773.00,1115.00
56,801.90,267.83,0.00,7545.00,1096.50
58,802.21,272.65,10.21,7574.00,1104.00
60,802.52,277.46,31.79,7582.50,1089.00
62,802.83,282.26,137.17,7755.00,1119.00
64,803.14,287.07,483.54,8206.50,1120.50
66,803.45,291.87,1026.83,8911.00,1119.50
68,803.76,296.67,1874.72,9879.50,1121.00
70,804.07,301.47,2494.77,10598.50,1101.50
72,804.38,306.26,2714.62,10934.50,1085.50
74,804.69,311.06,2619.25,10954.50,1086.50
76,805.00,315.85,2734.93,11094.00,1089.00
78,805.31,320.64,3115.12,11375.00,1103.50
80,805.62,325.42,2935.68,11036.00,1108.00
82,805.93,330.21,1942.38,9935.50,1104.50
84,806.24,334.99,957.54,8752.00,1062.00
86,806.55,339.77,617.12,8313.00,1094.00
88,806.86,344.55,1055.97,8867.50,1117.00
90,807.17,349.32,2090.67,9926.50,1081.00
92,807.48,354.10,2730.52,10630.00,1081.50
94,807.80,358.87,2506.56,10579.50,1120.50
96,808.11,363.63,2107.10,10138.00,1095.00
98,808.42,368.40,2033.04,9983.50,1081.00
100,808.73,373.16,2205.36,10092.50,1076.00
102,809.04,377.93,2348.03,10152.50,1073.00
104,809.35,382.68,1970.04,9712.00,1079.00
106,809.66,387.44,1595.51,9196.50,1104.00
108,809.98,392.19,1216.39,8587.00,1062.00
110,810.29,396.95,729.17,8013.50,1098.00
112,810.60,401.70,546.19,7713.50,1076.00
114,810.91,406.44,727.57,7847.50,1089.00
116,811.22,411.19,1021.84,8067.50,1106.50
118,811.54,415.93,700.18,7691.00,1105.00
120,811.85,420.67,297.99,7139.50,1065.50
122,812.16,425.41,46.82,6753.00,1071.00
124,812.47,430.14,0.32,6621.00,1097.50
126,812.79,434.87,0.00,6527.00,1065.50
128,813.10,439.60,18.21,6519.50,1048.50
130,813.41,444.33,0.00,6485.50,1070.50
132,813.72,449.06,0.00,6446.00,1059.50
134,814.04,453.78,9.56,6496.00,1080.00
136,814.35,458.50,92.23,6541.50,1048.50
138,814.66,463.22,148.17,6601.50,1042.50
140,814.98,467.93,185.83,6683.00,1060.50
142,815.29,472.65,332.94,6967.00,1065.50
144,815.60,477.36,725.56,7615.00,1084.00
146,815.92,482.06,1532.71,8728.50,1035.00
148,816.23,486.77,2682.73,10127.00,1091.50
150,816.54,491.47,3036.95,10550.00,1114.00
152,816.86,496.17,2378.11,9750.50,1055.00
154,817.17,500.87,1360.08,8416.00,1079.00
156,817.48,505.57,616.68,7248.50,1056.00
158,817.80,510.26,156.45,6548.00,1048.50
160,818.11,514.95,1.32,6212.00,1080.50
162,818.42,519.64,0.00,6088.50,1076.00
164,818.74,524.32,0.00,6062.00,1069.50
166,819.05,529.00,1.08,6144.50,1096.00
168,819.37,533.68,46.94,6318.00,1067.50
170,819.68,538.36,373.79,7030.50,1088.00
172,819.99,543.04,1501.42,8907.50,1103.50
174,820.31,547.71,3881.19,11714.50,1080.00
176,820.62,552.38,5121.44,12996.00,1066.00
178,820.94,557.05,3346.81,11290.00,1062.50
180,821.25,561.71,1574.63,9086.50,1032.50
182,821.57,566.37,1327.70,8656.00,1055.00
184,821.88,571.03,2345.71,9837.00,1078.50
186,822.20,575.69,3701.66,11123.50,1077.00
188,822.51,580.34,2977.88,10390.50,1071.00
190,822.83,584.99,1388.53,8514.50,1082.00
192,823.14,589.64,639.04,7265.50,1079.50
194,823.46,594.29,555.82,7030.50,1071.00
196,823.77,598.93,841.61,7539.00,1065.50
198,824.09,603.57,1621.79,8852.00,1042.50
200,824.40,608.21,3382.37,11145.00,1067.00
202,824.72,612.85,4668.68,12505.50,1090.00
204,825.03,617.48,3475.28,11299.00,1084.50
206,825.35,622.11,1782.81,9103.50,1076.00
208,825.66,626.74,1061.14,7827.50,1087.00
210,825.98,631.36,777.88,7222.00,1063.50
212,826.29,635.99,799.87,7178.50,1072.00
214,826.61,640.61,906.49,7286.00,1071.00
216,826.92,645.22,994.25,7376.50,1057.00
218,827.24,649.84,1047.58,7425.50,1048.50
220,827.56,654.45,954.54,7311.00,1090.00
222,827.87,659.06,819.89,7060.50,1073.00
224,828.19,663.67,592.15,6720.50,1073.00
226,828.50,668.27,390.28,6477.00,1150.00
228,828.82,672.87,303.09,6230.00,1083.50
230,829.13,677.47,226.48,6043.00,1060.00
232,829.45,682.06,135.18,5911.00,1074.00
234,829.77,686.66,120.42,5920.50,1149.00
236,830.08,691.25,85.00,5751.50,1066.00
238,830.40,695.83,2.55,5638.50,1064.00
240,830.72,700.42,0.00,5586.50,1073.50
242,831.03,705.00,4.00,5528.50,1010.50
244,831.35,709.58,3.28,5542.00,1051.00
246,831.66,714.15,0.00,5437.00,1038.00
248,831.98,718.73,0.00,5503.00,1062.50
250,832.30,723.30,0.00,5436.00,1049.00
252,832.61,727.87,0.00,5494.50,1085.50
254,832.93,732.43,0.00,5429.00,1005.50
256,833.25,736.99,10.54,5629.50,1084.50
258,833.56,741.55,110.52,5811.50,1063.00
260,833.88,746.11,353.26,6123.50,1050.50
262,834.20,750.66,451.82,6257.00,1061.00
264,834.51,755.22,331.04,6161.00,1078.50
266,834.83,759.76,85.95,5903.00,1073.00
268,835.15,764.31,0.83,5725.00,1074.00
270,835.47,768.85,0.00,5660.50,1038.00
272,835.78,773.39,0.00,5670.00,1056.00
274,836.10,777.93,0.00,5704.00,1055.00
276,836.42,782.46,26.61,5974.00,1051.50
278,836.73,787.00,247.94,6367.00,1049.00
280,837.05,791.52,635.85,6950.00,1039.50
282,837.37,796.05,1039.80,7498.50,1076.00
284,837.69,800.57,892.15,7360.50,1034.50
286,838.00,805.09,430.36,6838.00,1049.00
288,838.32,809.61,160.19,6469.00,1069.50
290,838.64,814.13,18.49,6259.00,1081.50
292,838.95,818.64,0.00,6180.00,1047.50
294,839.27,823.15,4.67,6257.50,1049.00
296,839.59,827.65,38.84,6431.50,1071.00
298,839.91,832.15,182.53,6787.50,1054.00
300,840.22,836.65,500.75,7565.50,1097.00
302,840.54,841.15,1444.63,9211.50,1049.50
304,840.86,845.65,3142.95,11507.00,1092.00
306,841.18,850.14,4065.29,12635.50,1079.00
308,841.50,854.63,2942.90,11619.00,1130.00
310,841.81,859.11,1805.86,10117.50,1065.50
312,842.13,863.60,1585.72,9709.50,1060.00
314,842.45,868.07,1911.90,10132.50,1050.00
316,842.77,872.55,2476.60,11017.00,1085.00
318,843.08,877.03,3029.22,11739.50,1104.00
320,843.40,881.50,3107.16,11547.00,1032.50
322,843.72,885.97,1737.57,9971.00,1083.50
324,844.04,890.43,439.10,8116.00,1043.50
326,844.36,894.89,79.32,7314.00,1049.00
328,844.67,899.35,69.37,7327.50,1076.50
330,844.99,903.81,247.82,7762.00,1031.00
332,845.31,908.26,980.96,9198.50,1070.50
334,845.63,912.71,2496.34,11426.50,1075.00
336,845.95,917.16,3802.12,13345.50,1084.00
338,846.27,921.61,4181.53,14280.50,1404.00
340,846.58,926.05,3686.16,13147.00,1063.00
342,846.90,930.49,2068.07,11041.00,1072.00
344,847.22,934.92,571.19,8830.00,1061.50
346,847.54,939.36,65.31,7799.00,1035.00
348,847.86,943.79,1.65,7541.50,1033.50
350,848.18,948.21,4.00,7619.00,1046.50
352,848.49,952.64,163.65,8048.00,1053.00
354,848.81,957.06,630.61,8776.00,1018.00
356,849.13,961.48,1238.43,10133.00,1108.00
358,849.45,965.89,2380.41,12514.50,1093.00
360,849.77,970.31,4693.23,17283.00,1058.00
362,850.09,974.71,9769.24,26213.00,1072.00
364,850.40,979.12,19207.72,38605.50,1106.00
366,850.72,983.52,24309.68,44188.50,1123.50
368,851.04,987.92,17281.28,36402.00,1024.50
370,851.36,992.32,8739.60,24567.00,1047.50
372,851.68,996.72,4119.54,16329.00,1067.50
374,852.00,1001.11,1874.12,11855.50,1041.00
376,852.32,1005.50,748.86,9637.00,1020.00
378,852.63,1009.88,226.77,8724.50,1099.00
380,852.95,1014.26,113.73,8514.00,1074.50
382,853.27,1018.64,313.48,9012.50,1076.00
384,853.59,1023.02,1170.63,10343.00,1046.50
386,853.91,1027.39,2493.86,12083.00,1044.00
388,854.23,1031.76,3177.60,13031.50,1042.50
390,854.55,1036.13,3000.08,12773.50,1051.00
392,854.87,1040.49,1813.68,11335.50,1046.50
394,855.18,1044.86,802.61,9961.50,1070.00
396,855.50,1049.21,823.24,10110.50,1057.00
398,855.82,1053.57,1835.02,12177.00,1082.50
400,856.14,1057.92,4409.27,16762.00,1055.00
402,856.46,1062.27,9701.23,24335.50,1052.00
404,856.78,1066.62,14524.00,30124.00,1040.00
406,857.10,1070.96,13311.92,29072.00,1041.50
408,857.42,1075.30,9288.06,23870.50,1093.00
410,857.74,1079.64,5308.78,17936.50,1059.00
412,858.06,1083.97,2797.92,13847.00,1048.50
414,858.37,1088.30,2179.67,12706.00,1030.50
416,858.69,1092.63,3236.76,14306.00,1033.00
418,859.01,1096.95,5957.46,17560.00,1035.50
420,859.33,1101.27,7582.56,19129.00,1061.50
422,859.65,1105.59,5088.39,16543.50,1053.00
424,859.97,1109.91,2428.78,13072.50,1037.00
426,860.29,1114.22,1724.99,11680.50,1043.00
428,860.61,1118.53,2422.55,12178.00,1028.50
430,860.93,1122.84,3122.00,12728.50,1053.00
432,861.25,1127.14,2394.15,11918.00,1082.00
434,861.56,1131.44,1300.92,10422.50,1039.00
436,861.88,1135.74,664.82,9306.50,1038.00
438,862.20,1140.03,264.36,8620.50,1064.50
440,862.52,1144.32,26.17,8227.50,1056.00
442,862.84,1148.61,0.00,8058.00,1075.00
444,863.16,1152.89,1.03,8061.00,1035.00
446,863.48,1157.17,118.23,8379.00,1046.50
448,863.80,1161.45,398.11,8788.50,1051.00
450,864.12,1165.73,954.52,9681.50,1060.50
452,864.44,1170.00,1592.28,10550.00,1038.00
454,864.76,1174.27,2047.89,11354.00,1056.00
456,865.07,1178.53,2185.32,11936.00,1031.00
458,865.39,1182.80,3005.00,13331.50,1060.00
460,865.71,1187.06,4769.60,15473.50,1054.00
462,866.03,1191.31,5207.76,16064.00,1059.00
464,866.35,1195.57,4638.19,15335.00,1046.50
466,866.67,1199.82,3719.74,13876.50,1075.00
468,866.99,1204.06,1945.25,11372.00,1056.00
470,867.31,1208.31,718.53,9466.00,1080.00
472,867.63,1212.55,120.50,8360.00,1051.00
474,867.95,1216.79,1.03,7924.50,1023.00
476,868.27,1221.02,0.00,7778.50,1043.00
478,868.58,1225.25,0.00,7793.50,1022.50
480,868.90,1229.48,0.00,7848.50,1066.00
482,869.22,1233.71,0.00,7935.00,1073.00
484,869.54,1237.93,0.13,8108.00,1091.00
486,869.86,1242.15,18.29,8208.00,1050.00
488,870.18,1246.36,195.97,8540.00,1025.50
490,870.50,1250.58,437.64,9107.50,1065.50
492,870.82,1254.79,940.32,10138.50,1095.50
494,871.14,1258.99,2100.11,11667.00,1070.00
496,871.46,1263.20,3104.18,12784.50,1066.50
498,871.78,1267.40,2354.16,12228.00,1042.00
500,872.10,1271.59,1643.45,11600.50,1043.50
502,872.41,1275.79,1840.79,11917.00,1045.00
504,872.73,1279.98,2881.96,13260.00,1048.50
506,873.05,1284.17,3674.23,14588.00,1062.50
508,873.37,1288.35,3982.69,15617.00,1005.50
510,873.69,1292.53,5647.45,18115.00,1033.00
512,874.01,1296.71,8075.45,20954.50,1040.50
514,874.33,1300.88,7860.92,21127.00,1013.00
516,874.65,1305.06,7005.58,20310.00,1046.50
518,874.97,1309.22,6842.24,19815.00,1035.00
520,875.29,1313.39,5739.69,18515.00,1069.50
522,875.60,1317.55,5128.37,17878.00,1063.50
524,875.92,1321.71,5630.30,18620.50,1061.50
526,876.24,1325.87,6813.73,20026.00,1084.50
528,876.56,1330.02,8237.35,21199.50,1048.50
530,876.88,1334.17,6901.97,19655.00,1069.50
532,877.20,1338.32,3898.64,16140.00,1025.00
534,877.52,1342.46,2462.69,13924.50,1013.00
536,877.84,1346.60,2362.60,13434.50,1060.00
538,878.16,1350.73,2731.05,13608.50,1044.50
540,878.47,1354.87,2592.71,13416.00,1039.00
542,878.79,1359.00,2009.18,12822.50,1042.00
544,879.11,1363.13,1733.43,12545.00,1047.00
546,879.43,1367.25,1778.32,12614.00,1036.00
548,879.75,1371.37,2200.64,13127.00,1022.50
550,880.07,1375.49,2591.02,13576.00,1042.50
552,880.39,1379.60,2418.58,13454.50,1059.00
554,880.71,1383.71,1949.02,12984.00,1049.00
556,881.03,1387.82,1809.48,12854.00,1026.00
558,881.34,1391.93,1846.68,12888.00,1020.00
560,881.66,1396.03,2150.83,13306.50,1034.00
562,881.98,1400.13,2304.29,13664.50,1057.00
564,882.30,1404.22,2621.45,14331.50,1059.00
566,882.62,1408.31,3189.88,15340.50,1030.50
568,882.94,1412.40,4265.00,17081.50,1055.00
570,883.26,1416.49,5881.66,19284.50,1039.00
572,883.57,1420.57,7543.90,21654.00,1075.00
574,883.89,1424.65,8020.24,23117.50,1037.00
576,884.21,1428.73,9169.47,25386.50,1066.50
578,884.53,1432.80,12811.03,29437.00,1093.00
580,884.85,1436.87,14737.23,31296.00,1033.00
582,885.17,1440.93,11751.26,28609.00,1026.00
584,885.49,1445.00,9609.67,25731.00,1030.00
586,885.80,1449.06,9058.36,23821.00,1031.50
588,886.12,1453.11,6556.75,20502.50,1072.50
590,886.44,1457.17,3364.70,16526.50,1069.00
592,886.76,1461.22,2101.34,14650.00,1055.00
594,887.08,1465.26,1998.90,14621.50,1073.00
596,887.40,1469.31,3367.83,16546.50,1021.00
598,887.71,1473.35,7083.82,20107.50,1031.50
600,888.03,1477.38,7374.49,20322.00,1053.00
602,888.35,1481.42,3301.65,16556.50,1076.00
604,888.67,1485.45,1591.98,13997.00,1044.50
606,888.99,1489.48,1305.27,13121.50,1028.50
608,889.31,1493.50,1167.80,12768.50,1067.00
610,889.62,1497.52,1119.00,12667.00,1054.00
612,889.94,1501.54,957.00,12434.50,1012.00
614,890.26,1505.56,774.79,12222.50,1032.00
616,890.58,1509.57,628.83,12054.50,1030.50
618,890.90,1513.57,445.67,11853.00,1038.00
620,891.21,1517.58,345.40,11743.00,1055.00
622,891.53,1521.58,316.41,11672.00,1051.00
624,891.85,1525.58,322.50,11609.50,1036.00
626,892.17,1529.57,376.17,11606.50,1047.50
628,892.49,1533.57,430.96,11621.00,1054.00
630,892.80,1537.56,438.91,11580.00,1038.00
632,893.12,1541.54,620.24,11732.50,1029.50
634,893.44,1545.52,627.52,11728.00,1056.00
636,893.76,1549.50,776.76,11841.00,1021.00
638,894.07,1553.48,838.09,11872.50,1057.50
640,894.39,1557.45,974.55,11987.00,1034.50
642,894.71,1561.42,943.00,11919.00,1053.00
644,895.03,1565.39,1028.40,11926.00,1016.50
646,895.34,1569.35,1091.47,11966.00,1060.50
648,895.66,1573.31,1109.61,11881.00,1033.00
650,895.98,1577.26,1035.97,11718.50,1036.00
652,896.30,1581.22,851.37,11390.00,1010.00
654,896.61,1585.17,711.01,11151.00,1041.00
656,896.93,1589.11,529.00,10882.50,1071.50
658,897.25,1593.06,414.03,10620.50,1031.50
660,897.57,1597.00,440.62,10573.00,1041.50
662,897.88,1600.93,363.05,10425.50,1047.50
664,898.20,1604.87,407.21,10446.00,1044.00
666,898.52,1608.80,568.27,10577.00,1024.50
668,898.84,1612.72,816.23,10837.50,1015.00
670,899.15,1616.65,1023.91,11064.50,1061.00
672,899.47,1620.57,1319.98,11268.00,1027.50
674,899.79,1624.49,1209.84,11084.50,1043.00
676,900.10,1628.40,886.39,10646.50,1024.50
678,900.42,1632.31,584.55,10248.50,1056.00
680,900.74,1636.22,396.22,9863.50,997.50
682,901.05,1640.12,214.15,9610.00,1092.00
684,901.37,1644.02,143.50,9394.00,1042.00
686,901.69,1647.92,89.95,9268.00,1054.00
688,902.00,1651.82,144.58,9226.50,1030.00
690,902.32,1655.71,181.23,9169.00,1007.50
692,902.64,1659.60,176.00,9104.50,1021.00
694,902.95,1663.48,212.26,9107.50,1052.00
696,903.27,1667.36,217.33,9016.00,1025.50
698,903.59,1671.24,293.01,9082.00,1080.00
700,903.90,1675.11,329.08,9017.00,1048.00
702,904.22,1678.99,289.77,8890.00,1019.00
704,904.54,1682.85,332.63,8962.00,1098.50
706,904.85,1686.72,458.79,8958.50,1028.00
708,905.17,1690.58,552.22,9020.50,1041.50
710,905.49,1694.44,598.38,8999.00,1023.50
712,905.80,1698.29,681.58,9087.50,1036.00
714,906.12,1702.15,816.60,9236.00,1040.00
716,906.43,1706.00,1158.45,9594.00,1050.00
718,906.75,1709.84,1501.56,9927.50,1078.00
720,907.07,1713.68,1838.40,10192.50,1026.00
722,907.38,1717.52,1928.34,10241.50,1038.50
724,907.70,1721.36,1774.44,9978.00,1042.00
726,908.01,1725.19,1509.62,9569.50,1043.50
728,908.33,1729.02,1099.41,9024.50,1054.00
730,908.65,1732.85,658.60,8420.00,1041.00
732,908.96,1736.67,425.53,8020.50,1045.50
734,909.28,1740.49,303.27,7746.00,1036.00
736,909.59,1744.30,198.82,7538.00,1055.00
738,909.91,1748.12,135.95,7334.00,1030.50
740,910.22,1751.93,129.61,7270.50,1046.50
742,910.54,1755.73,74.95,7198.00,1104.50
744,910.85,1759.54,25.96,7027.00,1061.00
746,911.17,1763.34,2.92,6884.00,1037.00
748,911.49,1767.13,0.00,6774.00,1044.00
750,911.80,1770.93,0.00,6703.50,1015.50
752,912.12,1774.72,0.00,6646.00,1068.00
754,912.43,1778.50,17.63,6623.00,1017.00
756,912.75,1782.29,0.00,6516.00,1017.00
758,913.06,1786.07,25.23,6513.00,1019.00
760,913.38,1789.84,41.54,6507.50,1046.50
762,913.69,1793.62,42.62,6469.00,1057.50
764,914.01,1797.39,34.50,6383.00,1043.00
766,914.32,1801.15,53.76,6338.50,1032.00
768,914.64,1804.92,8.96,6232.00,1020.00
770,914.95,1808.68,24.23,6239.50,1052.00
772,915.26,1812.44,59.38,6220.00,1052.50
774,915.58,1816.19,66.15,6133.00,1006.00
776,915.89,1819.94,81.33,6131.50,1043.50
778,916.21,1823.69,125.23,6138.00,1045.50
780,916.52,1827.43,114.36,6124.00,1083.50
782,916.84,1831.17,104.80,5998.50,1020.00
784,917.15,1834.91,198.48,6042.00,1009.50
786,917.47,1838.64,181.77,6018.50,1042.00
788,917.78,1842.38,198.77,5985.50,1037.00
790,918.09,1846.10,186.75,5905.50,1023.00
792,918.41,1849.83,221.63,5915.00,1044.00
794,918.72,1853.55,157.78,5773.50,1009.50
796,919.04,1857.27,203.62,5801.00,1032.00
798,919.35,1860.98,185.51,5724.50,1030.50
800,919.66,1864.69,198.83,5713.50,1040.00
802,919.98,1868.40,225.93,5693.00,1042.50
804,920.29,1872.11,255.43,5667.00,1038.00
806,920.60,1875.81,284.79,5654.00,1029.00
808,920.92,1879.51,267.34,5591.00,1030.00
810,921.23,1883.20,287.42,5584.00,1054.00
812,921.55,1886.90,283.72,5504.00,1017.00
814,921.86,1890.58,228.12,5434.00,1055.00
816,922.17,1894.27,290.23,5463.00,1064.50
818,922.49,1897.95,247.47,5354.00,1050.50
820,922.80,1901.63,263.97,5314.50,1035.00
822,923.11,1905.31,219.80,5226.00,1034.00
824,923.42,1908.98,246.03,5211.50,1038.50
826,923.74,1912.65,291.99,5215.50,1047.50
828,924.05,1916.31,268.18,5136.50,1032.00
830,924.36,1919.98,289.40,5112.00,1024.00
832,924.68,1923.64,277.63,5042.00,1023.50
834,924.99,1927.29,312.76,5022.00,1010.50
836,925.30,1930.94,260.53,4924.00,1004.00
838,925.61,1934.59,269.59,4913.00,1031.00
840,925.93,1938.24,218.91,4814.00,1030.00
842,926.24,1941.88,218.09,4776.00,1041.00
844,926.55,1945.52,260.32,4749.50,1019.00
846,926.86,1949.16,177.03,4646.00,1036.00
848,927.18,1952.79,192.71,4597.50,1016.00
850,927.49,1956.42,188.64,4550.00,1023.50
852,927.80,1960.05,183.12,4609.00,1131.00
854,928.11,1963.67,192.37,4492.00,1039.00
856,928.42,1967.29,161.14,4440.00,1060.00
858,928.74,1970.91,201.63,4396.50,1033.00
860,929.05,1974.52,205.90,4354.50,1028.50
862,929.36,1978.13,157.48,4254.50,1005.50
864,929.67,1981.74,144.64,4219.00,1031.50
866,929.98,1985.35,148.24,4173.50,1038.00
868,930.29,1988.95,126.22,4113.50,1034.00
870,930.61,1992.54,52.73,3993.00,1023.00
872,930.92,1996.14,45.76,3946.50,1030.50
874,931.23,1999.73,58.72,3936.00,1051.00
876,931.54,2003.32,57.48,3892.00,1045.00
878,931.85,2006.90,66.69,3840.00,1025.50
880,932.16,2010.48,66.37,3789.50,1019.00
882,932.47,2014.06,64.51,3750.00,1020.00
884,932.78,2017.63,47.68,3706.50,1032.50
886,933.09,2021.21,25.20,3649.00,1033.50
888,933.41,2024.77,28.95,3630.50,1050.00
890,933.72,2028.34,36.34,3619.50,1074.00
892,934.03,2031.90,30.03,3534.00,1034.50
894,934.34,2035.46,28.16,3513.00,1052.00
896,934.65,2039.01,3.14,3417.50,1017.00
898,934.96,2042.57,0.00,3407.00,1057.00
900,935.27,2046.11,28.53,3416.50,1072.00
902,935.58,2049.66,0.00,3265.50,996.00
904,935.89,2053.20,4.07,3300.00,1039.00
906,936.20,2056.74,45.23,3292.00,1028.50
908,936.51,2060.28,60.13,3257.50,1032.00
910,936.82,2063.81,0.00,3199.50,1058.00
912,937.13,2067.34,0.00,3136.50,1029.50
914,937.44,2070.86,43.66,3149.00,1033.00
916,937.75,2074.39,8.61,3072.00,1019.00
918,938.06,2077.91,17.19,3044.50,1019.00
920,938.37,2081.42,6.12,3018.00,1026.00
922,938.68,2084.94,0.00,2943.50,1026.50
924,938.99,2088.45,0.00,2938.50,1026.50
926,939.30,2091.95,0.00,2941.00,1049.00
928,939.60,2095.46,0.00,2890.00,1022.50
930,939.91,2098.96,0.01,2907.00,1063.00
932,940.22,2102.45,0.00,2854.00,1052.50
934,940.53,2105.95,11.71,2832.00,1021.00
936,940.84,2109.44,8.43,2812.00,1027.50
938,941.15,2112.92,9.88,2809.00,1042.00
940,941.46,2116.41,14.40,2783.00,1026.50
942,941.77,2119.89,4.53,2772.00,1048.50
944,942.07,2123.37,16.60,2738.00,1026.50
946,942.38,2126.84,39.83,2747.50,1043.50
948,942.69,2130.31,9.63,2720.00,1046.50
950,943.00,2133.78,0.00,2661.50,1033.00
952,943.31,2137.24,0.00,2650.00,1041.00
954,943.62,2140.70,0.00,2649.50,1047.00
956,943.92,2144.16,0.00,2609.00,1030.50
958,944.23,2147.62,14.93,2633.50,1040.00
960,944.54,2151.07,12.63,2644.00,1066.50
962,944.85,2154.52,16.53,2644.00,1072.00
964,945.16,2157.96,16.60,2613.50,1053.50
966,945.46,2161.40,46.01,2608.00,1040.50
968,945.77,2164.84,5.77,2525.50,995.50
970,946.08,2168.28,1.53,2550.00,1030.50
972,946.39,2171.71,0.00,2533.00,1035.00
974,946.69,2175.14,0.45,2529.00,1035.00
976,947.00,2178.57,29.82,2542.50,1031.00
978,947.31,2181.99,7.32,2496.00,1017.00
980,947.61,2185.41,21.40,2535.00,1041.50
982,947.92,2188.82,17.95,2521.50,1043.00
984,948.23,2192.24,51.03,2504.50,1012.00
986,948.53,2195.65,73.27,2536.00,1035.00
988,948.84,2199.05,42.94,2461.50,988.50
990,949.15,2202.46,45.58,2514.50,1043.00
992,949.45,2205.86,60.82,2515.00,1038.00
994,949.76,2209.25,66.65,2476.00,1009.50
996,950.07,2212.65,79.04,2496.00,1022.00
998,950.37,2216.04,23.63,2430.50,1007.00
1000,950.68,2219.43,53.18,2474.00,1030.00
1002,950.98,2222.81,95.72,2504.50,1049.00
1004,951.29,2226.19,113.60,2482.00,1020.00
1006,951.60,2229.57,59.45,2427.00,1003.00
1008,951.90,2232.94,71.98,2431.50,1003.50
1010,952.21,2236.32,65.33,2429.50,1022.00
1012,952.51,2239.68,43.30,2419.00,1037.00
1014,952.82,2243.05,58.33,2385.00,995.00
1016,953.12,2246.41,46.81,2434.50,1065.50
1018,953.43,2249.77,59.40,2461.00,1092.00
1020,953.73,2253.12,57.25,2418.00,1056.00
1022,954.04,2256.48,55.00,2355.50,1000.00
1024,954.34,2259.83,47.10,2399.50,1052.00
1026,954.65,2263.17,30.95,2343.00,1021.50
1028,954.95,2266.51,72.62,2372.50,1035.00
1030,955.26,2269.85,63.76,2395.50,1063.50
1032,955.56,2273.19,43.45,2360.00,1045.50
1034,955.87,2276.52,77.98,2375.50,1048.50
1036,956.17,2279.85,94.34,2382.50,1057.00
1038,956.48,2283.18,74.59,2314.50,1004.50
1040,956.78,2286.50,54.44,2308.00,1021.00
1042,957.08,2289.82,65.81,2289.00,997.00
1044,957.39,2293.14,36.72,2307.00,1044.50
1046,957.69,2296.45,79.90,2288.00,1005.50
1048,957.99,2299.76,89.00,2330.50,1056.00
1050,958.30,2303.07,51.13,2298.50,1050.50
1052,958.60,2306.38,55.22,2284.00,1035.00
1054,958.91,2309.68,46.09,2269.00,1038.00
1056,959.21,2312.98,19.52,2218.00,1018.00
1058,959.51,2316.27,52.67,2245.50,1026.00
1060,959.82,2319.56,79.25,2297.50,1064.50
1062,960.12,2322.85,55.30,2231.00,1024.00
1064,960.42,2326.14,58.25,2216.00,1015.00
1066,960.72,2329.42,64.95,2236.00,1041.00
1068,961.03,2332.70,18.37,2206.50,1048.50
1070,961.33,2335.97,41.39,2215.50,1040.00
1072,961.63,2339.25,64.73,2203.50,1024.50
1074,961.93,2342.52,43.81,2182.50,1030.00
1076,962.24,2345.78,58.29,2185.50,1027.50
1078,962.54,2349.05,35.39,2161.00,1024.50
1080,962.84,2352.31,41.13,2154.50,1021.00
1082,963.14,2355.56,38.65,2130.50,1010.50
1084,963.45,2358.82,12.17,2126.50,1026.50
1086,963.75,2362.07,0.00,2131.50,1054.00
1088,964.05,2365.32,14.52,2173.00,1080.00
1090,964.35,2368.56,45.45,2142.00,1041.00
1092,964.65,2371.80,74.54,2164.00,1052.00
1094,964.95,2375.04,74.58,2145.50,1035.00
1096,965.25,2378.27,61.84,2120.00,1022.00
1098,965.56,2381.51,64.46,2133.50,1042.00
1100,965.86,2384.73,78.02,2133.50,1043.50
1102,966.16,2387.96,129.66,2141.00,1025.00
1104,966.46,2391.18,57.80,2142.00,1074.00
1106,966.76,2394.40,51.86,2085.50,1024.00
1108,967.06,2397.62,86.97,2128.50,1050.50
1110,967.36,2400.83,86.04,2082.00,1021.00
1112,967.66,2404.04,90.54,2119.50,1058.00
1114,967.96,2407.25,35.45,2036.50,1011.50
1116,968.26,2410.45,6.61,2024.50,1031.00
1118,968.56,2413.65,17.68,2015.50,1022.50
1120,968.86,2416.85,25.03,2075.50,1079.00
1122,969.16,2420.04,3.76,2009.00,1031.00
1124,969.46,2423.23,0.00,1974.50,1025.00
1126,969.76,2426.42,0.00,1979.50,1038.00
1128,970.06,2429.60,36.13,1980.50,997.00
1130,970.36,2432.79,0.00,1981.50,1023.50
1132,970.66,2435.96,45.41,2010.50,1021.00
1134,970.96,2439.14,31.60,2011.00,1032.50
1136,971.26,2442.31,24.18,2037.00,1061.50
1138,971.56,2445.48,70.71,2027.00,1022.50
1140,971.86,2448.65,53.51,2008.50,1021.50
1142,972.16,2451.81,78.97,2043.00,1042.50
1144,972.45,2454.97,28.67,2011.00,1037.00
1146,972.75,2458.13,28.81,2018.50,1042.00
1148,973.05,2461.28,42.06,2002.50,1020.50
1150,973.35,2464.43,58.22,2026.00,1040.00
1152,973.65,2467.58,38.68,2008.00,1035.50
1154,973.95,2470.72,23.34,2006.00,1037.00
1156,974.24,2473.86,0.00,1984.50,1036.00
1158,974.54,2477.00,7.69,1981.50,1020.00
1160,974.84,2480.13,46.98,2020.50,1040.50
1162,975.14,2483.27,58.81,2004.00,1028.50
1164,975.43,2486.40,68.72,1996.00,1006.50
1166,975.73,2489.52,0.00,1967.50,1024.00
1168,976.03,2492.64,16.82,1988.00,1027.50
1170,976.33,2495.76,54.74,2022.00,1041.50
1172,976.62,2498.88,33.22,1988.00,1021.00
1174,976.92,2501.99,71.76,2050.00,1055.00
1176,977.22,2505.10,88.92,2049.00,1045.00
1178,977.51,2508.21,166.51,2082.00,1039.00
1180,977.81,2511.31,227.45,2091.50,1024.50
1182,978.11,2514.41,225.32,2103.00,1033.00
1184,978.40,2517.51,185.96,2099.00,1045.50
1186,978.70,2520.61,230.46,2110.50,1036.00
1188,979.00,2523.70,171.12,2095.50,1058.50
1190,979.29,2526.79,150.82,2056.50,1034.00
1192,979.59,2529.87,149.72,2056.50,1034.50
1194,979.88,2532.95,43.78,1980.50,1012.00
1196,980.18,2536.03,12.01,1997.50,1043.50
1198,980.48,2539.11,0.00,1990.00,1063.50
1200,980.77,2542.18,0.00,1957.50,1035.00
1202,981.07,2545.25,14.69,2003.00,1057.00
1204,981.36,2548.32,16.29,1979.50,1029.50
1206,981.66,2551.38,19.72,2010.00,1056.00
1208,981.95,2554.44,59.56,2014.00,1042.50
1210,982.25,2557.50,57.94,2049.00,1079.00
1212,982.54,2560.56,73.33,2058.50,1075.00
1214,982.84,2563.61,50.41,2058.50,1085.50
1216,983.13,2566.66,56.64,2042.00,1065.50
1218,983.43,2569.70,7.37,2006.00,1055.00
1220,983.72,2572.74,53.43,2043.00,1064.50
1222,984.01,2575.78,24.54,2018.50,1046.50
1224,984.31,2578.82,0.50,1974.00,1023.50
1226,984.60,2581.85,51.30,2030.00,1044.50
1228,984.90,2584.88,56.24,1997.50,1018.00
1230,985.19,2587.91,82.07,2037.50,1039.00
1232,985.48,2590.93,104.75,2074.50,1063.00
1234,985.78,2593.96,154.29,2089.50,1059.00
1236,986.07,2596.97,172.35,2096.00,1054.00
1238,986.36,2599.99,135.26,2117.00,1086.50
1240,986.66,2603.00,231.16,2151.00,1075.00
1242,986.95,2606.01,249.60,2147.50,1070.50
1244,987.24,2609.01,256.39,2146.50,1066.50
1246,987.54,2612.02,322.33,2108.00,1001.00
1248,987.83,2615.02,273.70,2147.50,1055.00
1250,988.12,2618.01,179.70,2124.00,1066.50
1252,988.41,2621.01,164.08,2105.00,1059.50
1254,988.71,2624.00,176.30,2081.00,1037.00
1256,989.00,2626.99,199.86,2120.00,1063.50
1258,989.29,2629.97,189.56,2107.50,1060.00
1260,989.58,2632.95,201.42,2105.00,1062.50
1262,989.87,2635.93,153.53,2085.00,1058.00
1264,990.16,2638.91,60.27,2037.50,1040.50
1266,990.46,2641.88,6.12,2031.00,1063.50
1268,990.75,2644.85,0.00,2038.50,1103.00
1270,991.04,2647.81,0.00,2013.50,1051.50
1272,991.33,2650.78,0.00,2008.00,1049.00
1274,991.62,2653.74,1.00,2030.50,1049.50
1276,991.91,2656.70,48.09,2076.50,1050.50
1278,992.20,2659.65,98.03,2080.00,1058.00
1280,992.49,2662.60,191.88,2096.50,1041.00
1282,992.78,2665.55,115.91,2126.00,1089.00
1284,993.07,2668.50,88.48,2113.50,1080.00
1286,993.36,2671.44,55.86,2108.00,1065.00
1288,993.65,2674.38,1.41,2095.50,1079.00
1290,993.94,2677.31,0.00,2063.00,1069.00
1292,994.23,2680.25,0.00,2076.50,1061.50
1294,994.52,2683.18,0.74,2098.00,1062.00
1296,994.81,2686.10,12.76,2121.00,1065.50
1298,995.10,2689.03,150.13,2195.50,1052.50
1300,995.39,2691.95,451.27,2314.00,1047.50
1302,995.68,2694.87,698.04,2428.00,1088.50
1304,995.97,2697.78,959.87,2504.50,1084.50
1306,996.26,2700.70,1018.05,2474.50,1026.50
1308,996.55,2703.61,730.97,2427.50,1056.00
1310,996.84,2706.51,491.69,2387.50,1078.00
1312,997.13,2709.42,214.49,2288.00,1074.00
1314,997.41,2712.32,52.74,2239.00,1089.00
1316,997.70,2715.21,11.27,2193.00,1056.00
1318,997.99,2718.11,0.00,2182.00,1061.00
1320,998.28,2721.00,7.78,2189.50,1036.00
1322,998.57,2723.89,25.25,2249.00,1082.50
1324,998.86,2726.77,109.11,2247.00,1039.00
1326,999.14,2729.66,248.64,2313.00,1044.50
1328,999.43,2732.54,348.58,2365.00,1048.50
1330,999.72,2735.41,595.57,2472.00,1053.00
1332,1000.01,2738.29,997.51,2635.50,1074.00
1334,1000.29,2741.16,1316.60,2716.50,1060.00
1336,1000.58,2744.03,1521.50,2751.00,1035.00
1338,1000.87,2746.89,1540.41,2817.00,1092.00
1340,1001.15,2749.75,1280.03,2714.00,1058.50
1342,1001.44,2752.61,942.69,2620.50,1058.00
1344,1001.73,2755.47,773.99,2565.00,1048.50
1346,1002.01,2758.32,430.69,2438.00,1049.00
1348,1002.30,2761.17,291.10,2419.00,1078.50
1350,1002.59,2764.02,129.82,2371.50,1088.00
1352,1002.87,2766.86,99.01,2345.00,1060.00
1354,1003.16,2769.70,0.00,2288.00,1050.00
1356,1003.44,2772.54,0.00,2270.00,1027.50
1358,1003.73,2775.38,0.00,2310.00,1061.50
1360,1004.01,2778.21,102.51,2307.00,1023.50
1362,1004.30,2781.04,0.00,2300.50,1052.00
1364,1004.58,2783.87,7.69,2328.00,1044.00
1366,1004.87,2786.69,0.00,2280.50,1017.00
1368,1005.15,2789.51,0.00,2359.00,1067.50
1370,1005.44,2792.33,0.00,2370.50,1079.00
1372,1005.72,2795.14,0.00,2399.50,1076.00
1374,1006.01,2797.95,0.00,2402.00,1081.00
1376,1006.29,2800.76,0.00,2412.50,1058.00
1378,1006.58,2803.57,0.00,2494.50,1107.00
1380,1006.86,2806.37,0.00,2451.00,1057.00
1382,1007.14,2809.17,0.00,2477.50,1047.00
1384,1007.43,2811.97,0.00,2497.00,1045.00
1386,1007.71,2814.77,3.72,2549.00,1027.50
1388,1008.00,2817.56,0.00,2572.00,1042.50
1390,1008.28,2820.35,0.00,2667.50,1068.50
1392,1008.56,2823.13,5.95,2711.50,1044.00
1394,1008.85,2825.91,47.11,2800.50,1059.00
1396,1009.13,2828.69,180.69,2871.00,1052.00
1398,1009.41,2831.47,515.56,3019.00,1079.00
1400,1009.69,2834.24,1039.58,3129.00,1035.00
1402,1009.98,2837.02,1978.61,3412.00,1042.00
1404,1010.26,2839.78,2794.65,3668.00,1069.50
1406,1010.54,2842.55,3815.25,3949.00,1046.00
1408,1010.82,2845.31,5172.69,4379.00,1059.00
1410,1011.11,2848.07,6405.46,4794.00,1072.00
1412,1011.39,2850.83,8267.74,5427.50,1079.00
1414,1011.67,2853.58,10865.34,6215.50,1062.50
1416,1011.95,2856.33,15456.77,7430.00,1063.00
1418,1012.23,2859.08,21240.03,8691.50,1053.00
1420,1012.51,2861.83,26873.98,9803.00,1047.50
1422,1012.80,2864.57,29330.23,10380.50,1105.50
1424,1013.08,2867.31,27046.90,10010.00,1095.00
1426,1013.36,2870.04,23801.92,9423.00,1086.50
1428,1013.64,2872.78,21101.47,8733.50,1071.50
1430,1013.92,2875.51,20303.95,8409.00,1094.50
1432,1014.20,2878.24,19377.68,7985.50,1067.50
1434,1014.48,2880.96,17814.48,7514.50,1065.50
1436,1014.76,2883.68,16495.62,7154.00,1046.50
1438,1015.04,2886.40,15132.45,6778.50,1041.00
1440,1015.32,2889.12,14500.14,6605.00,1076.00
1442,1015.60,2891.83,13877.83,6392.50,1057.00
1444,1015.88,2894.54,13514.46,6346.00,1085.50
1446,1016.16,2897.25,13573.00,6377.50,1038.00
1448,1016.44,2899.96,14391.26,6684.00,1067.50
1450,1016.72,2902.66,17008.50,7369.50,1074.00
1452,1017.00,2905.36,21454.03,8392.50,1097.50
1454,1017.28,2908.06,27680.22,9646.50,1064.50
1456,1017.55,2910.75,34048.79,10926.00,1089.50
1458,1017.83,2913.44,38947.94,11814.50,1052.00
1460,1018.11,2916.13,42072.92,12352.00,1067.00
1462,1018.39,2918.81,42256.00,12260.50,1073.00
1464,1018.67,2921.49,38695.83,11480.00,1065.50
1466,1018.95,2924.17,32247.01,10203.50,1070.00
1468,1019.22,2926.85,25096.34,8740.50,1078.00
1470,1019.50,2929.52,19343.83,7423.50,1035.00
1472,1019.78,2932.20,15315.37,6462.00,1035.00
1474,1020.06,2934.86,12615.47,5801.00,1055.00
1476,1020.33,2937.53,11180.96,5445.00,1094.50
1478,1020.61,2940.19,10767.73,5224.00,1070.50
1480,1020.89,2942.85,11641.98,5275.00,1079.50
1482,1021.17,2945.51,12769.59,5351.00,1067.50
1484,1021.44,2948.16,12774.04,5297.00,1074.00
1486,1021.72,2950.81,11372.95,5020.00,1065.50
1488,1022.00,2953.46,10069.19,4790.00,1088.50
1490,1022.27,2956.11,8570.68,4425.50,1054.00
1492,1022.55,2958.75,7172.04,4157.00,1095.00
1494,1022.82,2961.39,5609.77,3801.00,1062.50
1496,1023.10,2964.03,4097.37,3511.00,1088.00
1498,1023.38,2966.66,2950.81,3211.50,1046.50
1500,1023.65,2969.29,2206.34,3054.00,1068.00
1502,1023.93,2971.92,1541.98,2908.00,1082.50
1504,1024.20,2974.55,1082.02,2798.50,1075.00
1506,1024.48,2977.17,545.72,2696.50,1072.50
1508,1024.75,2979.79,157.17,2567.00,1039.00
1510,1025.03,2982.41,68.98,2534.00,1059.50
1512,1025.30,2985.02,40.24,2473.50,1045.00
1514,1025.58,2987.63,0.00,2436.00,1077.00
1516,1025.85,2990.24,0.00,2391.50,1041.00
1518,1026.13,2992.85,2.02,2415.00,1081.00
1520,1026.40,2995.45,0.00,2359.50,1075.00
1522,1026.68,2998.05,0.00,2322.50,1047.50
1524,1026.95,3000.65,0.00,2331.50,1087.50
1526,1027.22,3003.25,119.16,2327.00,1056.50
1528,1027.50,3005.84,21.57,2292.00,1048.50
1530,1027.77,3008.43,0.00,2273.50,1072.00
1532,1028.04,3011.02,34.38,2305.00,1078.50
1534,1028.32,3013.60,0.00,2249.00,1066.50
1536,1028.59,3016.18,0.00,2264.50,1077.00
1538,1028.86,3018.76,40.72,2223.50,1025.00
1540,1029.14,3021.34,75.59,2253.00,1061.00
1542,1029.41,3023.91,75.13,2231.50,1041.50
1544,1029.68,3026.48,17.58,2222.50,1043.50
1546,1029.95,3029.05,0.00,2234.50,1076.00
1548,1030.22,3031.61,69.37,2237.50,1052.00
1550,1030.50,3034.17,194.47,2241.50,1043.50
1552,1030.77,3036.73,39.80,2222.00,1055.00
1554,1031.04,3039.29,345.43,2285.50,1073.00
1556,1031.31,3041.84,265.40,2232.50,1029.50
1558,1031.58,3044.39,240.66,2302.00,1103.50
1560,1031.85,3046.94,396.11,2309.00,1092.00
1562,1032.13,3049.49,560.63,2281.50,1049.50
1564,1032.40,3052.03,535.19,2310.00,1083.50
1566,1032.67,3054.57,702.36,2301.50,1048.50
1568,1032.94,3057.11,936.95,2382.00,1100.00
1570,1033.21,3059.64,1026.08,2326.50,1040.00
1572,1033.48,3062.18,1155.86,2384.50,1081.00
1574,1033.75,3064.70,1018.93,2364.00,1081.50
1576,1034.02,3067.23,1164.68,2385.00,1083.00
1578,1034.29,3069.75,1113.94,2318.50,1032.00
1580,1034.56,3072.28,1389.54,2391.50,1076.00
1582,1034.83,3074.79,1473.58,2360.00,1039.50
1584,1035.10,3077.31,1367.53,2383.00,1077.00
1586,1035.37,3079.82,1302.94,2357.00,1061.00
1588,1035.64,3082.33,1394.68,2394.50,1091.50
1590,1035.91,3084.84,1540.38,2405.00,1089.00
1592,1036.17,3087.34,1327.06,2326.00,1044.50
1594,1036.44,3089.85,1437.05,2404.00,1112.00
1596,1036.71,3092.35,1508.69,2352.50,1060.00
1598,1036.98,3094.84,1613.78,2334.50,1036.00
1600,1037.25,3097.34,1426.18,2310.00,1040.00
1602,1037.52,3099.83,1546.85,2346.50,1061.50
1604,1037.78,3102.32,1532.95,2344.00,1064.50
1606,1038.05,3104.80,1524.65,2362.50,1095.00
1608,1038.32,3107.29,1951.71,2369.00,1060.50
1610,1038.59,3109.77,1742.43,2340.50,1063.50
1612,1038.85,3112.24,1576.17,2319.00,1061.50
1614,1039.12,3114.72,1526.96,2335.00,1084.50
1616,1039.39,3117.19,1555.90,2272.00,1025.00
1618,1039.66,3119.66,1592.92,2320.00,1080.50
1620,1039.92,3122.13,1823.75,2335.50,1079.00
1622,1040.19,3124.59,1586.97,2279.50,1057.00
1624,1040.45,3127.05,1705.18,2278.50,1043.00
1626,1040.72,3129.51,1305.46,2261.50,1077.00
1628,1040.99,3131.97,1501.14,2284.50,1083.50
1630,1041.25,3134.42,1625.81,2299.50,1093.00
1632,1041.52,3136.87,1272.16,2201.50,1043.00
1634,1041.78,3139.32,1378.55,2232.00,1067.50
1636,1042.05,3141.77,1340.20,2306.00,1151.00
1638,1042.32,3144.21,1428.64,2220.00,1057.50
1640,1042.58,3146.65,1028.70,2218.00,1104.50
1642,1042.85,3149.09,1318.47,2207.00,1064.00
1644,1043.11,3151.52,1020.42,2167.50,1065.50
1646,1043.38,3153.96,1382.21,2211.50,1080.00
1648,1043.64,3156.39,1193.89,2158.00,1058.00
1650,1043.90,3158.81,1371.12,2183.50,1070.00
1652,1044.17,3161.24,1075.30,2170.50,1088.50
1654,1044.43,3163.66,923.26,2115.50,1053.50
1656,1044.70,3166.08,1015.38,2176.00,1112.00
1658,1044.96,3168.49,941.35,2120.00,1070.00
1660,1045.22,3170.91,744.76,2089.00,1063.00
1662,1045.49,3173.32,927.90,2105.50,1066.00
1664,1045.75,3175.73,889.29,2103.50,1075.00
1666,1046.01,3178.13,676.93,2051.50,1050.00
1668,1046.28,3180.54,663.61,2087.50,1093.00
1670,1046.54,3182.94,636.18,2068.00,1080.50
1672,1046.80,3185.34,595.06,2056.50,1073.00
1674,1047.07,3187.73,410.80,2019.50,1056.50
1676,1047.33,3190.12,308.87,2027.00,1083.00
1678,1047.59,3192.51,808.03,2051.00,1073.00
1680,1047.85,3194.90,403.96,2046.00,1109.50
1682,1048.11,3197.29,436.41,2034.00,1096.00
1684,1048.38,3199.67,338.93,2009.00,1081.50
1686,1048.64,3202.05,384.88,2023.50,1095.00
1688,1048.90,3204.43,366.55,1988.00,1071.00
1690,1049.16,3206.80,668.39,1987.50,1060.00
1692,1049.42,3209.17,830.54,2023.50,1084.00
1694,1049.68,3211.54,78.50,1939.00,1058.50
1696,1049.94,3213.91,45.12,1946.50,1072.00
1698,1050.20,3216.27,0.00,1944.50,1090.50
1700,1050.46,3218.63,436.45,2002.00,1112.00
1702,1050.72,3220.99,32.75,1942.50,1087.00
1704,1050.98,3223.35,158.01,1959.00,1091.00
1706,1051.24,3225.70,0.00,1916.00,1073.00
1708,1051.50,3228.05,54.86,1912.00,1059.00
1710,1051.76,3230.40,61.94,1952.00,1100.50
1712,1052.02,3232.75,0.00,1920.00,1079.00
1714,1052.28,3235.09,382.55,1964.50,1096.00
1716,1052.54,3237.43,219.00,1922.00,1069.00
1718,1052.80,3239.77,177.20,1915.00,1061.00
1720,1053.06,3242.11,59.49,1925.50,1079.00
1722,1053.32,3244.44,82.64,1898.50,1050.50
1724,1053.58,3246.77,423.21,1985.50,1112.00
1726,1053.84,3249.10,367.38,1937.00,1081.50
1728,1054.10,3251.42,517.37,1950.50,1090.00
1730,1054.35,3253.75,775.43,1939.50,1068.50
1732,1054.61,3256.07,1268.49,1990.00,1096.00
1734,1054.87,3258.39,1300.35,1968.00,1085.50
1736,1055.13,3260.70,1787.37,1975.00,1068.00
1738,1055.38,3263.01,1980.96,1982.50,1071.00
1740,1055.64,3265.32,2122.34,2000.00,1088.50
1742,1055.90,3267.63,2649.35,1993.00,1054.50
1744,1056.16,3269.94,3028.79,2068.00,1114.00
1746,1056.41,3272.24,3588.45,2096.50,1116.50
1748,1056.67,3274.54,4038.93,2087.00,1091.00
1750,1056.93,3276.84,4779.38,2106.50,1075.00
1752,1057.18,3279.13,5279.23,2128.50,1074.00
1754,1057.44,3281.42,5945.87,2150.00,1057.00
1756,1057.69,3283.71,6835.73,2209.00,1061.00
1758,1057.95,3286.00,7805.97,2314.50,1106.50
1760,1058.21,3288.28,9313.78,2367.00,1065.00
1762,1058.46,3290.57,10989.76,2497.00,1106.00
1764,1058.72,3292.85,14181.99,2636.50,1096.00
1766,1058.97,3295.12,18364.15,2760.50,1055.00
1768,1059.23,3297.40,21027.07,2842.50,1064.50
1770,1059.48,3299.67,21417.51,2876.50,1103.50
1772,1059.74,3301.94,18467.88,2696.50,1057.00
1774,1059.99,3304.21,15577.56,2619.50,1093.00
1776,1060.25,3306.47,11358.54,2410.50,1100.50
1778,1060.50,3308.73,9028.22,2236.00,1069.50
1780,1060.76,3310.99,8119.98,2152.50,1067.50
1782,1061.01,3313.25,7432.82,2085.50,1073.00
1784,1061.26,3315.50,6371.86,2002.50,1073.00
1786,1061.52,3317.76,5954.62,1984.50,1090.00
1788,1061.77,3320.01,5121.24,1947.00,1105.00
1790,1062.02,3322.25,4714.00,1862.50,1049.50
1792,1062.28,3324.50,3814.02,1833.50,1081.00
1794,1062.53,3326.74,3994.07,1801.00,1050.50
1796,1062.78,3328.98,3656.58,1796.00,1073.00
1798,1063.04,3331.22,3108.48,1756.50,1070.00
1800,1063.29,3333.45,3040.32,1750.50,1077.00
1802,1063.54,3335.68,3300.54,1742.00,1067.50
1804,1063.79,3337.91,2867.56,1733.50,1092.00
1806,1064.05,3340.14,3185.15,1757.00,1106.00
1808,1064.30,3342.36,2856.60,1678.50,1046.50
1810,1064.55,3344.59,2761.98,1717.00,1091.50
1812,1064.80,3346.81,2950.67,1698.50,1065.00
1814,1065.05,3349.02,3160.95,1708.00,1066.50
1816,1065.30,3351.24,3820.09,1771.50,1100.50
1818,1065.55,3353.45,4847.07,1788.00,1077.50
1820,1065.81,3355.66,6501.23,1889.50,1130.00
1822,1066.06,3357.87,9976.67,1923.00,1063.00
1824,1066.31,3360.07,12223.89,1960.50,1058.00
1826,1066.56,3362.27,11408.77,1959.00,1088.00
1828,1066.81,3364.47,8050.45,1831.50,1061.00
1830,1067.06,3366.67,5492.26,1754.50,1068.50
1832,1067.31,3368.87,3956.08,1679.00,1060.50
1834,1067.56,3371.06,2964.15,1586.50,1027.50
1836,1067.81,3373.25,2814.51,1562.50,1025.00
1838,1068.06,3375.44,2360.20,1544.00,1040.00
1840,1068.31,3377.62,2124.87,1537.50,1052.50
1842,1068.56,3379.81,1479.79,1496.00,1046.50
1844,1068.80,3381.99,1752.13,1565.50,1112.00
1846,1069.05,3384.16,1793.63,1521.00,1074.00
1848,1069.30,3386.34,1234.78,1482.00,1064.50
1850,1069.55,3388.51,1139.31,1465.00,1057.00
1852,1069.80,3390.68,905.06,1464.00,1068.00
1854,1070.05,3392.85,845.00,1508.00,1114.00
1856,1070.30,3395.02,182.58,1438.50,1079.50
1858,1070.54,3397.18,348.42,1402.50,1043.00
1860,1070.79,3399.34,733.18,1432.00,1068.00
1862,1071.04,3401.50,479.88,1413.00,1064.50
1864,1071.29,3403.66,757.60,1374.50,1016.50
1866,1071.53,3405.81,195.12,1404.50,1073.00
1868,1071.78,3407.96,323.04,1393.00,1060.00
1870,1072.03,3410.11,217.81,1404.00,1083.50
1872,1072.27,3412.26,852.32,1409.00,1074.00
1874,1072.52,3414.40,118.88,1363.50,1059.00
1876,1072.77,3416.54,618.25,1370.00,1057.00
1878,1073.01,3418.68,556.68,1400.50,1090.00
1880,1073.26,3420.82,309.12,1325.00,1023.00
1882,1073.51,3422.96,39.72,1356.00,1073.00
1884,1073.75,3425.09,477.27,1365.00,1069.00
1886,1074.00,3427.22,180.69,1313.00,1037.00
1888,1074.24,3429.35,131.81,1368.50,1099.00
1890,1074.49,3431.47,208.70,1314.00,1045.50
1892,1074.73,3433.59,391.28,1311.50,1039.00
1894,1074.98,3435.71,157.47,1360.50,1103.50
1896,1075.22,3437.83,452.40,1328.50,1068.00
1898,1075.47,3439.95,837.35,1344.50,1081.00
1900,1075.71,3442.06,1047.80,1344.50,1079.50
1902,1075.96,3444.17,505.99,1311.50,1063.00
1904,1076.20,3446.28,166.37,1236.00,1002.50
1906,1076.44,3448.38,533.49,1348.00,1108.00
1908,1076.69,3450.49,727.95,1321.00,1081.00
1910,1076.93,3452.59,480.37,1302.00,1073.00
1912,1077.17,3454.69,656.08,1291.50,1060.50
1914,1077.42,3456.79,437.82,1287.50,1067.50
1916,1077.66,3458.88,678.19,1270.50,1048.50
1918,1077.90,3460.97,498.83,1257.50,1045.50
1920,1078.15,3463.06,431.78,1315.00,1108.50
1922,1078.39,3465.15,395.55,1277.50,1075.00
1924,1078.63,3467.23,473.10,1230.00,1028.50
1926,1078.87,3469.32,882.23,1295.50,1086.50
1928,1079.12,3471.40,357.04,1245.00,1056.00
1930,1079.36,3473.47,403.01,1314.00,1128.00
1932,1079.60,3475.55,740.72,1230.50,1040.00
1934,1079.84,3477.62,553.84,1264.00,1081.50
1936,1080.08,3479.69,630.53,1233.50,1052.00
1938,1080.33,3481.76,0.00,1201.00,1042.00
1940,1080.57,3483.83,120.85,1231.50,1069.00
1942,1080.81,3485.89,186.39,1237.50,1076.00
1944,1081.05,3487.95,670.90,1259.00,1086.50
1946,1081.29,3490.01,275.33,1234.50,1076.50
1948,1081.53,3492.07,518.92,1211.00,1051.00
1950,1081.77,3494.12,589.14,1210.50,1053.00
1952,1082.01,3496.18,1031.97,1243.00,1078.00
1954,1082.25,3498.23,247.03,1198.50,1052.50
1956,1082.49,3500.27,491.88,1214.50,1063.50
1958,1082.73,3502.32,846.43,1202.50,1045.50
1960,1082.97,3504.36,974.25,1224.00,1069.50
1962,1083.21,3506.40,530.29,1193.50,1052.50
1964,1083.45,3508.44,526.89,1163.50,1024.50
1966,1083.69,3510.48,361.14,1253.50,1120.50
1968,1083.93,3512.51,203.52,1201.50,1075.00
1970,1084.16,3514.54,245.89,1181.50,1057.00
1972,1084.40,3516.57,1008.05,1183.50,1046.50
1974,1084.64,3518.60,646.01,1177.50,1048.50
1976,1084.88,3520.62,745.87,1221.00,1091.00
1978,1085.12,3522.65,1176.44,1236.50,1098.00
1980,1085.36,3524.67,764.72,1190.00,1061.50
1982,1085.59,3526.68,313.67,1165.00,1049.00
1984,1085.83,3528.70,337.09,1198.00,1083.50
1986,1086.07,3530.71,1053.22,1168.00,1041.00
1988,1086.31,3532.72,864.66,1193.50,1076.50
1990,1086.54,3534.73,1790.14,1163.50,1035.00
1992,1086.78,3536.74,1388.23,1218.50,1096.50
1994,1087.02,3538.74,525.90,1178.50,1071.00
1996,1087.25,3540.74,901.31,1151.00,1033.00
1998,1087.49,3542.74,594.03,1175.50,1066.50
2000,1087.73,3544.74,758.95,1160.50,1052.00
2002,1087.96,3546.74,1559.25,1175.50,1058.00
2004,1088.20,3548.73,1291.07,1207.00,1098.00
2006,1088.43,3550.72,1331.49,1180.50,1071.00
2008,1088.67,3552.71,861.24,1159.50,1058.00
2010,1088.90,3554.69,1302.22,1134.00,1024.50
2012,1089.14,3556.68,387.64,1163.50,1074.00
2014,1089.38,3558.66,2280.20,1153.00,1033.00
2016,1089.61,3560.64,2384.93,1156.00,1039.00
2018,1089.84,3562.62,1623.02,1177.50,1074.00
2020,1090.08,3564.59,154.64,1130.00,1051.00
2022,1090.31,3566.56,1278.32,1137.50,1038.00
2024,1090.55,3568.53,94.52,1132.50,1057.00
2026,1090.78,3570.50,1154.72,1119.50,1025.00
2028,1091.02,3572.47,1867.98,1129.00,1026.50
2030,1091.25,3574.43,1258.35,1119.50,1030.50
2032,1091.48,3576.39,821.88,1082.50,1001.00
2034,1091.72,3578.35,1014.06,1088.00,1003.00
2036,1091.95,3580.31,603.74,1116.50,1039.00
2038,1092.18,3582.26,1240.28,1086.50,1001.50
2040,1092.42,3584.22,749.73,1078.00,1003.50
2042,1092.65,3586.17,1728.32,1102.50,1017.00
2044,1092.88,3588.12,524.24,1075.00,1002.00
2046,1093.11,3590.06,367.21,1076.00,993.00
2047,1093.23,3591.03,0.00,1056.00,997.00