File: src/enlighten/plugins/Raman/MatchingLibrary/785X/coconut oil.csv
ENLIGHTEN Version,4.1.22
Measurement ID,20250220-202018-780882-WP-01977
Serial Number,WP-01977
Model,WP-785X-F13-R-ILC
Detector,S16011-1106
Label,coconut oil
Declared Match,
Declared Score,0
Scan Averaging,3
Boxcar,0
Technique,Raman
Baseline Correction Algo,AirPLS
ROI Pixel Start,47
ROI Pixel End,2047
ROI Start Line,0
ROI Stop Line,63
CCD C4,1.38617e-12
Slit Width,25
Cropped,True
Interpolated,False
Wavenumber Correction,-0.100481
Raman Intensity Corrected,True
Deconvolved,True
Region,
High Gain Mode,False
Laser Power mW,
Electrical Dark Correction,False
Battery %,
Device ID,<DeviceID USB:0x24aa:0x1000:0:1>
FW Version,10.0.0.10
FPGA Version,035-001
BLE Version,
Prefix,enlighten
Suffix,
Preset,
Auto-Raman,True
Session Count,0
Plugin Name,
Integration Time,456
Timestamp,2025-02-20 20:20:18.7809
Note,
Temperature,0
CCD C0,793.274
CCD C1,0.153259
CCD C2,1.40788e-05
CCD C3,-1.132e-08
CCD Offset,0
CCD Gain,1.9
CCD Offset Odd,0
CCD Gain Odd,1.9
Laser Wavelength,785.032
Laser Enable,False
Laser Power %,0
Laser Temperature,0
Pixel Count,2048

Pixel,Wavelength,Wavenumber,Processed,Raw,Dark
0,793.27,132.25,NA,1024.67,947.00
2,793.58,137.12,NA,1037.67,966.00
4,793.89,141.99,NA,1037.33,950.67
6,794.19,146.86,NA,1035.33,955.67
8,794.50,151.72,NA,1047.00,966.33
10,794.81,156.58,NA,1051.00,964.67
12,795.12,161.44,NA,1035.67,950.00
14,795.42,166.30,NA,1046.33,946.33
16,795.73,171.16,NA,1049.33,953.33
18,796.04,176.01,NA,1062.00,972.67
20,796.35,180.86,NA,1073.33,971.67
22,796.65,185.71,NA,1097.33,994.00
24,796.96,190.56,NA,1077.67,966.33
26,797.27,195.41,NA,1097.33,981.00
28,797.58,200.25,NA,1093.33,979.33
30,797.88,205.09,NA,1095.00,959.33
32,798.19,209.93,NA,1102.33,968.00
34,798.50,214.77,NA,1118.00,964.00
36,798.81,219.60,NA,1133.33,968.67
38,799.12,224.43,NA,1285.67,966.00
40,799.43,229.27,NA,2020.00,988.33
42,799.74,234.09,NA,4942.33,983.33
44,800.04,238.92,NA,9185.67,1012.00
46,800.35,243.75,NA,10929.67,979.33
48,800.66,248.57,1012.26,11129.33,987.33
50,800.97,253.39,730.89,10925.67,1001.33
52,801.28,258.21,573.43,10798.00,1001.00
54,801.59,263.02,540.43,10649.67,996.00
56,801.90,267.83,506.91,10524.67,983.00
58,802.21,272.65,396.35,10362.33,990.00
60,802.52,277.46,333.72,10210.67,994.00
62,802.83,282.26,248.31,10058.67,1005.00
64,803.14,287.07,127.89,9861.33,1004.00
66,803.45,291.87,72.70,9713.67,1004.33
68,803.76,296.67,26.07,9608.33,1005.67
70,804.07,301.47,2.07,9492.33,990.33
72,804.38,306.26,0.00,9385.67,984.33
74,804.69,311.06,0.00,9345.33,984.00
76,805.00,315.85,5.19,9328.67,988.33
78,805.31,320.64,44.57,9294.00,995.00
80,805.62,325.42,19.71,9230.67,1002.33
82,805.93,330.21,25.34,9184.00,998.00
84,806.24,334.99,29.05,9092.33,973.33
86,806.55,339.77,35.43,9055.33,989.00
88,806.86,344.55,9.96,8979.00,993.00
90,807.17,349.32,107.69,9020.00,979.67
92,807.48,354.10,132.74,8972.67,992.33
94,807.80,358.87,79.17,8878.33,1006.33
96,808.11,363.63,3.35,8723.00,989.67
98,808.42,368.40,0.00,8588.67,983.00
100,808.73,373.16,0.00,8479.00,976.67
102,809.04,377.93,0.00,8472.33,967.67
104,809.35,382.68,0.01,8495.00,979.67
106,809.66,387.44,39.67,8610.67,991.67
108,809.98,392.19,270.94,8814.67,973.67
110,810.29,396.95,534.00,9140.67,988.33
112,810.60,401.70,679.67,9274.67,971.67
114,810.91,406.44,649.02,9229.33,979.00
116,811.22,411.19,531.69,9071.67,988.67
118,811.54,415.93,384.26,8841.00,988.67
120,811.85,420.67,258.15,8635.33,970.33
122,812.16,425.41,237.35,8548.67,979.00
124,812.47,430.14,265.95,8524.33,992.33
126,812.79,434.87,185.51,8386.33,975.33
128,813.10,439.60,98.54,8235.67,964.67
130,813.41,444.33,110.31,8227.33,981.00
132,813.72,449.06,173.30,8261.33,975.33
134,814.04,453.78,240.59,8313.00,977.00
136,814.35,458.50,314.46,8343.33,962.00
138,814.66,463.22,295.67,8290.00,960.00
140,814.98,467.93,249.35,8215.67,974.67
142,815.29,472.65,222.37,8130.67,969.33
144,815.60,477.36,177.75,8035.00,980.00
146,815.92,482.06,193.69,7983.00,958.67
148,816.23,486.77,201.30,7972.00,981.33
150,816.54,491.47,179.82,7926.00,1000.33
152,816.86,496.17,224.27,7886.33,964.67
154,817.17,500.87,143.26,7765.33,977.33
156,817.48,505.57,145.33,7719.67,976.67
158,817.80,510.26,140.42,7641.33,965.00
160,818.11,514.95,120.28,7587.67,975.67
162,818.42,519.64,150.83,7593.33,987.33
164,818.74,524.32,165.76,7539.33,972.33
166,819.05,529.00,147.74,7491.33,989.67
168,819.37,533.68,99.31,7364.00,980.00
170,819.68,538.36,84.42,7282.67,978.00
172,819.99,543.04,18.70,7166.33,999.33
174,820.31,547.71,1.81,7072.67,975.33
176,820.62,552.38,0.00,6976.33,965.33
178,820.94,557.05,0.00,6915.67,981.67
180,821.25,561.71,0.00,6838.33,952.00
182,821.57,566.37,0.00,6873.67,964.00
184,821.88,571.03,13.88,6992.00,976.00
186,822.20,575.69,140.14,7136.33,973.33
188,822.51,580.34,279.46,7352.67,971.00
190,822.83,584.99,392.34,7533.00,979.67
192,823.14,589.64,537.29,7767.00,976.67
194,823.46,594.29,725.34,8050.33,976.33
196,823.77,598.93,923.39,8314.67,977.00
198,824.09,603.57,1005.93,8417.67,956.33
200,824.40,608.21,989.74,8403.33,973.33
202,824.72,612.85,820.47,8185.67,992.33
204,825.03,617.48,651.65,7928.67,976.33
206,825.35,622.11,560.25,7777.33,988.67
208,825.66,626.74,539.08,7710.33,977.33
210,825.98,631.36,505.91,7645.33,970.33
212,826.29,635.99,539.41,7668.67,974.00
214,826.61,640.61,544.84,7667.33,974.33
216,826.92,645.22,481.54,7558.33,971.67
218,827.24,649.84,452.28,7485.67,959.33
220,827.56,654.45,388.58,7410.33,982.33
222,827.87,659.06,323.25,7282.00,976.67
224,828.19,663.67,290.07,7200.00,974.67
226,828.50,668.27,204.32,7100.33,1015.33
228,828.82,672.87,140.72,6943.33,982.67
230,829.13,677.47,54.48,6814.33,969.00
232,829.45,682.06,0.00,6682.67,983.67
234,829.77,686.66,0.00,6722.67,1069.33
236,830.08,691.25,0.00,6591.67,971.33
238,830.40,695.83,0.00,6613.00,970.33
240,830.72,700.42,0.00,6629.00,969.33
242,831.03,705.00,0.00,6700.00,941.67
244,831.35,709.58,0.00,6774.00,968.67
246,831.66,714.15,61.65,6956.67,949.33
248,831.98,718.73,188.58,7210.33,974.00
250,832.30,723.30,362.61,7470.67,959.00
252,832.61,727.87,418.88,7640.67,983.67
254,832.93,732.43,359.68,7596.00,937.33
256,833.25,736.99,351.71,7673.67,990.33
258,833.56,741.55,377.93,7732.67,971.67
260,833.88,746.11,376.14,7784.00,970.33
262,834.20,750.66,408.01,7855.33,969.00
264,834.51,755.22,379.20,7875.00,979.33
266,834.83,759.76,324.97,7849.67,975.33
268,835.15,764.31,356.08,7937.67,979.00
270,835.47,768.85,410.79,8028.00,959.33
272,835.78,773.39,435.90,8127.33,971.33
274,836.10,777.93,418.33,8159.33,967.00
276,836.42,782.46,429.02,8218.67,964.67
278,836.73,787.00,424.08,8267.33,962.00
280,837.05,791.52,494.81,8428.67,956.00
282,837.37,796.05,608.39,8674.67,979.67
284,837.69,800.57,768.35,8947.00,962.67
286,838.00,805.09,895.57,9243.00,964.67
288,838.32,809.61,1051.39,9620.00,979.33
290,838.64,814.13,1372.42,10260.67,983.00
292,838.95,818.64,1952.15,11239.33,967.33
294,839.27,823.15,2755.96,12533.67,966.33
296,839.59,827.65,3434.71,13719.33,970.33
298,839.91,832.15,4007.56,14741.00,965.33
300,840.22,836.65,4527.57,15643.33,994.00
302,840.54,841.15,4842.70,16121.67,960.67
304,840.86,845.65,4810.12,16148.33,983.00
306,841.18,850.14,4421.48,15704.67,974.33
308,841.50,854.63,4083.68,15400.00,1023.00
310,841.81,859.11,4151.53,15535.67,970.00
312,842.13,863.60,4763.99,16450.67,975.33
314,842.45,868.07,5473.13,17426.67,956.33
316,842.77,872.55,5756.98,17930.33,977.67
318,843.08,877.03,5434.58,17696.67,998.00
320,843.40,881.50,5107.23,17355.00,952.67
322,843.72,885.97,5308.23,17623.33,979.00
324,844.04,890.43,5730.64,18015.00,959.33
326,844.36,894.89,5488.46,17640.33,967.00
328,844.67,899.35,4662.64,16498.33,982.33
330,844.99,903.81,3681.43,15098.33,957.33
332,845.31,908.26,3089.14,14213.33,979.67
334,845.63,912.71,3076.55,14066.33,974.67
336,845.95,917.16,3194.51,14166.00,985.67
338,846.27,921.61,3223.32,14407.33,1230.33
340,846.58,926.05,2935.21,13760.00,971.67
342,846.90,930.49,2495.55,13132.00,974.33
344,847.22,934.92,2084.91,12480.00,976.33
346,847.54,939.36,1683.58,11808.67,950.33
348,847.86,943.79,1309.38,11236.67,958.67
350,848.18,948.21,1029.98,10806.00,960.33
352,848.49,952.64,838.61,10506.33,960.67
354,848.81,957.06,708.95,10290.67,943.67
356,849.13,961.48,664.03,10215.00,985.00
358,849.45,965.89,477.42,9954.67,986.33
360,849.77,970.31,223.39,9609.67,967.00
362,850.09,974.71,55.49,9371.33,969.00
364,850.40,979.12,10.53,9312.00,981.67
366,850.72,983.52,24.11,9378.33,998.00
368,851.04,987.92,124.77,9476.00,952.00
370,851.36,992.32,268.01,9708.33,956.33
372,851.68,996.72,543.81,10142.33,974.00
374,852.00,1001.11,805.70,10516.00,959.67
376,852.32,1005.50,976.25,10834.33,955.67
378,852.63,1009.88,1255.42,11301.00,993.00
380,852.95,1014.26,1456.33,11626.33,978.67
382,853.27,1018.64,1670.76,12044.33,978.33
384,853.59,1023.02,2042.56,12626.00,962.00
386,853.91,1027.39,2565.83,13365.67,952.67
388,854.23,1031.76,2985.60,13969.00,969.33
390,854.55,1036.13,3003.61,14068.33,962.00
392,854.87,1040.49,2938.26,14050.33,960.67
394,855.18,1044.86,2951.92,14126.00,977.67
396,855.50,1049.21,3169.58,14568.67,969.00
398,855.82,1053.57,3729.47,15596.67,976.00
400,856.14,1057.92,4937.17,17384.00,962.67
402,856.46,1062.27,6388.82,19310.67,966.67
404,856.78,1066.62,6748.94,20046.67,952.00
406,857.10,1070.96,6403.67,19944.33,947.67
408,857.42,1075.30,6839.24,20404.67,979.00
410,857.74,1079.64,7165.49,20433.67,968.00
412,858.06,1083.97,6217.17,18993.67,954.33
414,858.37,1088.30,4676.77,16729.33,954.33
416,858.69,1092.63,3310.04,14570.67,953.00
418,859.01,1096.95,2334.68,12969.67,950.67
420,859.33,1101.27,1928.48,12297.00,964.67
422,859.65,1105.59,2166.50,12706.33,965.33
424,859.97,1109.91,3085.32,14179.67,953.33
426,860.29,1114.22,4663.23,16409.00,956.67
428,860.61,1118.53,6155.90,18074.33,952.33
430,860.93,1122.84,5910.94,17518.33,965.33
432,861.25,1127.14,3449.36,14510.67,979.67
434,861.56,1131.44,1241.31,11242.67,959.33
436,861.88,1135.74,398.49,9553.00,958.67
438,862.20,1140.03,227.10,9023.33,962.00
440,862.52,1144.32,392.21,9155.00,967.33
442,862.84,1148.61,548.32,9322.00,973.33
444,863.16,1152.89,670.75,9493.33,959.33
446,863.48,1157.17,652.44,9475.33,962.67
448,863.80,1161.45,671.78,9480.00,963.33
450,864.12,1165.73,656.40,9406.33,967.67
452,864.44,1170.00,563.54,9205.00,960.33
454,864.76,1174.27,366.34,8910.67,968.00
456,865.07,1178.53,153.32,8558.00,952.00
458,865.39,1182.80,41.56,8355.00,962.67
460,865.71,1187.06,3.59,8258.33,960.00
462,866.03,1191.31,0.00,8189.33,963.33
464,866.35,1195.57,0.00,8052.67,959.33
466,866.67,1199.82,0.00,8068.33,969.00
468,866.99,1204.06,0.00,8086.67,960.67
470,867.31,1208.31,0.00,8072.67,968.33
472,867.63,1212.55,0.00,8128.00,967.33
474,867.95,1216.79,0.00,8181.67,950.67
476,868.27,1221.02,0.00,8310.67,964.00
478,868.58,1225.25,34.64,8567.33,942.00
480,868.90,1229.48,191.89,8793.67,978.67
482,869.22,1233.71,314.57,9053.33,972.33
484,869.54,1237.93,478.31,9401.33,981.00
486,869.86,1242.15,748.57,9826.00,962.00
488,870.18,1246.36,980.93,10203.33,948.00
490,870.50,1250.58,1159.69,10591.00,970.33
492,870.82,1254.79,1316.67,10942.00,996.00
494,871.14,1258.99,1632.44,11426.67,966.33
496,871.46,1263.20,1894.70,11881.67,971.67
498,871.78,1267.40,2129.69,12337.33,961.00
500,872.10,1271.59,2369.43,12817.67,962.33
502,872.41,1275.79,2848.50,13601.33,953.33
504,872.73,1279.98,3327.22,14431.33,962.00
506,873.05,1284.17,3973.56,15654.67,978.33
508,873.37,1288.35,4828.59,17352.67,939.67
510,873.69,1292.53,6581.91,20385.33,960.33
512,874.01,1296.71,9864.64,24883.33,954.67
514,874.33,1300.88,12723.72,28343.00,943.67
516,874.65,1305.06,12622.40,28440.67,961.00
518,874.97,1309.22,10341.04,25654.00,947.67
520,875.29,1313.39,7772.56,22025.33,971.33
522,875.60,1317.55,5601.00,18638.33,969.67
524,875.92,1321.71,4038.15,16042.33,958.67
526,876.24,1325.87,2871.87,14167.00,974.00
528,876.56,1330.02,2015.31,12818.00,959.00
530,876.88,1334.17,1559.45,12104.00,979.67
532,877.20,1338.32,1447.44,11797.00,952.33
534,877.52,1342.46,1367.66,11615.33,950.00
536,877.84,1346.60,1180.75,11425.67,969.00
538,878.16,1350.73,1019.14,11213.33,957.33
540,878.47,1354.87,1017.98,11243.00,958.00
542,878.79,1359.00,974.85,11231.33,962.67
544,879.11,1363.13,1126.02,11428.00,964.00
546,879.43,1367.25,1242.63,11548.00,959.33
548,879.75,1371.37,1151.37,11435.00,955.67
550,880.07,1375.49,851.14,11055.33,954.33
552,880.39,1379.60,515.28,10621.00,960.00
554,880.71,1383.71,202.38,10230.33,962.00
556,881.03,1387.82,49.61,9983.00,949.67
558,881.34,1391.93,47.95,9942.00,938.00
560,881.66,1396.03,192.92,10126.33,950.33
562,881.98,1400.13,384.88,10367.67,965.67
564,882.30,1404.22,630.42,10781.33,960.67
566,882.62,1408.31,1036.44,11513.67,957.33
568,882.94,1412.40,2103.31,13058.33,969.00
570,883.26,1416.49,3583.40,14925.67,960.67
572,883.57,1420.57,4568.12,16644.33,976.00
574,883.89,1424.65,5433.21,18774.33,953.00
576,884.21,1428.73,7969.54,23216.00,974.67
578,884.53,1432.80,13846.53,31056.67,979.00
580,884.85,1436.87,20372.02,38678.00,953.00
582,885.17,1440.93,22146.98,41437.00,949.00
584,885.49,1445.00,20094.54,39915.67,957.67
586,885.80,1449.06,18036.07,37391.00,946.33
588,886.12,1453.11,17076.74,35364.67,981.33
590,886.44,1457.17,16423.02,33521.00,966.67
592,886.76,1461.22,13982.28,29924.00,973.33
594,887.08,1465.26,10700.37,25378.67,978.00
596,887.40,1469.31,7800.42,21023.00,947.00
598,887.71,1473.35,5409.19,17351.33,951.33
600,888.03,1477.38,3639.90,14577.67,962.67
602,888.35,1481.42,2460.77,12646.33,973.67
604,888.67,1485.45,1750.90,11401.67,961.33
606,888.99,1489.48,1255.26,10514.67,950.67
608,889.31,1493.50,952.25,9966.33,964.00
610,889.62,1497.52,698.29,9516.00,965.33
612,889.94,1501.54,454.25,9073.00,941.67
614,890.26,1505.56,287.24,8765.67,953.33
616,890.58,1509.57,180.68,8563.33,952.33
618,890.90,1513.57,66.14,8347.00,948.67
620,891.21,1517.58,25.66,8186.00,953.00
622,891.53,1521.58,38.86,8084.67,953.67
624,891.85,1525.58,12.76,7948.33,956.67
626,892.17,1529.57,9.47,7849.00,967.67
628,892.49,1533.57,3.53,7728.67,964.67
630,892.80,1537.56,0.00,7592.67,950.67
632,893.12,1541.54,0.00,7463.33,951.00
634,893.44,1545.52,2.35,7414.00,968.33
636,893.76,1549.50,0.00,7224.00,941.67
638,894.07,1553.48,0.00,7195.33,965.67
640,894.39,1557.45,0.00,7106.00,951.67
642,894.71,1561.42,0.00,7063.33,969.67
644,895.03,1565.39,0.00,6941.33,934.67
646,895.34,1569.35,0.00,6942.67,978.67
648,895.66,1573.31,0.00,6799.00,952.67
650,895.98,1577.26,39.78,6838.67,944.67
652,896.30,1581.22,0.00,6699.67,943.67
654,896.61,1585.17,0.00,6670.67,955.00
656,896.93,1589.11,0.00,6639.67,964.67
658,897.25,1593.06,1.73,6578.33,948.00
660,897.57,1597.00,0.00,6512.67,963.33
662,897.88,1600.93,0.00,6470.00,962.67
664,898.20,1604.87,0.00,6431.33,960.00
666,898.52,1608.80,0.00,6422.00,952.00
668,898.84,1612.72,13.55,6413.00,939.00
670,899.15,1616.65,12.72,6413.67,966.00
672,899.47,1620.57,37.72,6398.33,939.33
674,899.79,1624.49,14.73,6358.00,959.00
676,900.10,1628.40,9.51,6316.33,945.00
678,900.42,1632.31,1.56,6299.33,964.67
680,900.74,1636.22,0.18,6244.67,937.67
682,901.05,1640.12,3.67,6286.00,983.00
684,901.37,1644.02,51.43,6305.67,953.00
686,901.69,1647.92,90.42,6326.33,963.33
688,902.00,1651.82,153.98,6392.33,956.67
690,902.32,1655.71,280.02,6476.00,944.33
692,902.64,1659.60,288.77,6466.00,950.67
694,902.95,1663.48,191.63,6364.67,963.33
696,903.27,1667.36,151.72,6256.00,949.00
698,903.59,1671.24,68.92,6192.00,973.33
700,903.90,1675.11,2.99,6040.67,966.00
702,904.22,1678.99,3.93,5984.67,939.67
704,904.54,1682.85,37.11,6032.33,981.00
706,904.85,1686.72,11.28,5940.33,950.00
708,905.17,1690.58,45.94,5976.00,962.67
710,905.49,1694.44,117.39,5988.00,939.67
712,905.80,1698.29,141.46,6003.67,950.00
714,906.12,1702.15,230.83,6084.00,961.00
716,906.43,1706.00,310.04,6124.00,957.67
718,906.75,1709.84,344.60,6168.33,969.00
720,907.07,1713.68,347.62,6154.67,947.67
722,907.38,1717.52,512.25,6351.67,952.67
724,907.70,1721.36,724.25,6634.00,955.67
726,908.01,1725.19,1093.03,7170.67,959.00
728,908.33,1729.02,1813.56,8135.00,965.33
730,908.65,1732.85,2960.09,9523.33,954.33
732,908.96,1736.67,4271.96,11044.00,968.33
734,909.28,1740.49,5465.90,12353.67,952.67
736,909.59,1744.30,5998.86,12913.00,965.67
738,909.91,1748.12,5900.11,12710.33,952.33
740,910.22,1751.93,4947.91,11557.00,962.67
742,910.54,1755.73,3533.59,9929.67,994.33
744,910.85,1759.54,2109.08,8181.67,968.00
746,911.17,1763.34,1147.69,6859.33,948.33
748,911.49,1767.13,618.04,6048.00,960.67
750,911.80,1770.93,373.82,5596.67,944.33
752,912.12,1774.72,229.13,5362.67,964.67
754,912.43,1778.50,139.47,5164.67,946.33
756,912.75,1782.29,127.97,5093.67,940.67
758,913.06,1786.07,74.61,4996.33,950.67
760,913.38,1789.84,68.45,4944.00,953.00
762,913.69,1793.62,65.90,4907.67,969.00
764,914.01,1797.39,74.24,4874.00,956.67
766,914.32,1801.15,1.78,4747.33,948.33
768,914.64,1804.92,0.00,4684.00,942.67
770,914.95,1808.68,0.00,4671.33,961.33
772,915.26,1812.44,7.51,4648.00,964.00
774,915.58,1816.19,0.00,4569.67,944.33
776,915.89,1819.94,0.00,4550.00,951.33
778,916.21,1823.69,0.00,4524.67,964.33
780,916.52,1827.43,0.00,4514.67,983.00
782,916.84,1831.17,25.90,4481.33,939.33
784,917.15,1834.91,35.25,4457.33,939.33
786,917.47,1838.64,24.06,4442.67,960.67
788,917.78,1842.38,69.53,4447.33,952.00
790,918.09,1846.10,61.47,4401.67,948.33
792,918.41,1849.83,40.04,4367.67,955.33
794,918.72,1853.55,36.21,4311.00,938.00
796,919.04,1857.27,9.49,4270.33,951.67
798,919.35,1860.98,0.00,4201.33,952.00
800,919.66,1864.69,14.58,4220.33,950.00
802,919.98,1868.40,47.97,4228.33,963.33
804,920.29,1872.11,60.94,4202.67,949.67
806,920.60,1875.81,72.93,4198.33,946.33
808,920.92,1879.51,46.60,4138.00,947.67
810,921.23,1883.20,85.79,4166.00,959.00
812,921.55,1886.90,62.24,4103.33,942.33
814,921.86,1890.58,68.95,4102.00,971.00
816,922.17,1894.27,66.11,4061.67,962.00
818,922.49,1897.95,67.16,4041.67,962.33
820,922.80,1901.63,45.69,3980.67,949.67
822,923.11,1905.31,49.81,3962.00,955.00
824,923.42,1908.98,42.78,3924.67,956.67
826,923.74,1912.65,22.48,3892.00,966.67
828,924.05,1916.31,15.33,3846.33,954.33
830,924.36,1919.98,58.55,3856.33,947.00
832,924.68,1923.64,100.06,3864.67,946.67
834,924.99,1927.29,59.91,3809.00,947.00
836,925.30,1930.94,81.36,3791.33,938.00
838,925.61,1934.59,68.81,3768.33,952.67
840,925.93,1938.24,40.55,3716.33,950.33
842,926.24,1941.88,51.61,3705.67,957.67
844,926.55,1945.52,68.17,3679.33,943.00
846,926.86,1949.16,56.81,3651.67,951.33
848,927.18,1952.79,45.53,3618.67,953.33
850,927.49,1956.42,26.54,3565.33,947.33
852,927.80,1960.05,59.41,3633.00,1007.00
854,928.11,1963.67,40.21,3537.33,953.33
856,928.42,1967.29,29.98,3511.33,961.33
858,928.74,1970.91,54.30,3499.00,952.67
860,929.05,1974.52,78.45,3482.67,943.67
862,929.36,1978.13,66.12,3452.67,943.00
864,929.67,1981.74,39.63,3412.67,954.33
866,929.98,1985.35,23.18,3368.67,956.67
868,930.29,1988.95,30.89,3359.33,956.00
870,930.61,1992.54,7.71,3301.00,944.33
872,930.92,1996.14,0.00,3264.00,952.00
874,931.23,1999.73,0.00,3258.33,968.33
876,931.54,2003.32,10.54,3244.33,957.00
878,931.85,2006.90,25.44,3216.00,946.00
880,932.16,2010.48,29.73,3197.00,946.33
882,932.47,2014.06,6.81,3158.33,947.33
884,932.78,2017.63,3.71,3135.33,952.00
886,933.09,2021.21,26.62,3125.67,947.00
888,933.41,2024.77,22.68,3115.33,960.33
890,933.72,2028.34,12.71,3110.00,976.33
892,934.03,2031.90,3.20,3053.33,958.00
894,934.34,2035.46,27.69,3050.33,958.00
896,934.65,2039.01,0.00,2974.00,940.00
898,934.96,2042.57,1.26,2996.67,967.67
900,935.27,2046.11,2.56,2987.67,976.00
902,935.58,2049.66,0.00,2914.33,928.33
904,935.89,2053.20,16.84,2937.00,951.33
906,936.20,2056.74,8.24,2910.67,951.33
908,936.51,2060.28,0.00,2874.00,953.33
910,936.82,2063.81,29.66,2908.00,959.33
912,937.13,2067.34,26.88,2878.00,957.00
914,937.44,2070.86,26.62,2848.00,940.67
916,937.75,2074.39,0.00,2805.33,940.33
918,938.06,2077.91,1.56,2796.00,945.00
920,938.37,2081.42,0.00,2787.00,960.00
922,938.68,2084.94,0.00,2753.00,944.33
924,938.99,2088.45,22.09,2767.33,942.67
926,939.30,2091.95,0.00,2732.67,958.67
928,939.60,2095.46,0.00,2721.33,951.33
930,939.91,2098.96,6.63,2748.67,964.67
932,940.22,2102.45,9.58,2721.67,952.67
934,940.53,2105.95,14.82,2704.33,942.33
936,940.84,2109.44,36.40,2716.67,941.67
938,941.15,2112.92,31.03,2722.67,957.67
940,941.46,2116.41,42.26,2710.00,949.33
942,941.77,2119.89,64.79,2724.33,958.00
944,942.07,2123.37,54.29,2698.33,950.33
946,942.38,2126.84,6.19,2663.67,958.33
948,942.69,2130.31,0.00,2649.00,966.00
950,943.00,2133.78,5.12,2642.00,954.67
952,943.31,2137.24,4.01,2631.00,959.33
954,943.62,2140.70,24.43,2635.33,955.00
956,943.92,2144.16,39.59,2630.00,950.33
958,944.23,2147.62,52.64,2643.33,953.67
960,944.54,2151.07,37.00,2642.67,968.67
962,944.85,2154.52,36.14,2640.33,978.67
964,945.16,2157.96,67.10,2646.00,971.33
966,945.46,2161.40,94.75,2647.00,958.67
968,945.77,2164.84,95.04,2613.67,929.00
970,946.08,2168.28,116.06,2654.00,956.33
972,946.39,2171.71,144.99,2668.33,949.00
974,946.69,2175.14,159.24,2677.00,953.67
976,947.00,2178.57,209.17,2705.67,947.67
978,947.31,2181.99,262.94,2733.33,946.00
980,947.61,2185.41,312.06,2775.00,960.00
982,947.92,2188.82,280.13,2740.33,961.33
984,948.23,2192.24,299.18,2731.33,940.00
986,948.53,2195.65,235.35,2688.33,955.33
988,948.84,2199.05,221.90,2641.33,929.67
990,949.15,2202.46,185.26,2629.33,961.33
992,949.45,2205.86,166.99,2592.00,949.33
994,949.76,2209.25,169.68,2566.33,936.67
996,950.07,2212.65,165.80,2553.67,939.00
998,950.37,2216.04,120.43,2517.00,940.33
1000,950.68,2219.43,89.34,2491.00,949.33
1002,950.98,2222.81,129.33,2516.00,958.00
1004,951.29,2226.19,126.73,2488.33,943.00
1006,951.60,2229.57,120.39,2476.00,939.00
1008,951.90,2232.94,128.32,2472.67,941.00
1010,952.21,2236.32,118.63,2458.33,947.00
1012,952.51,2239.68,129.16,2464.33,957.00
1014,952.82,2243.05,111.91,2417.33,929.67
1016,953.12,2246.41,62.32,2419.33,973.00
1018,953.43,2249.77,73.79,2426.67,981.67
1020,953.73,2253.12,64.86,2380.00,960.00
1022,954.04,2256.48,44.10,2330.67,929.67
1024,954.34,2259.83,7.62,2326.00,967.00
1026,954.65,2263.17,65.98,2334.00,943.00
1028,954.95,2266.51,28.68,2310.67,951.33
1030,955.26,2269.85,2.71,2305.33,975.00
1032,955.56,2273.19,10.64,2291.67,961.33
1034,955.87,2276.52,32.36,2297.33,960.67
1036,956.17,2279.85,16.94,2278.33,963.00
1038,956.48,2283.18,34.86,2258.67,936.67
1040,956.78,2286.50,48.75,2263.67,940.00
1042,957.08,2289.82,56.64,2251.00,932.00
1044,957.39,2293.14,33.91,2251.33,957.33
1046,957.69,2296.45,39.87,2231.67,940.00
1048,957.99,2299.76,38.23,2246.67,967.00
1050,958.30,2303.07,31.22,2223.00,956.33
1052,958.60,2306.38,6.83,2195.33,954.33
1054,958.91,2309.68,21.01,2199.33,953.67
1056,959.21,2312.98,30.58,2177.67,938.67
1058,959.51,2316.27,17.80,2176.33,954.67
1060,959.82,2319.56,4.54,2173.00,967.33
1062,960.12,2322.85,8.49,2146.33,943.67
1064,960.42,2326.14,33.69,2148.33,940.67
1066,960.72,2329.42,29.48,2147.00,949.67
1068,961.03,2332.70,7.69,2139.00,961.33
1070,961.33,2335.97,0.00,2113.00,955.33
1072,961.63,2339.25,3.20,2105.67,950.00
1074,961.93,2342.52,0.00,2094.33,953.33
1076,962.24,2345.78,50.56,2115.67,943.00
1078,962.54,2349.05,22.33,2094.33,948.33
1080,962.84,2352.31,14.10,2085.33,948.33
1082,963.14,2355.56,30.18,2082.33,943.00
1084,963.45,2358.82,62.24,2083.33,939.00
1086,963.75,2362.07,3.64,2066.67,956.00
1088,964.05,2365.32,0.00,2067.67,974.33
1090,964.35,2368.56,0.00,2038.67,957.00
1092,964.65,2371.80,0.01,2040.33,957.00
1094,964.95,2375.04,19.82,2046.67,952.33
1096,965.25,2378.27,0.09,2015.00,941.67
1098,965.56,2381.51,0.00,2006.67,954.67
1100,965.86,2384.73,35.44,2044.67,950.67
1102,966.16,2387.96,16.90,2026.33,952.67
1104,966.46,2391.18,25.92,2041.00,962.33
1106,966.76,2394.40,28.69,2024.33,949.33
1108,967.06,2397.62,15.29,2027.00,965.33
1110,967.36,2400.83,50.90,2015.67,935.67
1112,967.66,2404.04,42.64,2044.00,967.67
1114,967.96,2407.25,20.18,1997.33,935.67
1116,968.26,2410.45,19.87,2007.00,951.33
1118,968.56,2413.65,78.10,2023.33,939.00
1120,968.86,2416.85,82.51,2061.33,974.67
1122,969.16,2420.04,60.48,2022.33,949.00
1124,969.46,2423.23,86.94,2026.33,943.00
1126,969.76,2426.42,98.95,2043.33,955.33
1128,970.06,2429.60,87.00,2020.33,941.33
1130,970.36,2432.79,132.45,2058.67,956.67
1132,970.66,2435.96,127.03,2039.33,947.67
1134,970.96,2439.14,129.41,2033.67,944.33
1136,971.26,2442.31,117.87,2039.00,957.33
1138,971.56,2445.48,88.69,2013.33,952.00
1140,971.86,2448.65,73.46,1992.00,948.33
1142,972.16,2451.81,79.64,2003.00,960.67
1144,972.45,2454.97,40.13,1972.00,953.33
1146,972.75,2458.13,18.40,1957.33,951.67
1148,973.05,2461.28,0.00,1927.00,948.67
1150,973.35,2464.43,0.00,1929.00,950.67
1152,973.65,2467.58,11.09,1939.00,954.00
1154,973.95,2470.72,0.00,1930.33,955.67
1156,974.24,2473.86,17.76,1933.33,945.00
1158,974.54,2477.00,0.00,1914.00,940.33
1160,974.84,2480.13,2.10,1934.00,960.00
1162,975.14,2483.27,48.05,1945.00,949.67
1164,975.43,2486.40,11.52,1917.67,941.00
1166,975.73,2489.52,31.36,1937.33,947.00
1168,976.03,2492.64,17.43,1921.33,945.67
1170,976.33,2495.76,14.18,1929.00,957.33
1172,976.62,2498.88,0.00,1909.33,946.67
1174,976.92,2501.99,0.00,1927.67,967.00
1176,977.22,2505.10,0.00,1910.67,963.00
1178,977.51,2508.21,0.72,1914.33,950.67
1180,977.81,2511.31,0.00,1917.33,954.00
1182,978.11,2514.41,0.00,1909.67,947.67
1184,978.40,2517.51,0.00,1918.67,953.33
1186,978.70,2520.61,10.70,1941.00,952.67
1188,979.00,2523.70,0.16,1951.33,964.00
1190,979.29,2526.79,28.08,1953.00,943.67
1192,979.59,2529.87,0.00,1953.67,955.00
1194,979.88,2532.95,0.03,1951.00,937.33
1196,980.18,2536.03,0.00,1980.00,960.00
1198,980.48,2539.11,1.92,2005.67,967.67
1200,980.77,2542.18,19.22,2011.67,954.67
1202,981.07,2545.25,38.93,2042.00,969.33
1204,981.36,2548.32,44.47,2039.33,952.00
1206,981.66,2551.38,9.08,2058.67,969.67
1208,981.95,2554.44,4.97,2065.67,962.00
1210,982.25,2557.50,1.38,2077.67,969.00
1212,982.54,2560.56,53.22,2118.00,976.00
1214,982.84,2563.61,29.68,2131.67,979.67
1216,983.13,2566.66,0.90,2117.33,970.00
1218,983.43,2569.70,0.00,2111.33,971.33
1220,983.72,2572.74,0.00,2147.33,977.33
1222,984.01,2575.78,0.00,2144.67,960.00
1224,984.31,2578.82,68.90,2196.67,953.67
1226,984.60,2581.85,83.54,2217.33,958.67
1228,984.90,2584.88,98.15,2236.33,946.67
1230,985.19,2587.91,149.61,2293.33,957.67
1232,985.48,2590.93,193.31,2334.00,971.00
1234,985.78,2593.96,248.56,2363.67,969.00
1236,986.07,2596.97,343.96,2411.00,963.33
1238,986.36,2599.99,317.24,2429.00,977.33
1240,986.66,2603.00,254.60,2420.00,976.67
1242,986.95,2606.01,188.23,2405.67,979.67
1244,987.24,2609.01,179.63,2403.00,972.33
1246,987.54,2612.02,154.88,2363.00,934.33
1248,987.83,2615.02,95.40,2382.00,968.33
1250,988.12,2618.01,85.67,2399.00,976.00
1252,988.41,2621.01,65.01,2388.33,965.33
1254,988.71,2624.00,84.94,2392.00,950.67
1256,989.00,2626.99,70.31,2406.67,962.00
1258,989.29,2629.97,65.92,2420.67,966.33
1260,989.58,2632.95,91.09,2439.00,962.67
1262,989.87,2635.93,33.79,2429.67,969.33
1264,990.16,2638.91,42.95,2429.00,953.67
1266,990.46,2641.88,67.58,2475.67,976.67
1268,990.75,2644.85,42.95,2485.00,993.67
1270,991.04,2647.81,162.04,2510.00,961.33
1272,991.33,2650.78,265.35,2562.67,969.33
1274,991.62,2653.74,258.84,2566.67,961.67
1276,991.91,2656.70,349.33,2608.00,955.00
1278,992.20,2659.65,487.22,2679.00,967.67
1280,992.49,2662.60,613.53,2722.00,956.33
1282,992.78,2665.55,799.06,2826.67,983.00
1284,993.07,2668.50,925.02,2880.00,985.00
1286,993.36,2671.44,991.55,2906.00,979.67
1288,993.65,2674.38,1066.52,2944.67,984.67
1290,993.94,2677.31,1110.53,2948.00,967.00
1292,994.23,2680.25,1100.03,2949.67,964.67
1294,994.52,2683.18,1088.95,2953.33,965.33
1296,994.81,2686.10,1133.18,2973.67,969.33
1298,995.10,2689.03,1203.44,2998.33,972.33
1300,995.39,2691.95,1283.30,3027.67,967.67
1302,995.68,2694.87,1333.71,3080.33,988.00
1304,995.97,2697.78,1477.17,3138.33,972.33
1306,996.26,2700.70,1660.05,3203.33,958.67
1308,996.55,2703.61,2022.51,3351.33,965.33
1310,996.84,2706.51,2480.78,3543.00,984.00
1312,997.13,2709.42,3000.95,3721.00,970.33
1314,997.41,2712.32,3514.25,3911.00,974.00
1316,997.70,2715.21,3943.09,4069.00,961.33
1318,997.99,2718.11,4221.24,4200.67,964.33
1320,998.28,2721.00,4616.40,4349.33,960.67
1322,998.57,2723.89,5085.27,4501.33,977.33
1324,998.86,2726.77,5602.63,4612.33,953.33
1326,999.14,2729.66,5606.82,4585.00,962.00
1328,999.43,2732.54,5419.00,4512.67,958.00
1330,999.72,2735.41,4611.80,4238.00,961.33
1332,1000.01,2738.29,3860.25,3995.00,980.33
1334,1000.29,2741.16,3030.12,3670.67,963.33
1336,1000.58,2744.03,2495.60,3458.67,955.00
1338,1000.87,2746.89,1901.45,3252.00,980.33
1340,1001.15,2749.75,1426.89,3049.67,963.33
1342,1001.44,2752.61,959.50,2871.33,968.33
1344,1001.73,2755.47,665.53,2747.67,961.33
1346,1002.01,2758.32,435.57,2661.33,963.33
1348,1002.30,2761.17,216.20,2608.00,988.00
1350,1002.59,2764.02,84.30,2556.00,975.33
1352,1002.87,2766.86,14.15,2516.67,963.33
1354,1003.16,2769.70,0.13,2486.33,962.67
1356,1003.44,2772.54,0.00,2451.00,955.00
1358,1003.73,2775.38,0.00,2456.33,966.00
1360,1004.01,2778.21,0.00,2458.00,957.67
1362,1004.30,2781.04,0.00,2475.67,967.67
1364,1004.58,2783.87,0.00,2470.33,960.00
1366,1004.87,2786.69,0.00,2508.00,947.33
1368,1005.15,2789.51,0.00,2550.67,969.67
1370,1005.44,2792.33,0.00,2589.67,977.33
1372,1005.72,2795.14,0.00,2635.67,972.00
1374,1006.01,2797.95,0.00,2688.67,975.33
1376,1006.29,2800.76,0.00,2776.00,962.00
1378,1006.58,2803.57,0.00,2895.33,981.67
1380,1006.86,2806.37,0.00,2961.00,955.67
1382,1007.14,2809.17,0.00,3081.00,962.00
1384,1007.43,2811.97,14.60,3229.33,953.67
1386,1007.71,2814.77,260.95,3461.00,952.00
1388,1008.00,2817.56,902.24,3691.33,952.00
1390,1008.28,2820.35,1841.11,3959.33,965.67
1392,1008.56,2823.13,2837.39,4260.67,966.67
1394,1008.85,2825.91,4127.42,4683.00,970.00
1396,1009.13,2828.69,5690.55,5199.33,974.00
1398,1009.41,2831.47,7693.70,5884.67,980.00
1400,1009.69,2834.24,10110.49,6739.00,951.33
1402,1009.98,2837.02,14009.37,8191.33,964.33
1404,1010.26,2839.78,20154.72,10312.67,978.00
1406,1010.54,2842.55,30572.06,13377.33,963.33
1408,1010.82,2845.31,47134.02,17554.00,968.33
1410,1011.11,2848.07,65749.80,21727.67,981.00
1412,1011.39,2850.83,78494.99,24640.33,987.33
1414,1011.67,2853.58,81641.02,25742.33,976.00
1416,1011.95,2856.33,79405.51,25647.33,968.00
1418,1012.23,2859.08,76290.67,25108.67,976.67
1420,1012.51,2861.83,73215.23,24346.67,960.33
1422,1012.80,2864.57,71339.01,23844.67,999.33
1424,1013.08,2867.31,71489.52,23647.33,993.00
1426,1013.36,2870.04,74432.93,23985.33,985.33
1428,1013.64,2872.78,77592.14,24379.00,978.33
1430,1013.92,2875.51,78540.59,24516.67,1002.67
1432,1014.20,2878.24,76987.16,24190.00,977.00
1434,1014.48,2880.96,76172.73,23997.33,973.00
1436,1014.76,2883.68,77550.01,24135.67,962.67
1438,1015.04,2886.40,79745.03,24383.00,961.33
1440,1015.32,2889.12,81691.85,24659.00,987.33
1442,1015.60,2891.83,82546.86,24709.67,968.33
1444,1015.88,2894.54,82750.20,24660.33,980.33
1446,1016.16,2897.25,83364.80,24657.67,949.33
1448,1016.44,2899.96,83565.47,24590.33,983.67
1450,1016.72,2902.66,84254.52,24585.00,980.33
1452,1017.00,2905.36,84730.08,24523.67,994.00
1454,1017.28,2908.06,85050.12,24371.33,962.00
1456,1017.55,2910.75,85230.58,24241.67,991.67
1458,1017.83,2913.44,84902.94,23952.00,964.00
1460,1018.11,2916.13,84227.83,23683.67,980.00
1462,1018.39,2918.81,82694.30,23229.33,981.00
1464,1018.67,2921.49,81827.17,22899.67,974.67
1466,1018.95,2924.17,81235.40,22596.67,974.67
1468,1019.22,2926.85,81182.12,22403.67,988.67
1470,1019.50,2929.52,81123.85,22113.33,955.00
1472,1019.78,2932.20,80962.48,21776.00,956.00
1474,1020.06,2934.86,79807.01,21218.67,970.00
1476,1020.33,2937.53,77238.58,20431.00,991.33
1478,1020.61,2940.19,72185.00,19220.33,971.00
1480,1020.89,2942.85,64232.16,17570.33,981.00
1482,1021.17,2945.51,56594.74,15984.33,964.67
1484,1021.44,2948.16,50196.43,14580.00,968.33
1486,1021.72,2950.81,46075.87,13553.67,966.67
1488,1022.00,2953.46,43599.67,12821.33,987.67
1490,1022.27,2956.11,42787.20,12378.00,971.67
1492,1022.55,2958.75,41576.25,11919.33,991.67
1494,1022.82,2961.39,39675.55,11364.33,974.33
1496,1023.10,2964.03,36369.42,10631.33,987.33
1498,1023.38,2966.66,32686.44,9835.33,961.33
1500,1023.65,2969.29,28343.70,8965.33,979.00
1502,1023.93,2971.92,23863.40,8038.67,985.33
1504,1024.20,2974.55,20478.35,7304.33,979.00
1506,1024.48,2977.17,17044.64,6580.00,986.00
1508,1024.75,2979.79,13812.41,5877.00,960.67
1510,1025.03,2982.41,11467.13,5372.67,964.33
1512,1025.30,2985.02,9495.24,4924.33,958.00
1514,1025.58,2987.63,7875.86,4590.67,976.00
1516,1025.85,2990.24,6201.93,4239.33,968.33
1518,1026.13,2992.85,4780.67,3950.00,976.33
1520,1026.40,2995.45,3874.61,3740.33,969.67
1522,1026.68,2998.05,2907.25,3525.00,965.67
1524,1026.95,3000.65,2237.72,3406.00,980.00
1526,1027.22,3003.25,1261.20,3216.67,970.00
1528,1027.50,3005.84,707.90,3061.00,958.67
1530,1027.77,3008.43,323.48,2916.00,975.33
1532,1028.04,3011.02,165.72,2792.67,983.00
1534,1028.32,3013.60,36.35,2644.00,970.67
1536,1028.59,3016.18,21.79,2552.67,972.67
1538,1028.86,3018.76,0.00,2382.00,942.33
1540,1029.14,3021.34,0.00,2282.67,969.33
1542,1029.41,3023.91,0.00,2185.67,956.33
1544,1029.68,3026.48,0.00,2107.33,952.67
1546,1029.95,3029.05,0.00,2032.00,969.00
1548,1030.22,3031.61,0.00,1960.67,963.33
1550,1030.50,3034.17,0.00,1891.33,953.67
1552,1030.77,3036.73,0.00,1822.33,955.00
1554,1031.04,3039.29,0.00,1808.67,975.33
1556,1031.31,3041.84,0.00,1736.67,946.33
1558,1031.58,3044.39,0.00,1751.00,989.67
1560,1031.85,3046.94,0.00,1710.33,980.33
1562,1032.13,3049.49,0.00,1648.33,955.00
1564,1032.40,3052.03,0.00,1646.00,981.67
1566,1032.67,3054.57,0.00,1591.67,959.33
1568,1032.94,3057.11,0.00,1591.67,986.33
1570,1033.21,3059.64,0.00,1534.67,954.33
1572,1033.48,3062.18,0.00,1530.33,974.00
1574,1033.75,3064.70,14.02,1518.67,971.00
1576,1034.02,3067.23,0.00,1499.33,978.00
1578,1034.29,3069.75,32.49,1461.33,950.00
1580,1034.56,3072.28,14.85,1469.33,979.00
1582,1034.83,3074.79,8.14,1422.67,950.67
1584,1035.10,3077.31,18.02,1426.67,970.00
1586,1035.37,3079.82,83.43,1402.67,954.00
1588,1035.64,3082.33,0.00,1406.67,995.33
1590,1035.91,3084.84,50.11,1391.67,971.67
1592,1036.17,3087.34,14.51,1363.00,960.67
1594,1036.44,3089.85,28.64,1390.67,998.00
1596,1036.71,3092.35,83.90,1351.33,962.67
1598,1036.98,3094.84,0.00,1320.67,960.67
1600,1037.25,3097.34,54.08,1319.00,955.67
1602,1037.52,3099.83,143.30,1330.33,966.00
1604,1037.78,3102.32,79.99,1313.67,962.33
1606,1038.05,3104.80,4.44,1311.00,978.33
1608,1038.32,3107.29,21.15,1290.33,961.33
1610,1038.59,3109.77,7.49,1284.00,966.00
1612,1038.85,3112.24,51.94,1275.00,959.33
1614,1039.12,3114.72,0.00,1280.33,980.00
1616,1039.39,3117.19,16.57,1244.33,944.33
1618,1039.66,3119.66,4.11,1270.33,978.33
1620,1039.92,3122.13,55.48,1273.33,980.67
1622,1040.19,3124.59,0.00,1250.00,970.00
1624,1040.45,3127.05,5.57,1231.00,954.00
1626,1040.72,3129.51,34.95,1254.33,977.67
1628,1040.99,3131.97,0.00,1240.33,977.67
1630,1041.25,3134.42,6.15,1253.67,989.00
1632,1041.52,3136.87,51.11,1222.33,956.33
1634,1041.78,3139.32,0.00,1220.67,965.67
1636,1042.05,3141.77,156.07,1288.67,1016.67
1638,1042.32,3144.21,2.42,1221.00,968.67
1640,1042.58,3146.65,0.00,1234.00,992.33
1642,1042.85,3149.09,0.00,1222.67,977.33
1644,1043.11,3151.52,102.33,1224.67,968.33
1646,1043.38,3153.96,65.01,1229.00,979.67
1648,1043.64,3156.39,12.65,1211.67,968.67
1650,1043.90,3158.81,64.01,1216.00,969.67
1652,1044.17,3161.24,8.06,1224.67,985.67
1654,1044.43,3163.66,103.40,1202.67,951.00
1656,1044.70,3166.08,65.97,1235.33,991.67
1658,1044.96,3168.49,203.96,1222.33,969.67
1660,1045.22,3170.91,186.36,1215.67,967.67
1662,1045.49,3173.32,78.58,1207.67,968.67
1664,1045.75,3175.73,116.98,1222.67,978.67
1666,1046.01,3178.13,75.26,1202.00,966.00
1668,1046.28,3180.54,152.23,1226.00,985.67
1670,1046.54,3182.94,249.35,1231.33,983.00
1672,1046.80,3185.34,151.92,1217.67,978.33
1674,1047.07,3187.73,208.73,1211.67,969.00
1676,1047.33,3190.12,340.49,1221.00,971.67
1678,1047.59,3192.51,219.49,1213.33,977.67
1680,1047.85,3194.90,362.33,1241.00,992.00
1682,1048.11,3197.29,164.58,1222.00,992.67
1684,1048.38,3199.67,354.44,1227.67,982.33
1686,1048.64,3202.05,360.47,1227.00,987.33
1688,1048.90,3204.43,420.44,1211.00,969.33
1690,1049.16,3206.80,514.83,1218.33,967.33
1692,1049.42,3209.17,293.91,1213.33,984.67
1694,1049.68,3211.54,672.17,1222.00,966.33
1696,1049.94,3213.91,512.06,1212.00,974.33
1698,1050.20,3216.27,571.97,1219.67,976.67
1700,1050.46,3218.63,498.99,1235.67,997.33
1702,1050.72,3220.99,589.67,1227.67,982.33
1704,1050.98,3223.35,580.55,1221.00,981.67
1706,1051.24,3225.70,724.13,1221.67,976.67
1708,1051.50,3228.05,868.44,1209.00,957.67
1710,1051.76,3230.40,827.34,1237.00,991.00
1712,1052.02,3232.75,811.13,1219.67,974.67
1714,1052.28,3235.09,693.21,1229.67,993.33
1716,1052.54,3237.43,650.32,1205.67,974.00
1718,1052.80,3239.77,826.77,1211.00,968.67
1720,1053.06,3242.11,872.30,1221.00,981.00
1722,1053.32,3244.44,1052.09,1206.33,958.33
1724,1053.58,3246.77,1264.47,1255.33,994.33
1726,1053.84,3249.10,1025.29,1215.33,971.33
1728,1054.10,3251.42,871.19,1221.00,989.00
1730,1054.35,3253.75,947.44,1211.33,976.33
1732,1054.61,3256.07,1030.74,1226.33,988.67
1734,1054.87,3258.39,1044.98,1215.67,979.67
1736,1055.13,3260.70,1151.19,1209.67,969.00
1738,1055.38,3263.01,1226.06,1211.00,969.00
1740,1055.64,3265.32,1227.62,1214.33,975.67
1742,1055.90,3267.63,1153.45,1191.33,959.00
1744,1056.16,3269.94,1081.57,1220.00,992.67
1746,1056.41,3272.24,1085.85,1221.67,995.67
1748,1056.67,3274.54,1253.64,1208.33,975.00
1750,1056.93,3276.84,1271.43,1209.33,979.00
1752,1057.18,3279.13,991.29,1186.00,976.00
1754,1057.44,3281.42,1169.57,1185.33,965.00
1756,1057.69,3283.71,1045.38,1186.67,976.00
1758,1057.95,3286.00,1109.92,1204.67,991.67
1760,1058.21,3288.28,991.62,1175.33,972.67
1762,1058.46,3290.57,1319.03,1205.67,986.33
1764,1058.72,3292.85,1173.50,1191.67,984.67
1766,1058.97,3295.12,1291.14,1173.33,960.67
1768,1059.23,3297.40,1176.79,1175.00,969.67
1770,1059.48,3299.67,1113.23,1183.33,983.67
1772,1059.74,3301.94,1130.51,1160.00,962.67
1774,1059.99,3304.21,1230.52,1187.33,986.67
1776,1060.25,3306.47,1079.41,1186.00,994.67
1778,1060.50,3308.73,914.02,1153.67,973.00
1780,1060.76,3310.99,1021.40,1157.33,973.00
1782,1061.01,3313.25,1104.98,1163.33,977.67
1784,1061.26,3315.50,1086.14,1153.00,971.33
1786,1061.52,3317.76,1165.60,1164.67,981.00
1788,1061.77,3320.01,1203.17,1166.67,982.33
1790,1062.02,3322.25,1085.50,1145.00,967.67
1792,1062.28,3324.50,1052.63,1150.67,976.00
1794,1062.53,3326.74,965.80,1126.00,957.67
1796,1062.78,3328.98,951.45,1141.67,976.33
1798,1063.04,3331.22,918.50,1133.00,972.00
1800,1063.29,3333.45,1168.15,1137.33,965.67
1802,1063.54,3335.68,1118.21,1135.33,967.33
1804,1063.79,3337.91,1022.45,1151.33,989.33
1806,1064.05,3340.14,1176.14,1167.00,1000.00
1808,1064.30,3342.36,1261.52,1125.67,958.67
1810,1064.55,3344.59,1164.94,1146.33,986.33
1812,1064.80,3346.81,1417.68,1138.67,965.33
1814,1065.05,3349.02,1060.09,1128.33,970.33
1816,1065.30,3351.24,937.66,1138.33,988.33
1818,1065.55,3353.45,1209.31,1129.00,971.00
1820,1065.81,3355.66,1136.40,1148.00,997.00
1822,1066.06,3357.87,851.09,1110.00,972.33
1824,1066.31,3360.07,1228.30,1107.67,953.00
1826,1066.56,3362.27,952.47,1125.33,985.33
1828,1066.81,3364.47,1051.18,1102.67,960.67
1830,1067.06,3366.67,1122.60,1115.33,972.00
1832,1067.31,3368.87,1041.60,1113.00,974.00
1834,1067.56,3371.06,814.11,1077.67,949.33
1836,1067.81,3373.25,1024.61,1092.33,955.67
1838,1068.06,3375.44,842.66,1093.00,965.33
1840,1068.31,3377.62,930.17,1094.33,964.33
1842,1068.56,3379.81,805.78,1080.33,958.67
1844,1068.80,3381.99,1396.02,1138.67,996.67
1846,1069.05,3384.16,1135.51,1106.67,975.00
1848,1069.30,3386.34,832.04,1087.33,966.67
1850,1069.55,3388.51,958.14,1093.67,968.67
1852,1069.80,3390.68,1204.61,1099.33,968.33
1854,1070.05,3392.85,1326.87,1128.33,996.00
1856,1070.30,3395.02,1116.80,1095.67,971.33
1858,1070.54,3397.18,947.10,1080.00,961.33
1860,1070.79,3399.34,769.69,1084.00,973.00
1862,1071.04,3401.50,897.16,1086.33,972.67
1864,1071.29,3403.66,1045.67,1067.00,951.33
1866,1071.53,3405.81,1294.74,1098.67,977.00
1868,1071.78,3407.96,1188.35,1084.33,966.00
1870,1072.03,3410.11,851.01,1081.67,973.67
1872,1072.27,3412.26,747.30,1078.67,974.33
1874,1072.52,3414.40,1011.97,1079.00,966.67
1876,1072.77,3416.54,996.53,1076.00,967.67
1878,1073.01,3418.68,1130.75,1091.00,980.33
1880,1073.26,3420.82,959.44,1043.33,939.67
1882,1073.51,3422.96,1295.96,1082.67,968.33
1884,1073.75,3425.09,821.29,1070.00,972.33
1886,1074.00,3427.22,1037.77,1054.33,951.00
1888,1074.24,3429.35,1201.28,1091.00,985.33
1890,1074.49,3431.47,1197.52,1064.67,961.00
1892,1074.73,3433.59,803.94,1044.33,952.00
1894,1074.98,3435.71,1105.41,1088.67,983.67
1896,1075.22,3437.83,630.37,1062.33,973.33
1898,1075.47,3439.95,777.53,1071.00,978.00
1900,1075.71,3442.06,651.48,1071.33,986.00
1902,1075.96,3444.17,922.62,1060.00,970.00
1904,1076.20,3446.28,1060.58,1021.67,930.67
1906,1076.44,3448.38,1331.17,1089.33,990.67
1908,1076.69,3450.49,706.58,1061.33,978.33
1910,1076.93,3452.59,618.44,1059.33,978.33
1912,1077.17,3454.69,882.51,1049.67,962.00
1914,1077.42,3456.79,824.69,1057.00,974.33
1916,1077.66,3458.88,765.51,1041.33,962.00
1918,1077.90,3460.97,655.20,1038.67,962.67
1920,1078.15,3463.06,622.56,1062.00,987.00
1922,1078.39,3465.15,668.39,1050.67,974.67
1924,1078.63,3467.23,416.60,1015.00,947.00
1926,1078.87,3469.32,956.37,1059.00,977.00
1928,1079.12,3471.40,781.90,1032.33,957.67
1930,1079.36,3473.47,1019.72,1077.33,998.67
1932,1079.60,3475.55,669.28,1028.33,957.67
1934,1079.84,3477.62,548.14,1043.00,973.67
1936,1080.08,3479.69,329.63,1031.33,968.33
1938,1080.33,3481.76,396.11,1022.67,959.33
1940,1080.57,3483.83,944.52,1047.00,973.00
1942,1080.81,3485.89,998.96,1042.33,970.33
1944,1081.05,3487.95,886.28,1050.67,981.00
1946,1081.29,3490.01,764.97,1043.33,974.33
1948,1081.53,3492.07,49.82,1015.67,965.33
1950,1081.77,3494.12,451.36,1026.67,965.33
1952,1082.01,3496.18,293.19,1033.00,977.67
1954,1082.25,3498.23,708.02,1024.00,960.67
1956,1082.49,3500.27,924.84,1032.33,967.00
1958,1082.73,3502.32,1220.25,1023.00,952.67
1960,1082.97,3504.36,573.43,1038.00,979.67
1962,1083.21,3506.40,471.09,1016.33,958.33
1964,1083.45,3508.44,301.77,1004.33,951.33
1966,1083.69,3510.48,385.23,1042.67,990.00
1968,1083.93,3512.51,1004.04,1032.00,970.33
1970,1084.16,3514.54,1038.96,1026.00,965.00
1972,1084.40,3516.57,415.67,1017.33,966.67
1974,1084.64,3518.60,519.07,1008.33,953.00
1976,1084.88,3520.62,307.07,1026.33,977.33
1978,1085.12,3522.65,557.51,1044.67,991.67
1980,1085.36,3524.67,639.55,1018.00,966.33
1982,1085.59,3526.68,627.92,1006.33,956.33
1984,1085.83,3528.70,486.70,1031.67,984.33
1986,1086.07,3530.71,761.66,1010.67,957.00
1988,1086.31,3532.72,355.48,1023.33,978.33
1990,1086.54,3534.73,468.65,1001.33,954.67
1992,1086.78,3536.74,755.97,1039.33,988.67
1994,1087.02,3538.74,1002.73,1028.33,975.33
1996,1087.25,3540.74,362.05,995.00,954.00
1998,1087.49,3542.74,713.44,1012.67,965.33
2000,1087.73,3544.74,499.77,1014.67,969.67
2002,1087.96,3546.74,0.00,1008.33,975.00
2004,1088.20,3548.73,437.33,1025.33,981.00
2006,1088.43,3550.72,583.17,1017.33,973.00
2008,1088.67,3552.71,1248.99,1010.33,958.00
2010,1088.90,3554.69,788.71,993.67,950.00
2012,1089.14,3556.68,936.57,1018.33,972.00
2014,1089.38,3558.66,720.37,996.33,952.67
2016,1089.61,3560.64,501.83,996.67,956.33
2018,1089.84,3562.62,577.04,1019.00,976.67
2020,1090.08,3564.59,426.30,998.67,960.00
2022,1090.31,3566.56,255.65,991.00,957.00
2024,1090.55,3568.53,1308.42,1003.33,953.67
2026,1090.78,3570.50,728.38,981.00,942.33
2028,1091.02,3572.47,744.52,986.33,948.33
2030,1091.25,3574.43,1198.90,991.67,947.33
2032,1091.48,3576.39,787.09,967.00,926.00
2034,1091.72,3578.35,432.54,974.00,935.33
2036,1091.95,3580.31,67.63,982.67,953.33
2038,1092.18,3582.26,206.14,964.67,931.00
2040,1092.42,3584.22,88.14,960.00,931.67
2042,1092.65,3586.17,1148.74,975.00,934.67
2044,1092.88,3588.12,957.54,971.00,929.67
2046,1093.11,3590.06,0.00,960.67,934.33
2047,1093.23,3591.03,30.33,955.00,923.67