File: src/enlighten/plugins/Raman/MatchingLibrary/785X/EDTA.csv
ENLIGHTEN Version,4.1.22
Measurement ID,20250220-202832-871368-WP-01977
Serial Number,WP-01977
Model,WP-785X-F13-R-ILC
Detector,S16011-1106
Label,EDTA
Declared Match,
Declared Score,0
Scan Averaging,1
Boxcar,0
Technique,Raman
Baseline Correction Algo,AirPLS
ROI Pixel Start,47
ROI Pixel End,2047
ROI Start Line,0
ROI Stop Line,63
CCD C4,1.38617e-12
Slit Width,25
Cropped,True
Interpolated,False
Wavenumber Correction,-0.100481
Raman Intensity Corrected,True
Deconvolved,True
Region,
High Gain Mode,False
Laser Power mW,
Electrical Dark Correction,False
Battery %,
Device ID,<DeviceID USB:0x24aa:0x1000:0:1>
FW Version,10.0.0.10
FPGA Version,035-001
BLE Version,
Prefix,enlighten
Suffix,
Preset,
Auto-Raman,True
Session Count,0
Plugin Name,
Integration Time,1134
Timestamp,2025-02-20 20:28:32.8714
Note,
Temperature,0
CCD C0,793.274
CCD C1,0.153259
CCD C2,1.40788e-05
CCD C3,-1.132e-08
CCD Offset,0
CCD Gain,1.9
CCD Offset Odd,0
CCD Gain Odd,1.9
Laser Wavelength,785.032
Laser Enable,False
Laser Power %,0
Laser Temperature,0
Pixel Count,2048

Pixel,Wavelength,Wavenumber,Processed,Raw,Dark
0,793.27,132.25,NA,1177.00,1093.00
2,793.58,137.12,NA,1230.00,1146.00
4,793.89,141.99,NA,1201.00,1120.00
6,794.19,146.86,NA,1211.00,1129.00
8,794.50,151.72,NA,1232.00,1140.00
10,794.81,156.58,NA,1216.00,1161.00
12,795.12,161.44,NA,1188.00,1104.00
14,795.42,166.30,NA,1213.00,1108.00
16,795.73,171.16,NA,1197.00,1120.00
18,796.04,176.01,NA,1268.00,1163.00
20,796.35,180.86,NA,1256.00,1154.00
22,796.65,185.71,NA,1308.00,1209.00
24,796.96,190.56,NA,1268.00,1154.00
26,797.27,195.41,NA,1308.00,1190.00
28,797.58,200.25,NA,1294.00,1184.00
30,797.88,205.09,NA,1271.00,1158.00
32,798.19,209.93,NA,1273.00,1156.00
34,798.50,214.77,NA,1308.00,1156.00
36,798.81,219.60,NA,1308.00,1137.00
38,799.12,224.43,NA,1478.00,1163.00
40,799.43,229.27,NA,2293.00,1205.00
42,799.74,234.09,NA,4873.00,1194.00
44,800.04,238.92,NA,7813.00,1249.00
46,800.35,243.75,NA,7569.00,1167.00
48,800.66,248.57,398.13,6811.00,1215.00
50,800.97,253.39,0.00,6281.00,1209.00
52,801.28,258.21,0.00,6147.00,1205.00
54,801.59,263.02,5.61,6361.00,1197.00
56,801.90,267.83,230.50,6619.00,1182.00
58,802.21,272.65,565.62,7039.00,1209.00
60,802.52,277.46,968.94,7455.00,1194.00
62,802.83,282.26,1147.61,7709.00,1243.00
64,803.14,287.07,959.10,7633.00,1247.00
66,803.45,291.87,926.19,7667.00,1218.00
68,803.76,296.67,1379.05,8174.00,1233.00
70,804.07,301.47,2209.77,8856.00,1207.00
72,804.38,306.26,1788.94,8470.00,1188.00
74,804.69,311.06,840.49,7493.00,1173.00
76,805.00,315.85,579.51,7111.00,1175.00
78,805.31,320.64,666.64,7217.00,1194.00
80,805.62,325.42,999.10,7728.00,1196.00
82,805.93,330.21,1867.88,9032.00,1211.00
84,806.24,334.99,3399.53,11109.00,1158.00
86,806.55,339.77,5794.09,14044.00,1186.00
88,806.86,344.55,8092.23,16482.00,1226.00
90,807.17,349.32,7533.09,15903.00,1182.00
92,807.48,354.10,4863.75,13053.00,1199.00
94,807.80,358.87,2712.64,10319.00,1228.00
96,808.11,363.63,1609.49,8586.00,1192.00
98,808.42,368.40,1021.80,7635.00,1186.00
100,808.73,373.16,701.16,7100.00,1178.00
102,809.04,377.93,530.28,6819.00,1163.00
104,809.35,382.68,411.41,6644.00,1178.00
106,809.66,387.44,331.86,6504.00,1201.00
108,809.98,392.19,196.41,6281.00,1154.00
110,810.29,396.95,142.25,6243.00,1199.00
112,810.60,401.70,67.75,6067.00,1159.00
114,810.91,406.44,54.87,6038.00,1192.00
116,811.22,411.19,10.49,5978.00,1197.00
118,811.54,415.93,0.00,5883.00,1205.00
120,811.85,420.67,64.28,5940.00,1150.00
122,812.16,425.41,117.02,5940.00,1148.00
124,812.47,430.14,157.42,6006.00,1199.00
126,812.79,434.87,163.78,5959.00,1154.00
128,813.10,439.60,330.50,6114.00,1127.00
130,813.41,444.33,467.69,6357.00,1180.00
132,813.72,449.06,627.45,6764.00,1158.00
134,814.04,453.78,1472.76,8385.00,1175.00
136,814.35,458.50,4219.38,11840.00,1140.00
138,814.66,463.22,7488.76,14969.00,1148.00
140,814.98,467.93,5596.67,13759.00,1159.00
142,815.29,472.65,3466.12,11591.00,1169.00
144,815.60,477.36,4899.80,12943.00,1169.00
146,815.92,482.06,6257.39,14150.00,1142.00
148,816.23,486.77,6076.39,14027.00,1209.00
150,816.54,491.47,5158.48,12609.00,1226.00
152,816.86,496.17,2764.44,9520.00,1140.00
154,817.17,500.87,1071.71,7064.00,1156.00
156,817.48,505.57,445.71,5797.00,1137.00
158,817.80,510.26,184.18,5211.00,1137.00
160,818.11,514.95,80.31,5032.00,1177.00
162,818.42,519.64,5.83,4837.00,1163.00
164,818.74,524.32,0.00,4719.00,1156.00
166,819.05,529.00,0.00,4681.00,1197.00
168,819.37,533.68,0.00,4560.00,1188.00
170,819.68,538.36,2.13,4653.00,1192.00
172,819.99,543.04,95.18,4841.00,1188.00
174,820.31,547.71,347.66,5135.00,1175.00
176,820.62,552.38,661.23,5442.00,1120.00
178,820.94,557.05,840.47,5680.00,1150.00
180,821.25,561.71,672.34,5414.00,1112.00
182,821.57,566.37,333.06,4956.00,1135.00
184,821.88,571.03,185.83,4706.00,1146.00
186,822.20,575.69,65.28,4480.00,1161.00
188,822.51,580.34,22.77,4370.00,1144.00
190,822.83,584.99,39.46,4398.00,1159.00
192,823.14,589.64,160.23,4537.00,1159.00
194,823.46,594.29,317.50,4799.00,1156.00
196,823.77,598.93,740.76,5480.00,1171.00
198,824.09,603.57,1317.43,6338.00,1102.00
200,824.40,608.21,2272.95,7851.00,1163.00
202,824.72,612.85,3477.29,9412.00,1192.00
204,825.03,617.48,3939.26,9879.00,1180.00
206,825.35,622.11,3124.67,8810.00,1194.00
208,825.66,626.74,1648.09,6813.00,1196.00
210,825.98,631.36,589.44,5097.00,1133.00
212,826.29,635.99,222.21,4358.00,1152.00
214,826.61,640.61,32.91,3965.00,1175.00
216,826.92,645.22,0.00,3760.00,1137.00
218,827.24,649.84,0.00,3684.00,1120.00
220,827.56,654.45,0.00,3631.00,1177.00
222,827.87,659.06,0.00,3694.00,1180.00
224,828.19,663.67,0.00,3667.00,1180.00
226,828.50,668.27,0.00,3760.00,1260.00
228,828.82,672.87,39.72,3760.00,1188.00
230,829.13,677.47,121.75,3827.00,1137.00
232,829.45,682.06,166.21,3967.00,1159.00
234,829.77,686.66,281.26,4326.00,1275.00
236,830.08,691.25,626.76,4888.00,1159.00
238,830.40,695.83,1556.32,6302.00,1154.00
240,830.72,700.42,2784.50,7903.00,1154.00
242,831.03,705.00,3038.55,8430.00,1080.00
244,831.35,709.58,3005.70,8598.00,1154.00
246,831.66,714.15,3268.76,8575.00,1097.00
248,831.98,718.73,2413.45,7462.00,1169.00
250,832.30,723.30,1157.66,5716.00,1131.00
252,832.61,727.87,531.05,4632.00,1186.00
254,832.93,732.43,277.43,4013.00,1074.00
256,833.25,736.99,98.35,3724.00,1159.00
258,833.56,741.55,55.42,3641.00,1139.00
260,833.88,746.11,0.15,3502.00,1131.00
262,834.20,750.66,0.00,3466.00,1144.00
264,834.51,755.22,0.00,3489.00,1163.00
266,834.83,759.76,0.00,3477.00,1169.00
268,835.15,764.31,56.00,3608.00,1167.00
270,835.47,768.85,15.39,3504.00,1123.00
272,835.78,773.39,27.80,3567.00,1154.00
274,836.10,777.93,22.51,3544.00,1135.00
276,836.42,782.46,86.37,3631.00,1144.00
278,836.73,787.00,50.25,3589.00,1129.00
280,837.05,791.52,38.93,3563.00,1116.00
282,837.37,796.05,108.29,3700.00,1167.00
284,837.69,800.57,49.18,3584.00,1121.00
286,838.00,805.09,56.40,3605.00,1123.00
288,838.32,809.61,65.97,3616.00,1125.00
290,838.64,814.13,44.01,3624.00,1161.00
292,838.95,818.64,41.91,3593.00,1137.00
294,839.27,823.15,34.77,3586.00,1135.00
296,839.59,827.65,24.50,3599.00,1158.00
298,839.91,832.15,22.60,3557.00,1131.00
300,840.22,836.65,8.99,3643.00,1207.00
302,840.54,841.15,0.00,3517.00,1129.00
304,840.86,845.65,0.00,3544.00,1194.00
306,841.18,850.14,0.00,3538.00,1159.00
308,841.50,854.63,0.00,3665.00,1256.00
310,841.81,859.11,0.00,3569.00,1129.00
312,842.13,863.60,0.49,3669.00,1139.00
314,842.45,868.07,21.87,3762.00,1139.00
316,842.77,872.55,72.74,3906.00,1169.00
318,843.08,877.03,244.28,4303.00,1220.00
320,843.40,881.50,532.40,4774.00,1097.00
322,843.72,885.97,1048.79,6243.00,1184.00
324,844.04,890.43,2508.43,9830.00,1127.00
326,844.36,894.89,8047.72,18211.00,1159.00
328,844.67,899.35,16510.39,26540.00,1190.00
330,844.99,903.81,10605.26,22213.00,1127.00
332,845.31,908.26,4712.78,15652.00,1175.00
334,845.63,912.71,8698.80,20991.00,1169.00
336,845.95,917.16,18325.39,29251.00,1182.00
338,846.27,921.61,12246.04,23965.00,1644.00
340,846.58,926.05,3611.84,12634.00,1169.00
342,846.90,930.49,1416.98,7977.00,1167.00
344,847.22,934.92,1839.61,8415.00,1163.00
346,847.54,939.36,5016.10,12573.00,1106.00
348,847.86,943.79,8793.53,16717.00,1131.00
350,848.18,948.21,6236.12,15586.00,1129.00
352,848.49,952.64,5517.68,16026.00,1154.00
354,848.81,957.06,12308.73,23612.00,1093.00
356,849.13,961.48,15527.85,25664.00,1190.00
358,849.45,965.89,5931.13,15929.00,1182.00
360,849.77,970.31,1356.19,8045.00,1142.00
362,850.09,974.71,466.82,5507.00,1142.00
364,850.40,979.12,312.58,5146.00,1186.00
366,850.72,983.52,780.23,6407.00,1211.00
368,851.04,987.92,3570.93,10141.00,1102.00
370,851.36,992.32,6478.37,12537.00,1125.00
372,851.68,996.72,2542.01,9108.00,1156.00
374,852.00,1001.11,360.34,5547.00,1123.00
376,852.32,1005.50,28.60,4478.00,1106.00
378,852.63,1009.88,0.00,4269.00,1199.00
380,852.95,1014.26,0.00,4168.00,1148.00
382,853.27,1018.64,0.00,4205.00,1167.00
384,853.59,1023.02,0.00,4229.00,1110.00
386,853.91,1027.39,2.50,4383.00,1102.00
388,854.23,1031.76,116.41,4772.00,1116.00
390,854.55,1036.13,593.26,5828.00,1127.00
392,854.87,1040.49,2109.68,7895.00,1114.00
394,855.18,1044.86,3415.56,9161.00,1163.00
396,855.50,1049.21,1857.84,7764.00,1135.00
398,855.82,1053.57,599.94,6054.00,1165.00
400,856.14,1057.92,367.58,5440.00,1123.00
402,856.46,1062.27,439.20,5518.00,1129.00
404,856.78,1066.62,652.26,6093.00,1108.00
406,857.10,1070.96,1340.54,7918.00,1110.00
408,857.42,1075.30,3840.10,12313.00,1196.00
410,857.74,1079.64,9109.62,17869.00,1137.00
412,858.06,1083.97,8867.39,17714.00,1112.00
414,858.37,1088.30,3538.05,12138.00,1093.00
416,858.69,1092.63,1584.16,9306.00,1114.00
418,859.01,1096.95,2427.92,11409.00,1099.00
420,859.33,1101.27,8309.87,20051.00,1129.00
422,859.65,1105.59,17817.29,28710.00,1137.00
424,859.97,1109.91,11402.07,23307.00,1120.00
426,860.29,1114.22,3034.69,12609.00,1118.00
428,860.61,1118.53,1097.37,8140.00,1116.00
430,860.93,1122.84,806.90,7295.00,1120.00
432,861.25,1127.14,1353.43,8812.00,1171.00
434,861.56,1131.44,4604.36,13900.00,1116.00
436,861.88,1135.74,11184.62,19948.00,1129.00
438,862.20,1140.03,7266.99,16829.00,1158.00
440,862.52,1144.32,1541.51,9651.00,1144.00
442,862.84,1148.61,406.06,6769.00,1152.00
444,863.16,1152.89,182.65,5896.00,1125.00
446,863.48,1157.17,61.72,5663.00,1137.00
448,863.80,1161.45,0.83,5575.00,1135.00
450,864.12,1165.73,0.00,5571.00,1131.00
452,864.44,1170.00,0.00,5590.00,1112.00
454,864.76,1174.27,0.00,5613.00,1133.00
456,865.07,1178.53,0.00,5592.00,1093.00
458,865.39,1182.80,0.00,5748.00,1140.00
460,865.71,1187.06,0.00,5790.00,1127.00
462,866.03,1191.31,0.00,6008.00,1152.00
464,866.35,1195.57,0.00,6059.00,1131.00
466,866.67,1199.82,0.00,6357.00,1140.00
468,866.99,1204.06,0.00,6614.00,1140.00
470,867.31,1208.31,10.90,7028.00,1167.00
472,867.63,1212.55,241.10,7662.00,1139.00
474,867.95,1216.79,817.11,9167.00,1091.00
476,868.27,1221.02,2372.93,12662.00,1142.00
478,868.58,1225.25,7274.03,18942.00,1099.00
480,868.90,1229.48,11243.97,22557.00,1154.00
482,869.22,1233.71,5935.30,17951.00,1165.00
484,869.54,1237.93,1581.97,12235.00,1196.00
486,869.86,1242.15,341.79,9609.00,1121.00
488,870.18,1246.36,18.34,8778.00,1097.00
490,870.50,1250.58,0.00,8732.00,1135.00
492,870.82,1254.79,2.38,9154.00,1216.00
494,871.14,1258.99,147.97,9826.00,1144.00
496,871.46,1263.20,1042.24,11544.00,1163.00
498,871.78,1267.40,3069.40,13826.00,1110.00
500,872.10,1271.59,3564.48,14481.00,1118.00
502,872.41,1275.79,1530.21,12668.00,1118.00
504,872.73,1279.98,529.70,11316.00,1135.00
506,873.05,1284.17,241.51,10878.00,1156.00
508,873.37,1288.35,193.42,10802.00,1065.00
510,873.69,1292.53,439.24,11271.00,1110.00
512,874.01,1296.71,759.29,11861.00,1104.00
514,874.33,1300.88,1220.69,12907.00,1074.00
516,874.65,1305.06,2659.35,15324.00,1148.00
518,874.97,1309.22,5141.03,18874.00,1112.00
520,875.29,1313.39,6515.34,22374.00,1159.00
522,875.60,1317.55,10022.69,28861.00,1150.00
524,875.92,1321.71,19926.86,39992.00,1144.00
526,876.24,1325.87,22794.48,42897.00,1171.00
528,876.56,1330.02,14516.91,34517.00,1121.00
530,876.88,1334.17,10195.78,27914.00,1188.00
532,877.20,1338.32,6793.05,22426.00,1101.00
534,877.52,1342.46,3703.60,18192.00,1104.00
536,877.84,1346.60,3695.56,17816.00,1140.00
538,878.16,1350.73,6339.69,20089.00,1118.00
540,878.47,1354.87,6561.16,20187.00,1129.00
542,878.79,1359.00,3701.92,17416.00,1118.00
544,879.11,1363.13,2710.89,16271.00,1144.00
546,879.43,1367.25,3328.45,17116.00,1106.00
548,879.75,1371.37,5560.38,20159.00,1133.00
550,880.07,1375.49,8537.12,23988.00,1108.00
552,880.39,1379.60,9656.76,26447.00,1129.00
554,880.71,1383.71,10750.65,29034.00,1139.00
556,881.03,1387.82,14813.05,34498.00,1129.00
558,881.34,1391.93,17624.61,38570.00,1085.00
560,881.66,1396.03,19603.94,41332.00,1121.00
562,881.98,1400.13,22318.08,43536.00,1152.00
564,882.30,1404.22,17494.34,38209.00,1150.00
566,882.62,1408.31,11639.31,30993.00,1101.00
568,882.94,1412.40,10222.63,28112.00,1154.00
570,883.26,1416.49,9642.90,26824.00,1125.00
572,883.57,1420.57,9076.09,26731.00,1169.00
574,883.89,1424.65,10872.36,29055.00,1097.00
576,884.21,1428.73,15520.88,33038.00,1161.00
578,884.53,1432.80,14673.83,31493.00,1203.00
580,884.85,1436.87,6874.34,23331.00,1108.00
582,885.17,1440.93,2594.64,16970.00,1093.00
584,885.49,1445.00,1443.76,14369.00,1101.00
586,885.80,1449.06,1179.74,13638.00,1084.00
588,886.12,1453.11,1251.04,13991.00,1163.00
590,886.44,1457.17,2105.56,15812.00,1146.00
592,886.76,1461.22,4684.01,20438.00,1137.00
594,887.08,1465.26,10033.12,27702.00,1156.00
596,887.40,1469.31,18925.92,35722.00,1104.00
598,887.71,1473.35,17473.70,34450.00,1112.00
600,888.03,1477.38,5400.64,22655.00,1140.00
602,888.35,1481.42,1312.25,15443.00,1152.00
604,888.67,1485.45,659.17,13289.00,1139.00
606,888.99,1489.48,466.11,12546.00,1099.00
608,889.31,1493.50,329.48,12349.00,1150.00
610,889.62,1497.52,208.69,12159.00,1129.00
612,889.94,1501.54,182.34,12034.00,1089.00
614,890.26,1505.56,115.23,11954.00,1121.00
616,890.58,1509.57,16.36,11794.00,1150.00
618,890.90,1513.57,9.43,11675.00,1112.00
620,891.21,1517.58,79.36,11717.00,1139.00
622,891.53,1521.58,14.17,11546.00,1133.00
624,891.85,1525.58,84.34,11572.00,1127.00
626,892.17,1529.57,88.67,11496.00,1135.00
628,892.49,1533.57,107.71,11466.00,1148.00
630,892.80,1537.56,32.84,11248.00,1104.00
632,893.12,1541.54,57.31,11202.00,1110.00
634,893.44,1545.52,8.02,11138.00,1178.00
636,893.76,1549.50,0.00,10872.00,1093.00
638,894.07,1553.48,7.84,10957.00,1139.00
640,894.39,1557.45,0.00,10821.00,1104.00
642,894.71,1561.42,13.67,10881.00,1140.00
644,895.03,1565.39,61.60,10824.00,1082.00
646,895.34,1569.35,140.24,10895.00,1159.00
648,895.66,1573.31,188.79,10881.00,1106.00
650,895.98,1577.26,336.30,11045.00,1116.00
652,896.30,1581.22,374.03,11088.00,1097.00
654,896.61,1585.17,595.20,11439.00,1112.00
656,896.93,1589.11,1346.26,12275.00,1152.00
658,897.25,1593.06,2001.18,12848.00,1097.00
660,897.57,1597.00,1733.75,12778.00,1137.00
662,897.88,1600.93,1618.91,12776.00,1133.00
664,898.20,1604.87,2201.74,13311.00,1102.00
666,898.52,1608.80,2822.55,13733.00,1095.00
668,898.84,1612.72,2709.36,13514.00,1093.00
670,899.15,1616.65,1957.72,12761.00,1146.00
672,899.47,1620.57,1220.88,11741.00,1087.00
674,899.79,1624.49,959.67,11278.00,1106.00
676,900.10,1628.40,939.62,11096.00,1097.00
678,900.42,1632.31,892.44,11048.00,1146.00
680,900.74,1636.22,959.22,11088.00,1076.00
682,901.05,1640.12,1417.88,11757.00,1171.00
684,901.37,1644.02,2021.45,12449.00,1121.00
686,901.69,1647.92,2962.07,13623.00,1140.00
688,902.00,1651.82,3801.41,14464.00,1101.00
690,902.32,1655.71,4416.90,15117.00,1101.00
692,902.64,1659.60,4072.28,14845.00,1095.00
694,902.95,1663.48,3565.94,14363.00,1140.00
696,903.27,1667.36,3644.25,14253.00,1118.00
698,903.59,1671.24,3760.71,14097.00,1158.00
700,903.90,1675.11,3377.15,13425.00,1144.00
702,904.22,1678.99,2396.68,12254.00,1082.00
704,904.54,1682.85,1370.45,11064.00,1194.00
706,904.85,1686.72,946.81,10262.00,1095.00
708,905.17,1690.58,706.22,9818.00,1125.00
710,905.49,1694.44,577.67,9514.00,1095.00
712,905.80,1698.29,504.86,9342.00,1102.00
714,906.12,1702.15,446.78,9209.00,1123.00
716,906.43,1706.00,365.25,9051.00,1129.00
718,906.75,1709.84,248.08,8871.00,1163.00
720,907.07,1713.68,268.17,8795.00,1108.00
722,907.38,1717.52,159.66,8598.00,1127.00
724,907.70,1721.36,124.04,8453.00,1108.00
726,908.01,1725.19,71.86,8372.00,1120.00
728,908.33,1729.02,15.50,8275.00,1150.00
730,908.65,1732.85,4.20,8140.00,1127.00
732,908.96,1736.67,119.78,8189.00,1129.00
734,909.28,1740.49,17.86,8003.00,1104.00
736,909.59,1744.30,94.81,8091.00,1142.00
738,909.91,1748.12,123.03,7956.00,1120.00
740,910.22,1751.93,59.22,7851.00,1142.00
742,910.54,1755.73,75.98,7922.00,1226.00
744,910.85,1759.54,5.32,7675.00,1161.00
746,911.17,1763.34,5.66,7538.00,1106.00
748,911.49,1767.13,45.10,7527.00,1131.00
750,911.80,1770.93,0.00,7324.00,1101.00
752,912.12,1774.72,18.54,7371.00,1131.00
754,912.43,1778.50,78.94,7318.00,1072.00
756,912.75,1782.29,88.90,7276.00,1078.00
758,913.06,1786.07,3.67,7122.00,1082.00
760,913.38,1789.84,118.06,7269.00,1123.00
762,913.69,1793.62,163.59,7252.00,1142.00
764,914.01,1797.39,190.33,7200.00,1123.00
766,914.32,1801.15,285.00,7244.00,1102.00
768,914.64,1804.92,104.80,6995.00,1101.00
770,914.95,1808.68,90.46,6927.00,1118.00
772,915.26,1812.44,107.01,6906.00,1139.00
774,915.58,1816.19,86.96,6777.00,1085.00
776,915.89,1819.94,86.45,6758.00,1121.00
778,916.21,1823.69,164.15,6796.00,1133.00
780,916.52,1827.43,235.38,6847.00,1159.00
782,916.84,1831.17,169.83,6665.00,1089.00
784,917.15,1834.91,269.13,6718.00,1082.00
786,917.47,1838.64,310.00,6735.00,1129.00
788,917.78,1842.38,369.22,6733.00,1112.00
790,918.09,1846.10,343.38,6642.00,1108.00
792,918.41,1849.83,297.21,6551.00,1110.00
794,918.72,1853.55,196.60,6357.00,1074.00
796,919.04,1857.27,268.12,6416.00,1104.00
798,919.35,1860.98,321.46,6401.00,1108.00
800,919.66,1864.69,375.52,6401.00,1108.00
802,919.98,1868.40,294.03,6291.00,1118.00
804,920.29,1872.11,401.90,6340.00,1102.00
806,920.60,1875.81,417.83,6295.00,1097.00
808,920.92,1879.51,488.80,6327.00,1084.00
810,921.23,1883.20,536.85,6340.00,1121.00
812,921.55,1886.90,571.49,6272.00,1085.00
814,921.86,1890.58,557.25,6261.00,1131.00
816,922.17,1894.27,394.34,6050.00,1139.00
818,922.49,1897.95,389.33,6010.00,1154.00
820,922.80,1901.63,386.11,5919.00,1121.00
822,923.11,1905.31,384.96,5843.00,1108.00
824,923.42,1908.98,486.84,5917.00,1120.00
826,923.74,1912.65,464.18,5858.00,1131.00
828,924.05,1916.31,558.34,5847.00,1099.00
830,924.36,1919.98,616.24,5818.00,1072.00
832,924.68,1923.64,464.62,5649.00,1087.00
834,924.99,1927.29,433.32,5589.00,1095.00
836,925.30,1930.94,431.07,5501.00,1078.00
838,925.61,1934.59,471.79,5486.00,1102.00
840,925.93,1938.24,393.53,5378.00,1108.00
842,926.24,1941.88,361.98,5309.00,1108.00
844,926.55,1945.52,335.57,5199.00,1106.00
846,926.86,1949.16,421.54,5243.00,1120.00
848,927.18,1952.79,354.23,5108.00,1087.00
850,927.49,1956.42,320.16,5042.00,1099.00
852,927.80,1960.05,342.47,5146.00,1243.00
854,928.11,1963.67,313.85,4956.00,1127.00
856,928.42,1967.29,250.52,4833.00,1129.00
858,928.74,1970.91,352.28,4842.00,1093.00
860,929.05,1974.52,280.26,4736.00,1095.00
862,929.36,1978.13,340.60,4738.00,1080.00
864,929.67,1981.74,351.58,4710.00,1116.00
866,929.98,1985.35,292.19,4613.00,1121.00
868,930.29,1988.95,183.63,4468.00,1118.00
870,930.61,1992.54,131.92,4341.00,1102.00
872,930.92,1996.14,197.86,4345.00,1091.00
874,931.23,1999.73,156.41,4292.00,1131.00
876,931.54,2003.32,165.29,4246.00,1125.00
878,931.85,2006.90,139.85,4159.00,1110.00
880,932.16,2010.48,98.09,4058.00,1095.00
882,932.47,2014.06,140.15,4053.00,1101.00
884,932.78,2017.63,165.41,4041.00,1112.00
886,933.09,2021.21,63.43,3908.00,1120.00
888,933.41,2024.77,89.63,3897.00,1131.00
890,933.72,2028.34,115.44,3901.00,1148.00
892,934.03,2031.90,82.46,3791.00,1116.00
894,934.34,2035.46,129.80,3779.00,1116.00
896,934.65,2039.01,82.91,3669.00,1101.00
898,934.96,2042.57,74.95,3667.00,1139.00
900,935.27,2046.11,17.14,3591.00,1148.00
902,935.58,2049.66,0.00,3420.00,1061.00
904,935.89,2053.20,0.00,3434.00,1123.00
906,936.20,2056.74,0.01,3371.00,1097.00
908,936.51,2060.28,0.00,3303.00,1104.00
910,936.82,2063.81,30.05,3356.00,1137.00
912,937.13,2067.34,31.17,3305.00,1121.00
914,937.44,2070.86,19.76,3250.00,1104.00
916,937.75,2074.39,0.00,3168.00,1091.00
918,938.06,2077.91,50.89,3217.00,1102.00
920,938.37,2081.42,10.69,3149.00,1108.00
922,938.68,2084.94,0.00,3088.00,1099.00
924,938.99,2088.45,118.43,3170.00,1108.00
926,939.30,2091.95,6.19,3090.00,1142.00
928,939.60,2095.46,19.66,3056.00,1106.00
930,939.91,2098.96,79.87,3121.00,1152.00
932,940.22,2102.45,87.15,3048.00,1116.00
934,940.53,2105.95,149.30,3043.00,1091.00
936,940.84,2109.44,144.73,3035.00,1108.00
938,941.15,2112.92,77.45,2972.00,1137.00
940,941.46,2116.41,104.91,2936.00,1104.00
942,941.77,2119.89,25.62,2870.00,1135.00
944,942.07,2123.37,0.00,2777.00,1104.00
946,942.38,2126.84,0.00,2781.00,1137.00
948,942.69,2130.31,4.29,2769.00,1142.00
950,943.00,2133.78,0.00,2669.00,1089.00
952,943.31,2137.24,0.00,2686.00,1135.00
954,943.62,2140.70,26.02,2684.00,1116.00
956,943.92,2144.16,0.00,2623.00,1102.00
958,944.23,2147.62,0.24,2635.00,1129.00
960,944.54,2151.07,3.43,2654.00,1161.00
962,944.85,2154.52,37.11,2663.00,1161.00
964,945.16,2157.96,77.39,2661.00,1154.00
966,945.46,2161.40,46.62,2597.00,1131.00
968,945.77,2164.84,107.25,2555.00,1059.00
970,946.08,2168.28,21.40,2521.00,1110.00
972,946.39,2171.71,3.48,2483.00,1106.00
974,946.69,2175.14,0.00,2424.00,1120.00
976,947.00,2178.57,12.84,2462.00,1104.00
978,947.31,2181.99,17.96,2414.00,1074.00
980,947.61,2185.41,30.60,2460.00,1120.00
982,947.92,2188.82,21.87,2439.00,1121.00
984,948.23,2192.24,37.28,2374.00,1063.00
986,948.53,2195.65,11.42,2409.00,1114.00
988,948.84,2199.05,0.00,2278.00,1046.00
990,949.15,2202.46,11.90,2386.00,1102.00
992,949.45,2205.86,55.55,2397.00,1106.00
994,949.76,2209.25,108.13,2388.00,1065.00
996,950.07,2212.65,99.86,2403.00,1095.00
998,950.37,2216.04,145.71,2397.00,1065.00
1000,950.68,2219.43,105.03,2422.00,1110.00
1002,950.98,2222.81,62.81,2393.00,1131.00
1004,951.29,2226.19,74.65,2344.00,1093.00
1006,951.60,2229.57,64.98,2312.00,1066.00
1008,951.90,2232.94,18.05,2257.00,1061.00
1010,952.21,2236.32,69.93,2316.00,1085.00
1012,952.51,2239.68,39.48,2310.00,1114.00
1014,952.82,2243.05,0.00,2211.00,1074.00
1016,953.12,2246.41,72.12,2346.00,1146.00
1018,953.43,2249.77,46.43,2380.00,1201.00
1020,953.73,2253.12,8.16,2281.00,1131.00
1022,954.04,2256.48,0.02,2188.00,1055.00
1024,954.34,2259.83,1.85,2259.00,1129.00
1026,954.65,2263.17,7.68,2232.00,1101.00
1028,954.95,2266.51,36.92,2264.00,1112.00
1030,955.26,2269.85,68.69,2304.00,1144.00
1032,955.56,2273.19,51.88,2280.00,1133.00
1034,955.87,2276.52,32.12,2274.00,1135.00
1036,956.17,2279.85,3.64,2261.00,1156.00
1038,956.48,2283.18,18.34,2196.00,1082.00
1040,956.78,2286.50,69.92,2230.00,1080.00
1042,957.08,2289.82,104.43,2242.00,1072.00
1044,957.39,2293.14,175.54,2325.00,1125.00
1046,957.69,2296.45,135.32,2251.00,1068.00
1048,957.99,2299.76,41.13,2266.00,1152.00
1050,958.30,2303.07,86.86,2272.00,1129.00
1052,958.60,2306.38,59.13,2228.00,1116.00
1054,958.91,2309.68,45.19,2215.00,1114.00
1056,959.21,2312.98,72.59,2198.00,1084.00
1058,959.51,2316.27,110.45,2228.00,1101.00
1060,959.82,2319.56,131.16,2276.00,1133.00
1062,960.12,2322.85,65.69,2192.00,1087.00
1064,960.42,2326.14,81.77,2194.00,1085.00
1066,960.72,2329.42,145.12,2243.00,1116.00
1068,961.03,2332.70,78.49,2217.00,1129.00
1070,961.33,2335.97,52.71,2200.00,1125.00
1072,961.63,2339.25,80.05,2179.00,1087.00
1074,961.93,2342.52,133.05,2223.00,1110.00
1076,962.24,2345.78,169.74,2234.00,1110.00
1078,962.54,2349.05,149.52,2224.00,1112.00
1080,962.84,2352.31,98.90,2200.00,1120.00
1082,963.14,2355.56,55.60,2137.00,1095.00
1084,963.45,2358.82,105.63,2171.00,1101.00
1086,963.75,2362.07,158.84,2221.00,1121.00
1088,964.05,2365.32,112.28,2257.00,1188.00
1090,964.35,2368.56,142.75,2194.00,1102.00
1092,964.65,2371.80,120.76,2213.00,1142.00
1094,964.95,2375.04,184.60,2217.00,1108.00
1096,965.25,2378.27,251.98,2219.00,1082.00
1098,965.56,2381.51,183.88,2202.00,1116.00
1100,965.86,2384.73,210.54,2224.00,1120.00
1102,966.16,2387.96,228.50,2207.00,1089.00
1104,966.46,2391.18,146.94,2194.00,1139.00
1106,966.76,2394.40,224.17,2196.00,1099.00
1108,967.06,2397.62,125.84,2162.00,1137.00
1110,967.36,2400.83,103.85,2092.00,1087.00
1112,967.66,2404.04,67.81,2137.00,1159.00
1114,967.96,2407.25,45.36,2044.00,1070.00
1116,968.26,2410.45,8.32,2057.00,1123.00
1118,968.56,2413.65,12.07,2014.00,1085.00
1120,968.86,2416.85,57.19,2105.00,1152.00
1122,969.16,2420.04,28.94,2046.00,1118.00
1124,969.46,2423.23,41.04,2014.00,1087.00
1126,969.76,2426.42,102.05,2073.00,1118.00
1128,970.06,2429.60,0.00,1976.00,1084.00
1130,970.36,2432.79,59.38,2029.00,1091.00
1132,970.66,2435.96,35.46,2021.00,1104.00
1134,970.96,2439.14,64.86,2052.00,1108.00
1136,971.26,2442.31,18.42,2029.00,1139.00
1138,971.56,2445.48,198.58,2112.00,1116.00
1140,971.86,2448.65,252.37,2120.00,1104.00
1142,972.16,2451.81,206.04,2131.00,1133.00
1144,972.45,2454.97,283.79,2160.00,1120.00
1146,972.75,2458.13,339.47,2152.00,1097.00
1148,973.05,2461.28,297.46,2124.00,1093.00
1150,973.35,2464.43,191.24,2097.00,1123.00
1152,973.65,2467.58,158.09,2063.00,1110.00
1154,973.95,2470.72,144.39,2054.00,1121.00
1156,974.24,2473.86,193.56,2057.00,1108.00
1158,974.54,2477.00,198.29,2033.00,1082.00
1160,974.84,2480.13,166.59,2067.00,1137.00
1162,975.14,2483.27,250.71,2069.00,1102.00
1164,975.43,2486.40,183.70,2010.00,1087.00
1166,975.73,2489.52,170.28,2021.00,1106.00
1168,976.03,2492.64,206.84,2025.00,1101.00
1170,976.33,2495.76,192.52,2035.00,1127.00
1172,976.62,2498.88,125.79,1976.00,1097.00
1174,976.92,2501.99,87.98,1991.00,1137.00
1176,977.22,2505.10,84.61,1959.00,1123.00
1178,977.51,2508.21,88.22,1938.00,1104.00
1180,977.81,2511.31,68.75,1942.00,1110.00
1182,978.11,2514.41,34.25,1909.00,1106.00
1184,978.40,2517.51,30.82,1906.00,1116.00
1186,978.70,2520.61,95.35,1923.00,1110.00
1188,979.00,2523.70,147.24,1964.00,1133.00
1190,979.29,2526.79,27.23,1900.00,1125.00
1192,979.59,2529.87,17.94,1900.00,1131.00
1194,979.88,2532.95,97.31,1906.00,1080.00
1196,980.18,2536.03,98.75,1925.00,1121.00
1198,980.48,2539.11,215.56,1993.00,1148.00
1200,980.77,2542.18,174.99,1945.00,1123.00
1202,981.07,2545.25,152.21,1970.00,1150.00
1204,981.36,2548.32,49.32,1871.00,1106.00
1206,981.66,2551.38,33.47,1904.00,1156.00
1208,981.95,2554.44,121.64,1890.00,1112.00
1210,982.25,2557.50,66.99,1928.00,1175.00
1212,982.54,2560.56,25.23,1900.00,1156.00
1214,982.84,2563.61,0.00,1892.00,1184.00
1216,983.13,2566.66,0.00,1854.00,1159.00
1218,983.43,2569.70,41.92,1871.00,1140.00
1220,983.72,2572.74,73.86,1900.00,1159.00
1222,984.01,2575.78,61.53,1890.00,1154.00
1224,984.31,2578.82,132.98,1856.00,1082.00
1226,984.60,2581.85,58.92,1864.00,1120.00
1228,984.90,2584.88,76.46,1841.00,1080.00
1230,985.19,2587.91,51.23,1845.00,1106.00
1232,985.48,2590.93,111.26,1911.00,1148.00
1234,985.78,2593.96,94.23,1883.00,1133.00
1236,986.07,2596.97,125.81,1892.00,1127.00
1238,986.36,2599.99,134.11,1942.00,1173.00
1240,986.66,2603.00,63.56,1900.00,1163.00
1242,986.95,2606.01,69.98,1913.00,1173.00
1244,987.24,2609.01,133.33,1923.00,1156.00
1246,987.54,2612.02,68.83,1809.00,1068.00
1248,987.83,2615.02,51.82,1909.00,1171.00
1250,988.12,2618.01,70.60,1898.00,1154.00
1252,988.41,2621.01,151.67,1911.00,1139.00
1254,988.71,2624.00,123.24,1871.00,1112.00
1256,989.00,2626.99,115.85,1894.00,1131.00
1258,989.29,2629.97,128.18,1907.00,1140.00
1260,989.58,2632.95,244.04,1955.00,1142.00
1262,989.87,2635.93,235.50,1968.00,1158.00
1264,990.16,2638.91,289.72,1940.00,1102.00
1266,990.46,2641.88,325.08,1987.00,1146.00
1268,990.75,2644.85,408.12,2067.00,1199.00
1270,991.04,2647.81,300.74,1953.00,1120.00
1272,991.33,2650.78,256.91,1936.00,1118.00
1274,991.62,2653.74,141.61,1896.00,1139.00
1276,991.91,2656.70,153.91,1888.00,1118.00
1278,992.20,2659.65,35.88,1854.00,1135.00
1280,992.49,2662.60,20.05,1831.00,1127.00
1282,992.78,2665.55,153.95,1932.00,1178.00
1284,993.07,2668.50,3.98,1864.00,1173.00
1286,993.36,2671.44,0.00,1847.00,1167.00
1288,993.65,2674.38,19.22,1873.00,1173.00
1290,993.94,2677.31,7.45,1843.00,1148.00
1292,994.23,2680.25,0.00,1835.00,1154.00
1294,994.52,2683.18,107.50,1864.00,1139.00
1296,994.81,2686.10,11.72,1847.00,1148.00
1298,995.10,2689.03,0.00,1830.00,1148.00
1300,995.39,2691.95,0.00,1828.00,1142.00
1302,995.68,2694.87,6.37,1888.00,1177.00
1304,995.97,2697.78,50.32,1902.00,1171.00
1306,996.26,2700.70,0.00,1822.00,1102.00
1308,996.55,2703.61,13.59,1890.00,1156.00
1310,996.84,2706.51,30.61,1926.00,1178.00
1312,997.13,2709.42,62.74,1932.00,1163.00
1314,997.41,2712.32,41.44,1926.00,1156.00
1316,997.70,2715.21,25.57,1911.00,1144.00
1318,997.99,2718.11,149.01,1940.00,1129.00
1320,998.28,2721.00,18.08,1919.00,1140.00
1322,998.57,2723.89,0.00,1944.00,1180.00
1324,998.86,2726.77,4.91,1913.00,1125.00
1326,999.14,2729.66,23.61,1945.00,1139.00
1328,999.43,2732.54,35.44,1938.00,1121.00
1330,999.72,2735.41,24.76,1955.00,1139.00
1332,1000.01,2738.29,97.47,2010.00,1167.00
1334,1000.29,2741.16,105.32,1999.00,1140.00
1336,1000.58,2744.03,30.13,1974.00,1125.00
1338,1000.87,2746.89,16.38,2038.00,1188.00
1340,1001.15,2749.75,147.05,2044.00,1129.00
1342,1001.44,2752.61,254.43,2073.00,1146.00
1344,1001.73,2755.47,217.90,2052.00,1131.00
1346,1002.01,2758.32,116.28,2059.00,1150.00
1348,1002.30,2761.17,103.70,2086.00,1163.00
1350,1002.59,2764.02,94.86,2128.00,1201.00
1352,1002.87,2766.86,195.44,2111.00,1146.00
1354,1003.16,2769.70,409.29,2133.00,1112.00
1356,1003.44,2772.54,337.95,2114.00,1110.00
1358,1003.73,2775.38,292.66,2158.00,1150.00
1360,1004.01,2778.21,250.17,2124.00,1121.00
1362,1004.30,2781.04,280.06,2152.00,1139.00
1364,1004.58,2783.87,429.38,2183.00,1123.00
1366,1004.87,2786.69,267.55,2114.00,1097.00
1368,1005.15,2789.51,212.27,2175.00,1169.00
1370,1005.44,2792.33,301.96,2209.00,1169.00
1372,1005.72,2795.14,235.00,2205.00,1180.00
1374,1006.01,2797.95,342.64,2226.00,1159.00
1376,1006.29,2800.76,346.60,2187.00,1131.00
1378,1006.58,2803.57,455.19,2280.00,1196.00
1380,1006.86,2806.37,125.69,2133.00,1129.00
1382,1007.14,2809.17,93.86,2126.00,1123.00
1384,1007.43,2811.97,85.72,2147.00,1148.00
1386,1007.71,2814.77,0.12,2084.00,1110.00
1388,1008.00,2817.56,10.18,2111.00,1121.00
1390,1008.28,2820.35,0.00,2133.00,1163.00
1392,1008.56,2823.13,0.00,2103.00,1133.00
1394,1008.85,2825.91,0.00,2145.00,1158.00
1396,1009.13,2828.69,0.00,2126.00,1140.00
1398,1009.41,2831.47,69.11,2196.00,1150.00
1400,1009.69,2834.24,8.61,2145.00,1108.00
1402,1009.98,2837.02,0.00,2175.00,1139.00
1404,1010.26,2839.78,0.00,2251.00,1192.00
1406,1010.54,2842.55,15.29,2196.00,1110.00
1408,1010.82,2845.31,47.33,2272.00,1156.00
1410,1011.11,2848.07,86.07,2306.00,1156.00
1412,1011.39,2850.83,195.49,2352.00,1163.00
1414,1011.67,2853.58,294.74,2367.00,1154.00
1416,1011.95,2856.33,445.59,2418.00,1161.00
1418,1012.23,2859.08,330.53,2395.00,1144.00
1420,1012.51,2861.83,145.23,2361.00,1125.00
1422,1012.80,2864.57,9.78,2426.00,1218.00
1424,1013.08,2867.31,0.00,2395.00,1186.00
1426,1013.36,2870.04,4.73,2424.00,1184.00
1428,1013.64,2872.78,35.88,2447.00,1158.00
1430,1013.92,2875.51,157.68,2545.00,1201.00
1432,1014.20,2878.24,624.26,2591.00,1156.00
1434,1014.48,2880.96,1208.24,2640.00,1142.00
1436,1014.76,2883.68,958.79,2621.00,1106.00
1438,1015.04,2886.40,124.93,2523.00,1118.00
1440,1015.32,2889.12,1.38,2511.00,1178.00
1442,1015.60,2891.83,0.00,2407.00,1121.00
1444,1015.88,2894.54,0.00,2464.00,1182.00
1446,1016.16,2897.25,0.00,2466.00,1110.00
1448,1016.44,2899.96,19.71,2655.00,1171.00
1450,1016.72,2902.66,220.22,2729.00,1148.00
1452,1017.00,2905.36,934.55,2948.00,1211.00
1454,1017.28,2908.06,2253.38,3105.00,1142.00
1456,1017.55,2910.75,2725.47,3223.00,1167.00
1458,1017.83,2913.44,2046.92,3111.00,1114.00
1460,1018.11,2916.13,1292.19,3041.00,1144.00
1462,1018.39,2918.81,937.07,3031.00,1175.00
1464,1018.67,2921.49,507.53,2925.00,1137.00
1466,1018.95,2924.17,234.12,2897.00,1152.00
1468,1019.22,2926.85,226.96,2936.00,1169.00
1470,1019.50,2929.52,371.25,2925.00,1121.00
1472,1019.78,2932.20,1221.60,3094.00,1114.00
1474,1020.06,2934.86,1823.25,3181.00,1129.00
1476,1020.33,2937.53,2643.17,3419.00,1194.00
1478,1020.61,2940.19,3434.84,3572.00,1154.00
1480,1020.89,2942.85,4658.86,3897.00,1163.00
1482,1021.17,2945.51,6048.83,4269.00,1129.00
1484,1021.44,2948.16,8374.91,4989.00,1161.00
1486,1021.72,2950.81,12633.58,6035.00,1140.00
1488,1022.00,2953.46,21690.27,7813.00,1194.00
1490,1022.27,2956.11,35816.17,9761.00,1171.00
1492,1022.55,2958.75,48053.78,11240.00,1188.00
1494,1022.82,2961.39,43879.00,10822.00,1154.00
1496,1023.10,2964.03,29825.86,9211.00,1201.00
1498,1023.38,2966.66,20283.88,7675.00,1152.00
1500,1023.65,2969.29,19845.33,7495.00,1177.00
1502,1023.93,2971.92,24992.76,8030.00,1184.00
1504,1024.20,2974.55,31761.74,8751.00,1173.00
1506,1024.48,2977.17,34375.15,9061.00,1178.00
1508,1024.75,2979.79,32978.84,8894.00,1139.00
1510,1025.03,2982.41,31684.77,8647.00,1146.00
1512,1025.30,2985.02,32670.26,8569.00,1125.00
1514,1025.58,2987.63,31329.52,8292.00,1163.00
1516,1025.85,2990.24,24617.83,7335.00,1129.00
1518,1026.13,2992.85,18609.87,6528.00,1190.00
1520,1026.40,2995.45,17420.23,6168.00,1171.00
1522,1026.68,2998.05,22689.90,6621.00,1144.00
1524,1026.95,3000.65,28000.67,7052.00,1197.00
1526,1027.22,3003.25,25415.82,6678.00,1156.00
1528,1027.50,3005.84,17842.97,5784.00,1137.00
1530,1027.77,3008.43,13962.27,5270.00,1165.00
1532,1028.04,3011.02,15077.69,5344.00,1163.00
1534,1028.32,3013.60,18123.25,5543.00,1144.00
1536,1028.59,3016.18,20311.41,5604.00,1165.00
1538,1028.86,3018.76,21085.21,5484.00,1095.00
1540,1029.14,3021.34,18427.42,5192.00,1156.00
1542,1029.41,3023.91,12629.37,4423.00,1133.00
1544,1029.68,3026.48,7817.16,3686.00,1121.00
1546,1029.95,3029.05,5112.60,3193.00,1135.00
1548,1030.22,3031.61,3719.40,2860.00,1121.00
1550,1030.50,3034.17,2839.47,2642.00,1127.00
1552,1030.77,3036.73,2109.72,2466.00,1127.00
1554,1031.04,3039.29,1615.29,2405.00,1169.00
1556,1031.31,3041.84,973.47,2226.00,1095.00
1558,1031.58,3044.39,458.34,2234.00,1199.00
1560,1031.85,3046.94,249.46,2158.00,1188.00
1562,1032.13,3049.49,160.09,2044.00,1129.00
1564,1032.40,3052.03,414.67,2088.00,1161.00
1566,1032.67,3054.57,24.41,1961.00,1133.00
1568,1032.94,3057.11,84.07,2008.00,1194.00
1570,1033.21,3059.64,0.00,1849.00,1116.00
1572,1033.48,3062.18,0.00,1888.00,1175.00
1574,1033.75,3064.70,0.00,1883.00,1177.00
1576,1034.02,3067.23,21.07,1854.00,1169.00
1578,1034.29,3069.75,59.55,1775.00,1110.00
1580,1034.56,3072.28,282.23,1830.00,1163.00
1582,1034.83,3074.79,117.64,1731.00,1097.00
1584,1035.10,3077.31,0.00,1748.00,1175.00
1586,1035.37,3079.82,21.52,1718.00,1137.00
1588,1035.64,3082.33,161.22,1778.00,1199.00
1590,1035.91,3084.84,0.00,1716.00,1177.00
1592,1036.17,3087.34,8.48,1668.00,1133.00
1594,1036.44,3089.85,5.38,1740.00,1215.00
1596,1036.71,3092.35,0.00,1630.00,1123.00
1598,1036.98,3094.84,0.00,1615.00,1120.00
1600,1037.25,3097.34,136.58,1630.00,1118.00
1602,1037.52,3099.83,75.66,1632.00,1142.00
1604,1037.78,3102.32,163.18,1657.00,1165.00
1606,1038.05,3104.80,90.43,1659.00,1180.00
1608,1038.32,3107.29,93.61,1611.00,1135.00
1610,1038.59,3109.77,0.00,1594.00,1146.00
1612,1038.85,3112.24,77.82,1600.00,1139.00
1614,1039.12,3114.72,0.00,1609.00,1175.00
1616,1039.39,3117.19,0.00,1554.00,1116.00
1618,1039.66,3119.66,0.00,1613.00,1177.00
1620,1039.92,3122.13,47.45,1621.00,1180.00
1622,1040.19,3124.59,62.59,1585.00,1144.00
1624,1040.45,3127.05,33.15,1558.00,1118.00
1626,1040.72,3129.51,0.00,1590.00,1165.00
1628,1040.99,3131.97,87.50,1623.00,1178.00
1630,1041.25,3134.42,318.62,1663.00,1205.00
1632,1041.52,3136.87,285.32,1570.00,1110.00
1634,1041.78,3139.32,14.53,1606.00,1169.00
1636,1042.05,3141.77,43.00,1725.00,1277.00
1638,1042.32,3144.21,0.00,1581.00,1144.00
1640,1042.58,3146.65,471.61,1682.00,1197.00
1642,1042.85,3149.09,24.93,1606.00,1159.00
1644,1043.11,3151.52,11.98,1619.00,1169.00
1646,1043.38,3153.96,0.00,1619.00,1188.00
1648,1043.64,3156.39,102.73,1625.00,1158.00
1650,1043.90,3158.81,310.95,1632.00,1148.00
1652,1044.17,3161.24,475.63,1685.00,1180.00
1654,1044.43,3163.66,119.33,1607.00,1129.00
1656,1044.70,3166.08,483.30,1733.00,1213.00
1658,1044.96,3168.49,350.53,1666.00,1161.00
1660,1045.22,3170.91,183.08,1634.00,1140.00
1662,1045.49,3173.32,135.53,1657.00,1161.00
1664,1045.75,3175.73,109.55,1674.00,1180.00
1666,1046.01,3178.13,289.71,1649.00,1139.00
1668,1046.28,3180.54,649.19,1737.00,1201.00
1670,1046.54,3182.94,808.43,1757.00,1211.00
1672,1046.80,3185.34,654.36,1712.00,1178.00
1674,1047.07,3187.73,616.62,1668.00,1137.00
1676,1047.33,3190.12,807.96,1718.00,1173.00
1678,1047.59,3192.51,1285.56,1771.00,1190.00
1680,1047.85,3194.90,1217.53,1792.00,1222.00
1682,1048.11,3197.29,1265.12,1767.00,1192.00
1684,1048.38,3199.67,1293.42,1756.00,1177.00
1686,1048.64,3202.05,1343.50,1782.00,1201.00
1688,1048.90,3204.43,1265.72,1759.00,1192.00
1690,1049.16,3206.80,1859.99,1771.00,1158.00
1692,1049.42,3209.17,2184.13,1822.00,1184.00
1694,1049.68,3211.54,2169.59,1786.00,1150.00
1696,1049.94,3213.91,1873.30,1786.00,1180.00
1698,1050.20,3216.27,2726.03,1841.00,1169.00
1700,1050.46,3218.63,2413.90,1856.00,1215.00
1702,1050.72,3220.99,2492.17,1814.00,1169.00
1704,1050.98,3223.35,2908.93,1871.00,1197.00
1706,1051.24,3225.70,3058.67,1856.00,1175.00
1708,1051.50,3228.05,2722.94,1792.00,1139.00
1710,1051.76,3230.40,2777.91,1858.00,1203.00
1712,1052.02,3232.75,2945.79,1850.00,1190.00
1714,1052.28,3235.09,3196.18,1888.00,1215.00
1716,1052.54,3237.43,3498.16,1871.00,1173.00
1718,1052.80,3239.77,3181.29,1830.00,1158.00
1720,1053.06,3242.11,3542.57,1860.00,1171.00
1722,1053.32,3244.44,3961.39,1837.00,1131.00
1724,1053.58,3246.77,4352.28,1953.00,1224.00
1726,1053.84,3249.10,3842.28,1862.00,1167.00
1728,1054.10,3251.42,3607.36,1858.00,1178.00
1730,1054.35,3253.75,4005.88,1868.00,1163.00
1732,1054.61,3256.07,4033.95,1913.00,1218.00
1734,1054.87,3258.39,4389.12,1885.00,1177.00
1736,1055.13,3260.70,4386.93,1860.00,1159.00
1738,1055.38,3263.01,4719.03,1864.00,1139.00
1740,1055.64,3265.32,3974.69,1858.00,1182.00
1742,1055.90,3267.63,4098.69,1820.00,1139.00
1744,1056.16,3269.94,4491.06,1915.00,1220.00
1746,1056.41,3272.24,5226.69,1944.00,1211.00
1748,1056.67,3274.54,4724.13,1885.00,1186.00
1750,1056.93,3276.84,4481.20,1873.00,1190.00
1752,1057.18,3279.13,5109.41,1875.00,1158.00
1754,1057.44,3281.42,4945.40,1847.00,1152.00
1756,1057.69,3283.71,4888.04,1830.00,1146.00
1758,1057.95,3286.00,4726.99,1892.00,1222.00
1760,1058.21,3288.28,4580.78,1813.00,1154.00
1762,1058.46,3290.57,4569.14,1873.00,1215.00
1764,1058.72,3292.85,3946.18,1826.00,1209.00
1766,1058.97,3295.12,4377.73,1788.00,1150.00
1768,1059.23,3297.40,4588.97,1784.00,1144.00
1770,1059.48,3299.67,4898.40,1839.00,1190.00
1772,1059.74,3301.94,4486.98,1756.00,1137.00
1774,1059.99,3304.21,5202.26,1814.00,1159.00
1776,1060.25,3306.47,4797.86,1850.00,1222.00
1778,1060.50,3308.73,4643.85,1771.00,1150.00
1780,1060.76,3310.99,4025.72,1756.00,1169.00
1782,1061.01,3313.25,4254.07,1771.00,1177.00
1784,1061.26,3315.50,5031.21,1759.00,1137.00
1786,1061.52,3317.76,5225.51,1795.00,1175.00
1788,1061.77,3320.01,4451.03,1784.00,1205.00
1790,1062.02,3322.25,4004.47,1708.00,1150.00
1792,1062.28,3324.50,4286.28,1752.00,1182.00
1794,1062.53,3326.74,4388.53,1699.00,1131.00
1796,1062.78,3328.98,4212.85,1727.00,1173.00
1798,1063.04,3331.22,4079.26,1716.00,1173.00
1800,1063.29,3333.45,4359.07,1710.00,1159.00
1802,1063.54,3335.68,4550.44,1708.00,1154.00
1804,1063.79,3337.91,4742.40,1752.00,1192.00
1806,1064.05,3340.14,3813.89,1748.00,1235.00
1808,1064.30,3342.36,3788.77,1651.00,1139.00
1810,1064.55,3344.59,3995.46,1706.00,1186.00
1812,1064.80,3346.81,3963.53,1680.00,1169.00
1814,1065.05,3349.02,3713.74,1651.00,1161.00
1816,1065.30,3351.24,4909.19,1738.00,1197.00
1818,1065.55,3353.45,4068.32,1663.00,1163.00
1820,1065.81,3355.66,4387.81,1742.00,1230.00
1822,1066.06,3357.87,4534.30,1661.00,1150.00
1824,1066.31,3360.07,4245.58,1623.00,1133.00
1826,1066.56,3362.27,4246.52,1678.00,1192.00
1828,1066.81,3364.47,4434.63,1640.00,1144.00
1830,1067.06,3366.67,3800.84,1636.00,1163.00
1832,1067.31,3368.87,3137.22,1623.00,1180.00
1834,1067.56,3371.06,3931.03,1575.00,1104.00
1836,1067.81,3373.25,5118.11,1619.00,1112.00
1838,1068.06,3375.44,4721.61,1607.00,1127.00
1840,1068.31,3377.62,4590.93,1615.00,1142.00
1842,1068.56,3379.81,5013.02,1613.00,1120.00
1844,1068.80,3381.99,3776.54,1670.00,1228.00
1846,1069.05,3384.16,4007.77,1628.00,1180.00
1848,1069.30,3386.34,3822.27,1588.00,1154.00
1850,1069.55,3388.51,4881.96,1611.00,1140.00
1852,1069.80,3390.68,4265.47,1628.00,1184.00
1854,1070.05,3392.85,3442.54,1657.00,1247.00
1856,1070.30,3395.02,3252.42,1577.00,1177.00
1858,1070.54,3397.18,4134.94,1571.00,1140.00
1860,1070.79,3399.34,4215.63,1592.00,1163.00
1862,1071.04,3401.50,3944.08,1568.00,1156.00
1864,1071.29,3403.66,4719.59,1532.00,1099.00
1866,1071.53,3405.81,4684.77,1604.00,1177.00
1868,1071.78,3407.96,3818.80,1554.00,1158.00
1870,1072.03,3410.11,3903.72,1585.00,1182.00
1872,1072.27,3412.26,3149.68,1545.00,1165.00
1874,1072.52,3414.40,2461.82,1514.00,1161.00
1876,1072.77,3416.54,3498.91,1533.00,1148.00
1878,1073.01,3418.68,3408.32,1556.00,1188.00
1880,1073.26,3420.82,4486.77,1476.00,1084.00
1882,1073.51,3422.96,4839.17,1558.00,1158.00
1884,1073.75,3425.09,3997.18,1541.00,1163.00
1886,1074.00,3427.22,3191.94,1469.00,1114.00
1888,1074.24,3429.35,2964.95,1541.00,1194.00
1890,1074.49,3431.47,2660.46,1473.00,1139.00
1892,1074.73,3433.59,2847.00,1463.00,1127.00
1894,1074.98,3435.71,3513.63,1549.00,1199.00
1896,1075.22,3437.83,3277.57,1488.00,1152.00
1898,1075.47,3439.95,3895.19,1530.00,1175.00
1900,1075.71,3442.06,2498.65,1514.00,1201.00
1902,1075.96,3444.17,2197.89,1465.00,1165.00
1904,1076.20,3446.28,2548.56,1382.00,1078.00
1906,1076.44,3448.38,3581.87,1545.00,1215.00
1908,1076.69,3450.49,2693.85,1501.00,1194.00
1910,1076.93,3452.59,1944.36,1473.00,1186.00
1912,1077.17,3454.69,2297.86,1452.00,1154.00
1914,1077.42,3456.79,2055.06,1458.00,1173.00
1916,1077.66,3458.88,1981.39,1416.00,1140.00
1918,1077.90,3460.97,3097.33,1423.00,1121.00
1920,1078.15,3463.06,2258.98,1475.00,1196.00
1922,1078.39,3465.15,1897.77,1433.00,1165.00
1924,1078.63,3467.23,2630.81,1376.00,1091.00
1926,1078.87,3469.32,2478.28,1463.00,1182.00
1928,1079.12,3471.40,1795.61,1404.00,1140.00
1930,1079.36,3473.47,949.26,1482.00,1245.00
1932,1079.60,3475.55,2282.07,1402.00,1135.00
1934,1079.84,3477.62,2614.95,1435.00,1163.00
1936,1080.08,3479.69,1411.62,1363.00,1118.00
1938,1080.33,3481.76,510.14,1345.00,1125.00
1940,1080.57,3483.83,1481.83,1404.00,1159.00
1942,1080.81,3485.89,2233.36,1414.00,1161.00
1944,1081.05,3487.95,2998.71,1444.00,1184.00
1946,1081.29,3490.01,2484.49,1416.00,1169.00
1948,1081.53,3492.07,1505.59,1372.00,1146.00
1950,1081.77,3494.12,1732.43,1380.00,1148.00
1952,1082.01,3496.18,1149.70,1402.00,1188.00
1954,1082.25,3498.23,1013.03,1361.00,1154.00
1956,1082.49,3500.27,1768.75,1378.00,1156.00
1958,1082.73,3502.32,3010.70,1370.00,1125.00
1960,1082.97,3504.36,3042.74,1410.00,1171.00
1962,1083.21,3506.40,3014.75,1364.00,1129.00
1964,1083.45,3508.44,4294.78,1361.00,1099.00
1966,1083.69,3510.48,2517.50,1458.00,1237.00
1968,1083.93,3512.51,4448.56,1414.00,1152.00
1970,1084.16,3514.54,3768.66,1378.00,1135.00
1972,1084.40,3516.57,3341.08,1368.00,1139.00
1974,1084.64,3518.60,3809.21,1359.00,1125.00
1976,1084.88,3520.62,5072.73,1437.00,1180.00
1978,1085.12,3522.65,3785.89,1427.00,1197.00
1980,1085.36,3524.67,3513.59,1372.00,1148.00
1982,1085.59,3526.68,3616.15,1344.00,1121.00
1984,1085.83,3528.70,3595.79,1406.00,1190.00
1986,1086.07,3530.71,3665.81,1340.00,1129.00
1988,1086.31,3532.72,3704.01,1376.00,1167.00
1990,1086.54,3534.73,3560.07,1334.00,1127.00
1992,1086.78,3536.74,3166.95,1402.00,1203.00
1994,1087.02,3538.74,1825.95,1345.00,1177.00
1996,1087.25,3540.74,2730.19,1298.00,1118.00
1998,1087.49,3542.74,3409.71,1334.00,1144.00
2000,1087.73,3544.74,2587.61,1332.00,1154.00
2002,1087.96,3546.74,1336.56,1321.00,1167.00
2004,1088.20,3548.73,1728.95,1370.00,1209.00
2006,1088.43,3550.72,1938.26,1317.00,1158.00
2008,1088.67,3552.71,1558.84,1306.00,1161.00
2010,1088.90,3554.69,3129.14,1273.00,1108.00
2012,1089.14,3556.68,3490.05,1332.00,1163.00
2014,1089.38,3558.66,2598.17,1268.00,1110.00
2016,1089.61,3560.64,1106.62,1264.00,1131.00
2018,1089.84,3562.62,1237.17,1313.00,1177.00
2020,1090.08,3564.59,1492.04,1264.00,1125.00
2022,1090.31,3566.56,781.50,1245.00,1125.00
2024,1090.55,3568.53,3242.10,1273.00,1118.00
2026,1090.78,3570.50,2123.71,1243.00,1110.00
2028,1091.02,3572.47,2400.53,1230.00,1093.00
2030,1091.25,3574.43,2033.62,1251.00,1118.00
2032,1091.48,3576.39,1539.50,1190.00,1065.00
2034,1091.72,3578.35,1113.73,1188.00,1072.00
2036,1091.95,3580.31,2257.41,1237.00,1104.00
2038,1092.18,3582.26,884.82,1167.00,1061.00
2040,1092.42,3584.22,1928.72,1182.00,1066.00
2042,1092.65,3586.17,2357.53,1201.00,1082.00
2044,1092.88,3588.12,1676.08,1182.00,1066.00
2046,1093.11,3590.06,490.44,1175.00,1068.00
2047,1093.23,3591.03,170.93,1148.00,1046.00