File: src/enlighten/plugins/Raman/MatchingLibrary/785X/ethyl acetate.csv
ENLIGHTEN Version,4.1.22
Measurement ID,20250220-200234-502359-WP-01977
Serial Number,WP-01977
Model,WP-785X-F13-R-ILC
Detector,S16011-1106
Label,ethyl acetate
Declared Match,
Declared Score,0
Scan Averaging,3
Boxcar,0
Technique,Raman
Baseline Correction Algo,AirPLS
ROI Pixel Start,47
ROI Pixel End,2047
ROI Start Line,0
ROI Stop Line,63
CCD C4,1.38617e-12
Slit Width,25
Cropped,True
Interpolated,False
Wavenumber Correction,-0.100481
Raman Intensity Corrected,True
Deconvolved,True
Region,
High Gain Mode,False
Laser Power mW,
Electrical Dark Correction,False
Battery %,
Device ID,<DeviceID USB:0x24aa:0x1000:0:1>
FW Version,10.0.0.10
FPGA Version,035-001
BLE Version,
Prefix,enlighten
Suffix,
Preset,
Auto-Raman,True
Session Count,0
Plugin Name,
Integration Time,466
Timestamp,2025-02-20 20:02:34.5024
Note,
Temperature,0
CCD C0,793.274
CCD C1,0.153259
CCD C2,1.40788e-05
CCD C3,-1.132e-08
CCD Offset,0
CCD Gain,1.9
CCD Offset Odd,0
CCD Gain Odd,1.9
Laser Wavelength,785.032
Laser Enable,False
Laser Power %,0
Laser Temperature,0
Pixel Count,2048

Pixel,Wavelength,Wavenumber,Processed,Raw,Dark
0,793.27,132.25,NA,985.67,947.67
2,793.58,137.12,NA,1000.67,969.33
4,793.89,141.99,NA,989.00,957.33
6,794.19,146.86,NA,997.67,960.67
8,794.50,151.72,NA,1001.00,971.00
10,794.81,156.58,NA,1000.00,964.67
12,795.12,161.44,NA,994.33,954.00
14,795.42,166.30,NA,1000.67,953.33
16,795.73,171.16,NA,995.67,958.00
18,796.04,176.01,NA,1017.33,975.33
20,796.35,180.86,NA,1014.33,979.00
22,796.65,185.71,NA,1036.00,988.33
24,796.96,190.56,NA,1018.33,966.00
26,797.27,195.41,NA,1046.33,991.00
28,797.58,200.25,NA,1034.67,986.67
30,797.88,205.09,NA,1025.00,965.00
32,798.19,209.93,NA,1020.33,964.67
34,798.50,214.77,NA,1031.00,972.00
36,798.81,219.60,NA,1033.33,968.00
38,799.12,224.43,NA,1070.67,974.33
40,799.43,229.27,NA,1248.00,992.00
42,799.74,234.09,NA,1884.67,979.67
44,800.04,238.92,NA,2823.67,1008.00
46,800.35,243.75,NA,3126.67,981.67
48,800.66,248.57,223.79,3125.67,996.00
50,800.97,253.39,155.83,3070.33,985.00
52,801.28,258.21,51.47,2977.33,1005.33
54,801.59,263.02,48.65,2918.67,983.67
56,801.90,267.83,0.15,2841.00,981.67
58,802.21,272.65,0.00,2813.67,992.33
60,802.52,277.46,0.00,2776.33,988.00
62,802.83,282.26,3.85,2835.00,1004.00
64,803.14,287.07,47.99,2869.00,1000.00
66,803.45,291.87,129.33,2966.67,996.00
68,803.76,296.67,261.46,3133.67,1003.00
70,804.07,301.47,451.59,3363.67,988.67
72,804.38,306.26,705.36,3657.00,982.33
74,804.69,311.06,969.57,3940.67,990.00
76,805.00,315.85,1004.13,3955.33,977.33
78,805.31,320.64,811.65,3738.00,985.67
80,805.62,325.42,548.25,3433.00,994.00
82,805.93,330.21,350.34,3156.00,993.33
84,806.24,334.99,270.61,2988.67,965.33
86,806.55,339.77,249.57,2965.33,987.67
88,806.86,344.55,332.55,3071.67,996.00
90,807.17,349.32,468.12,3237.33,975.00
92,807.48,354.10,725.92,3632.67,991.67
94,807.80,358.87,1206.95,4451.33,1006.33
96,808.11,363.63,2201.92,6245.67,986.67
98,808.42,368.40,4820.07,10561.33,983.00
100,808.73,373.16,11385.55,18575.67,976.67
102,809.04,377.93,18309.39,25205.67,971.67
104,809.35,382.68,15325.47,22670.00,977.33
106,809.66,387.44,7897.72,14679.00,987.00
108,809.98,392.19,3598.03,8489.33,971.33
110,810.29,396.95,1941.55,5548.67,989.67
112,810.60,401.70,1163.51,4156.00,976.67
114,810.91,406.44,754.05,3465.00,976.33
116,811.22,411.19,548.82,3117.67,988.00
118,811.54,415.93,395.73,2871.67,987.67
120,811.85,420.67,322.09,2721.00,967.00
122,812.16,425.41,314.40,2700.33,974.00
124,812.47,430.14,372.08,2786.00,988.67
126,812.79,434.87,544.68,2955.00,962.67
128,813.10,439.60,732.77,3133.33,962.00
130,813.41,444.33,688.17,3094.67,969.33
132,813.72,449.06,514.03,2928.33,972.67
134,814.04,453.78,545.40,2969.00,980.33
136,814.35,458.50,783.46,3183.00,958.67
138,814.66,463.22,979.50,3352.33,962.00
140,814.98,467.93,801.97,3132.00,964.00
142,815.29,472.65,466.31,2719.33,969.00
144,815.60,477.36,272.54,2406.00,977.00
146,815.92,482.06,183.37,2198.33,956.67
148,816.23,486.77,103.33,2082.33,986.67
150,816.54,491.47,92.67,2038.00,1002.67
152,816.86,496.17,48.13,1919.00,965.67
154,817.17,500.87,45.93,1881.33,970.00
156,817.48,505.57,10.80,1823.00,968.00
158,817.80,510.26,0.00,1759.33,963.67
160,818.11,514.95,0.62,1753.67,979.67
162,818.42,519.64,0.00,1702.33,992.33
164,818.74,524.32,0.00,1679.33,971.00
166,819.05,529.00,0.00,1691.33,989.33
168,819.37,533.68,0.00,1656.67,970.33
170,819.68,538.36,0.00,1680.00,984.33
172,819.99,543.04,0.00,1673.67,987.33
174,820.31,547.71,0.00,1670.67,974.00
176,820.62,552.38,0.00,1670.67,952.33
178,820.94,557.05,0.06,1701.33,965.00
180,821.25,561.71,13.79,1737.33,954.33
182,821.57,566.37,52.30,1788.33,959.00
184,821.88,571.03,99.15,1869.00,968.33
186,822.20,575.69,131.54,1936.67,972.33
188,822.51,580.34,207.82,2060.33,971.33
190,822.83,584.99,308.96,2224.33,971.67
192,823.14,589.64,411.18,2417.67,974.00
194,823.46,594.29,634.70,2816.00,969.67
196,823.77,598.93,1000.87,3465.00,974.00
198,824.09,603.57,1722.17,4520.67,956.67
200,824.40,608.21,2560.30,5649.00,972.00
202,824.72,612.85,2890.61,6343.00,994.00
204,825.03,617.48,3010.14,7187.00,976.00
206,825.35,622.11,4213.38,10461.33,998.00
208,825.66,626.74,9378.45,19795.67,986.00
210,825.98,631.36,22856.58,35794.33,981.67
212,826.29,635.99,28582.17,41080.67,986.00
214,826.61,640.61,15229.58,27531.33,979.67
216,826.92,645.22,5538.80,13391.67,971.00
218,827.24,649.84,2412.94,6751.00,957.33
220,827.56,654.45,1367.63,4279.67,981.67
222,827.87,659.06,851.90,3226.67,981.00
224,828.19,663.67,560.87,2685.33,974.00
226,828.50,668.27,385.45,2406.33,1008.67
228,828.82,672.87,248.11,2153.00,983.33
230,829.13,677.47,182.67,2010.00,962.00
232,829.45,682.06,117.83,1920.67,981.67
234,829.77,686.66,82.90,1892.67,1013.00
236,830.08,691.25,50.49,1788.00,971.00
238,830.40,695.83,21.64,1742.67,968.33
240,830.72,700.42,4.37,1723.67,972.00
242,831.03,705.00,0.00,1640.33,937.67
244,831.35,709.58,0.00,1665.33,962.00
246,831.66,714.15,0.00,1619.33,941.00
248,831.98,718.73,0.00,1651.33,974.67
250,832.30,723.30,0.00,1633.67,960.67
252,832.61,727.87,0.00,1699.33,985.00
254,832.93,732.43,0.00,1665.00,935.67
256,833.25,736.99,1.56,1753.67,974.00
258,833.56,741.55,7.96,1768.00,962.67
260,833.88,746.11,42.74,1844.67,962.00
262,834.20,750.66,61.56,1895.33,961.00
264,834.51,755.22,112.96,2024.67,977.67
266,834.83,759.76,184.38,2169.33,973.67
268,835.15,764.31,296.85,2410.00,975.00
270,835.47,768.85,560.08,2927.00,956.67
272,835.78,773.39,1034.09,3899.67,965.33
274,836.10,777.93,2049.98,5734.67,972.00
276,836.42,782.46,4022.61,8431.00,970.00
278,836.73,787.00,5406.13,10009.00,960.67
280,837.05,791.52,4263.26,8814.00,958.33
282,837.37,796.05,2393.41,6367.67,981.00
284,837.69,800.57,1405.91,4664.00,953.67
286,838.00,805.09,1010.01,3852.00,958.67
288,838.32,809.61,877.33,3555.67,961.33
290,838.64,814.13,836.88,3505.67,982.67
292,838.95,818.64,849.16,3546.33,968.00
294,839.27,823.15,933.45,3757.33,968.67
296,839.59,827.65,1277.24,4488.67,973.00
298,839.91,832.15,1905.74,6110.33,959.33
300,840.22,836.65,3831.05,10620.00,996.00
302,840.54,841.15,9964.48,20559.00,961.00
304,840.86,845.65,20346.19,32317.67,990.00
306,841.18,850.14,19893.52,31962.00,980.33
308,841.50,854.63,9889.96,20493.00,1024.00
310,841.81,859.11,3949.11,10761.67,972.00
312,842.13,863.60,1796.72,6084.00,974.67
314,842.45,868.07,980.89,4159.00,957.00
316,842.77,872.55,557.99,3332.00,979.33
318,843.08,877.03,321.03,2907.33,994.00
320,843.40,881.50,222.56,2679.67,948.33
322,843.72,885.97,114.54,2547.33,985.67
324,844.04,890.43,60.86,2461.00,966.00
326,844.36,894.89,41.85,2453.33,961.67
328,844.67,899.35,135.00,2667.33,975.33
330,844.99,903.81,305.13,2996.67,952.67
332,845.31,908.26,713.08,3802.00,984.33
334,845.63,912.71,1597.70,5055.00,974.00
336,845.95,917.16,2344.42,5956.00,978.00
338,846.27,921.61,2092.98,5993.33,1151.33
340,846.58,926.05,1437.89,5137.67,966.00
342,846.90,930.49,1403.30,5173.67,966.67
344,847.22,934.92,2139.14,6037.33,970.33
346,847.54,939.36,2963.83,6725.00,952.67
348,847.86,943.79,1925.04,5585.33,959.00
350,848.18,948.21,685.08,3902.00,954.33
352,848.49,952.64,206.30,2970.67,965.33
354,848.81,957.06,43.74,2556.67,941.00
356,849.13,961.48,9.57,2516.67,986.00
358,849.45,965.89,3.40,2492.67,985.00
360,849.77,970.31,49.52,2585.67,966.67
362,850.09,974.71,159.95,2770.00,965.33
364,850.40,979.12,359.29,3137.67,981.00
366,850.72,983.52,626.73,3668.33,988.00
368,851.04,987.92,1087.75,4530.33,957.33
370,851.36,992.32,1924.65,6023.00,953.33
372,851.68,996.72,3339.29,8154.00,973.67
374,852.00,1001.11,4828.05,9948.33,962.67
376,852.32,1005.50,4612.71,9703.00,951.33
378,852.63,1009.88,2996.72,7764.33,1000.00
380,852.95,1014.26,1772.58,5842.33,975.33
382,853.27,1018.64,1228.90,4795.00,976.33
384,853.59,1023.02,1015.63,4348.00,964.00
386,853.91,1027.39,1038.78,4380.33,955.00
388,854.23,1031.76,1297.78,4873.67,955.33
390,854.55,1036.13,1838.02,5846.67,962.67
392,854.87,1040.49,2893.50,7427.00,959.00
394,855.18,1044.86,3947.73,8797.00,979.00
396,855.50,1049.21,4113.81,8987.33,973.00
398,855.82,1053.57,3162.65,7787.33,976.67
400,856.14,1057.92,2040.27,6172.67,962.67
402,856.46,1062.27,1292.59,4917.00,967.67
404,856.78,1066.62,992.50,4297.00,953.00
406,857.10,1070.96,844.48,4006.00,952.67
408,857.42,1075.30,824.26,4012.33,983.67
410,857.74,1079.64,973.57,4293.00,963.33
412,858.06,1083.97,1306.06,4986.00,952.67
414,858.37,1088.30,2110.06,6476.67,949.33
416,858.69,1092.63,3782.72,8943.00,945.67
418,859.01,1096.95,5584.14,11335.00,951.67
420,859.33,1101.27,5873.15,12255.33,964.67
422,859.65,1105.59,5617.74,12678.67,960.67
424,859.97,1109.91,6749.42,14305.00,953.33
426,860.29,1114.22,9230.38,16589.67,962.67
428,860.61,1118.53,8191.56,15043.33,952.00
430,860.93,1122.84,4109.80,10088.33,958.00
432,861.25,1127.14,1756.54,6263.00,985.33
434,861.56,1131.44,904.71,4371.67,957.00
436,861.88,1135.74,523.99,3535.00,960.00
438,862.20,1140.03,321.77,3140.00,963.33
440,862.52,1144.32,226.75,2956.67,964.00
442,862.84,1148.61,191.54,2909.00,975.33
444,863.16,1152.89,238.84,2965.33,959.33
446,863.48,1157.17,312.89,3065.67,960.67
448,863.80,1161.45,386.32,3181.33,965.00
450,864.12,1165.73,405.54,3234.33,973.67
452,864.44,1170.00,418.98,3205.33,952.67
454,864.76,1174.27,401.77,3142.00,963.33
456,865.07,1178.53,199.92,2897.33,943.67
458,865.39,1182.80,14.87,2667.33,970.00
460,865.71,1187.06,0.00,2532.00,962.67
462,866.03,1191.31,0.00,2499.67,964.00
464,866.35,1195.57,0.00,2485.00,951.33
466,866.67,1199.82,0.00,2547.67,966.00
468,866.99,1204.06,0.14,2661.67,958.00
470,867.31,1208.31,27.63,2801.00,967.67
472,867.63,1212.55,177.19,3004.67,960.00
474,867.95,1216.79,291.18,3186.33,943.67
476,868.27,1221.02,342.15,3363.00,966.00
478,868.58,1225.25,444.21,3582.00,950.00
480,868.90,1229.48,660.82,3998.67,973.00
482,869.22,1233.71,1004.43,4534.00,971.00
484,869.54,1237.93,1357.74,5075.33,988.00
486,869.86,1242.15,1566.40,5392.33,962.67
488,870.18,1246.36,1572.31,5461.67,946.33
490,870.50,1250.58,1537.67,5490.00,967.33
492,870.82,1254.79,1482.65,5509.00,986.67
494,871.14,1258.99,1483.23,5620.00,973.67
496,871.46,1263.20,1807.72,6175.33,979.67
498,871.78,1267.40,2503.41,7068.67,960.00
500,872.10,1271.59,2988.87,7636.33,960.00
502,872.41,1275.79,2773.45,7439.00,950.67
504,872.73,1279.98,2172.67,6763.67,966.00
506,873.05,1284.17,1763.49,6230.33,981.67
508,873.37,1288.35,1655.79,6018.33,935.00
510,873.69,1292.53,1859.70,6317.67,950.33
512,874.01,1296.71,2186.02,6743.67,958.33
514,874.33,1300.88,2476.02,7090.33,940.33
516,874.65,1305.06,2383.26,7003.33,957.67
518,874.97,1309.22,2021.35,6560.33,959.33
520,875.29,1313.39,1620.53,6014.33,962.00
522,875.60,1317.55,1298.40,5535.33,962.00
524,875.92,1321.71,1115.96,5253.00,959.67
526,876.24,1325.87,1067.20,5169.33,975.33
528,876.56,1330.02,1054.36,5136.00,954.33
530,876.88,1334.17,1012.66,5138.00,978.33
532,877.20,1338.32,1048.98,5175.33,946.33
534,877.52,1342.46,1110.45,5307.67,948.67
536,877.84,1346.60,1198.15,5552.67,970.67
538,878.16,1350.73,1435.78,5984.67,957.00
540,878.47,1354.87,1936.94,6684.67,958.67
542,878.79,1359.00,2549.20,7394.67,962.67
544,879.11,1363.13,2526.55,7489.33,967.33
546,879.43,1367.25,2082.92,7081.67,957.67
548,879.75,1371.37,2048.29,7012.33,953.67
550,880.07,1375.49,2136.44,7068.67,959.33
552,880.39,1379.60,2124.78,7102.67,956.00
554,880.71,1383.71,2135.82,7244.00,958.33
556,881.03,1387.82,2404.47,7656.00,951.33
558,881.34,1391.93,2901.88,8236.00,943.67
560,881.66,1396.03,3138.73,8522.67,948.00
562,881.98,1400.13,2910.70,8366.00,966.00
564,882.30,1404.22,2584.27,8046.33,960.67
566,882.62,1408.31,2512.66,7967.33,959.67
568,882.94,1412.40,2740.78,8299.33,971.67
570,883.26,1416.49,3073.14,8816.67,955.67
572,883.57,1420.57,3596.12,9648.00,971.00
574,883.89,1424.65,4205.33,10574.33,947.00
576,884.21,1428.73,4945.94,11784.67,979.67
578,884.53,1432.80,5865.30,13273.67,982.33
580,884.85,1436.87,6924.95,15037.33,950.00
582,885.17,1440.93,8460.26,17465.67,955.67
584,885.49,1445.00,10712.76,20560.00,946.33
586,885.80,1449.06,12889.70,23394.00,950.67
588,886.12,1453.11,13778.80,24578.67,981.33
590,886.44,1457.17,13410.44,23957.67,962.67
592,886.76,1461.22,11487.34,21426.33,962.33
594,887.08,1465.26,8663.24,17762.33,981.33
596,887.40,1469.31,6538.87,14677.33,945.67
598,887.71,1473.35,5303.43,12676.00,950.00
600,888.03,1477.38,4699.76,11539.67,961.33
602,888.35,1481.42,4291.83,10739.67,974.00
604,888.67,1485.45,3710.09,9870.00,967.67
606,888.99,1489.48,2905.13,8798.00,952.00
608,889.31,1493.50,2294.49,7933.00,967.33
610,889.62,1497.52,1957.95,7375.00,958.33
612,889.94,1501.54,1629.61,6867.33,944.33
614,890.26,1505.56,1432.75,6576.67,956.00
616,890.58,1509.57,1261.45,6329.00,956.33
618,890.90,1513.57,1096.03,6112.67,959.00
620,891.21,1517.58,999.66,5962.67,956.00
622,891.53,1521.58,927.74,5862.00,965.33
624,891.85,1525.58,821.14,5720.00,955.00
626,892.17,1529.57,690.00,5568.67,967.67
628,892.49,1533.57,650.46,5509.00,969.67
630,892.80,1537.56,556.23,5359.67,949.33
632,893.12,1541.54,443.50,5223.33,947.33
634,893.44,1545.52,324.34,5095.00,969.00
636,893.76,1549.50,258.40,4992.33,945.67
638,894.07,1553.48,200.37,4930.33,967.33
640,894.39,1557.45,145.27,4811.33,954.00
642,894.71,1561.42,90.08,4708.33,963.33
644,895.03,1565.39,72.16,4605.67,940.33
646,895.34,1569.35,49.92,4541.00,974.00
648,895.66,1573.31,30.94,4461.33,951.33
650,895.98,1577.26,1.61,4343.00,958.33
652,896.30,1581.22,0.00,4235.00,943.00
654,896.61,1585.17,0.00,4182.33,951.67
656,896.93,1589.11,0.00,4125.67,972.67
658,897.25,1593.06,0.00,4048.33,943.00
660,897.57,1597.00,0.00,4042.33,955.00
662,897.88,1600.93,0.00,4001.00,963.33
664,898.20,1604.87,0.00,3975.67,958.00
666,898.52,1608.80,0.00,3966.00,956.33
668,898.84,1612.72,0.00,3926.33,938.33
670,899.15,1616.65,29.09,3976.00,970.33
672,899.47,1620.57,28.66,3935.33,943.67
674,899.79,1624.49,57.73,3962.33,958.00
676,900.10,1628.40,63.59,3919.67,945.00
678,900.42,1632.31,46.12,3914.00,968.33
680,900.74,1636.22,3.83,3800.33,935.33
682,901.05,1640.12,25.62,3861.33,980.33
684,901.37,1644.02,0.00,3770.67,958.00
686,901.69,1647.92,0.00,3761.67,970.00
688,902.00,1651.82,7.39,3736.33,949.33
690,902.32,1655.71,0.00,3698.00,949.67
692,902.64,1659.60,15.57,3699.00,943.00
694,902.95,1663.48,55.29,3724.00,960.67
696,903.27,1667.36,29.43,3673.00,951.00
698,903.59,1671.24,43.65,3699.00,979.00
700,903.90,1675.11,73.49,3689.00,961.33
702,904.22,1678.99,91.52,3661.67,939.67
704,904.54,1682.85,149.38,3773.67,997.67
706,904.85,1686.72,201.14,3774.33,945.00
708,905.17,1690.58,280.71,3869.33,954.67
710,905.49,1694.44,434.43,4022.67,945.67
712,905.80,1698.29,577.49,4164.67,949.67
714,906.12,1702.15,690.83,4294.33,952.67
716,906.43,1706.00,715.44,4337.00,957.00
718,906.75,1709.84,791.71,4451.33,973.00
720,907.07,1713.68,940.75,4615.67,943.00
722,907.38,1717.52,1209.60,5061.67,961.00
724,907.70,1721.36,1680.88,5932.67,959.67
726,908.01,1725.19,2816.87,7828.00,962.67
728,908.33,1729.02,5657.08,11476.67,962.33
730,908.65,1732.85,10363.34,16133.00,957.67
732,908.96,1736.67,13061.52,18613.00,963.33
734,909.28,1740.49,11136.49,17108.67,955.67
736,909.59,1744.30,8036.48,13888.33,964.67
738,909.91,1748.12,5505.20,10667.33,958.00
740,910.22,1751.93,3378.52,7869.33,962.67
742,910.54,1755.73,1933.91,5908.67,992.33
744,910.85,1759.54,1158.05,4712.00,971.33
746,911.17,1763.34,716.54,3978.67,948.67
748,911.49,1767.13,466.64,3590.67,963.33
750,911.80,1770.93,321.83,3320.00,937.67
752,912.12,1774.72,251.06,3207.67,965.33
754,912.43,1778.50,146.91,3021.67,943.67
756,912.75,1782.29,110.42,2946.33,938.33
758,913.06,1786.07,67.67,2872.00,952.00
760,913.38,1789.84,68.53,2842.33,962.00
762,913.69,1793.62,40.76,2787.00,959.33
764,914.01,1797.39,5.61,2720.33,951.33
766,914.32,1801.15,0.14,2660.00,945.00
768,914.64,1804.92,19.55,2649.00,942.33
770,914.95,1808.68,0.00,2603.33,957.67
772,915.26,1812.44,0.00,2592.00,968.67
774,915.58,1816.19,0.00,2519.33,936.67
776,915.89,1819.94,0.00,2526.00,954.00
778,916.21,1823.69,9.12,2542.33,957.33
780,916.52,1827.43,19.91,2531.67,973.33
782,916.84,1831.17,17.94,2489.67,947.00
784,917.15,1834.91,13.77,2466.67,943.00
786,917.47,1838.64,43.48,2493.67,960.67
788,917.78,1842.38,15.66,2438.33,953.67
790,918.09,1846.10,9.18,2412.67,952.00
792,918.41,1849.83,5.58,2405.33,965.33
794,918.72,1853.55,9.37,2363.00,932.67
796,919.04,1857.27,19.11,2367.00,950.00
798,919.35,1860.98,34.79,2362.00,946.33
800,919.66,1864.69,26.12,2344.00,950.00
802,919.98,1868.40,38.64,2362.00,965.33
804,920.29,1872.11,56.63,2352.67,953.33
806,920.60,1875.81,116.70,2383.33,948.67
808,920.92,1879.51,118.82,2368.67,944.33
810,921.23,1883.20,83.83,2337.00,957.67
812,921.55,1886.90,104.36,2320.00,939.33
814,921.86,1890.58,110.99,2332.00,965.67
816,922.17,1894.27,97.31,2309.33,969.67
818,922.49,1897.95,85.50,2262.33,957.00
820,922.80,1901.63,85.13,2239.00,950.00
822,923.11,1905.31,52.37,2186.00,948.33
824,923.42,1908.98,50.12,2176.67,959.33
826,923.74,1912.65,39.00,2148.67,961.33
828,924.05,1916.31,45.82,2125.33,952.00
830,924.36,1919.98,32.76,2096.33,951.67
832,924.68,1923.64,43.41,2089.33,945.00
834,924.99,1927.29,72.64,2098.00,945.00
836,925.30,1930.94,64.78,2058.33,931.00
838,925.61,1934.59,66.14,2066.33,949.33
840,925.93,1938.24,55.61,2036.33,949.67
842,926.24,1941.88,53.28,2027.00,956.00
844,926.55,1945.52,38.06,1992.67,950.67
846,926.86,1949.16,45.80,1984.00,955.00
848,927.18,1952.79,66.47,1969.33,939.67
850,927.49,1956.42,45.82,1948.67,948.33
852,927.80,1960.05,55.06,1963.00,968.67
854,928.11,1963.67,48.09,1920.33,955.00
856,928.42,1967.29,52.53,1920.00,966.67
858,928.74,1970.91,58.30,1891.33,943.00
860,929.05,1974.52,27.33,1853.67,953.00
862,929.36,1978.13,41.63,1840.00,947.67
864,929.67,1981.74,25.28,1823.33,956.67
866,929.98,1985.35,3.47,1783.67,955.67
868,930.29,1988.95,14.96,1782.67,955.67
870,930.61,1992.54,40.64,1770.00,944.67
872,930.92,1996.14,16.42,1741.67,946.33
874,931.23,1999.73,8.43,1740.33,964.00
876,931.54,2003.32,8.64,1716.00,959.00
878,931.85,2006.90,24.69,1703.33,951.33
880,932.16,2010.48,5.56,1670.00,941.33
882,932.47,2014.06,0.00,1648.00,946.67
884,932.78,2017.63,26.11,1664.33,950.67
886,933.09,2021.21,16.54,1640.33,950.67
888,933.41,2024.77,11.81,1638.00,962.00
890,933.72,2028.34,7.21,1629.67,972.33
892,934.03,2031.90,0.00,1584.67,961.33
894,934.34,2035.46,28.22,1606.67,960.00
896,934.65,2039.01,0.00,1555.33,950.67
898,934.96,2042.57,10.36,1583.67,970.00
900,935.27,2046.11,22.44,1585.67,978.00
902,935.58,2049.66,33.44,1529.67,926.00
904,935.89,2053.20,25.47,1543.67,954.67
906,936.20,2056.74,0.00,1501.00,954.00
908,936.51,2060.28,26.64,1521.33,952.00
910,936.82,2063.81,29.40,1521.67,960.00
912,937.13,2067.34,46.67,1521.33,953.67
914,937.44,2070.86,64.62,1522.00,950.67
916,937.75,2074.39,66.59,1505.67,935.33
918,938.06,2077.91,90.05,1530.67,943.67
920,938.37,2081.42,148.05,1564.67,944.67
922,938.68,2084.94,183.32,1581.67,943.67
924,938.99,2088.45,183.62,1578.33,947.33
926,939.30,2091.95,184.15,1576.33,955.67
928,939.60,2095.46,152.43,1527.33,945.00
930,939.91,2098.96,103.11,1497.33,972.00
932,940.22,2102.45,68.70,1440.67,960.00
934,940.53,2105.95,38.42,1386.67,946.33
936,940.84,2109.44,25.42,1361.00,941.00
938,941.15,2112.92,10.78,1354.33,960.67
940,941.46,2116.41,10.49,1326.67,947.00
942,941.77,2119.89,0.00,1310.67,956.33
944,942.07,2123.37,0.77,1301.33,951.33
946,942.38,2126.84,0.00,1302.00,964.67
948,942.69,2130.31,0.00,1289.33,967.67
950,943.00,2133.78,0.02,1270.67,946.67
952,943.31,2137.24,0.53,1276.67,958.33
954,943.62,2140.70,0.00,1263.67,964.00
956,943.92,2144.16,0.08,1260.67,953.67
958,944.23,2147.62,9.73,1272.67,962.00
960,944.54,2151.07,7.86,1270.67,966.67
962,944.85,2154.52,7.05,1276.67,976.00
964,945.16,2157.96,0.00,1252.00,964.67
966,945.46,2161.40,2.56,1254.67,966.67
968,945.77,2164.84,0.00,1204.33,937.33
970,946.08,2168.28,1.56,1236.67,956.33
972,946.39,2171.71,12.68,1231.67,947.00
974,946.69,2175.14,0.00,1219.33,952.33
976,947.00,2178.57,3.15,1222.00,945.00
978,947.31,2181.99,0.00,1204.33,935.00
980,947.61,2185.41,0.00,1224.67,956.67
982,947.92,2188.82,15.29,1232.00,953.33
984,948.23,2192.24,5.79,1214.67,943.67
986,948.53,2195.65,3.65,1216.33,946.33
988,948.84,2199.05,0.00,1185.33,924.67
990,949.15,2202.46,3.68,1223.33,952.00
992,949.45,2205.86,38.45,1238.33,949.33
994,949.76,2209.25,35.31,1226.33,938.00
996,950.07,2212.65,1.76,1215.33,952.00
998,950.37,2216.04,0.00,1198.33,940.67
1000,950.68,2219.43,16.77,1226.00,950.00
1002,950.98,2222.81,34.26,1246.00,962.67
1004,951.29,2226.19,34.80,1228.67,941.67
1006,951.60,2229.57,39.79,1228.00,933.67
1008,951.90,2232.94,58.21,1243.67,936.33
1010,952.21,2236.32,70.87,1251.33,940.33
1012,952.51,2239.68,64.60,1253.00,947.00
1014,952.82,2243.05,71.22,1241.00,927.33
1016,953.12,2246.41,46.33,1257.33,965.33
1018,953.43,2249.77,57.09,1285.33,987.00
1020,953.73,2253.12,53.09,1265.00,968.00
1022,954.04,2256.48,34.40,1222.00,941.00
1024,954.34,2259.83,62.80,1269.67,970.33
1026,954.65,2263.17,58.03,1241.00,946.00
1028,954.95,2266.51,55.57,1247.33,950.67
1030,955.26,2269.85,75.18,1286.00,974.67
1032,955.56,2273.19,89.36,1276.67,959.67
1034,955.87,2276.52,97.61,1288.33,964.00
1036,956.17,2279.85,85.31,1290.33,972.67
1038,956.48,2283.18,125.09,1289.67,940.33
1040,956.78,2286.50,142.15,1291.00,937.33
1042,957.08,2289.82,174.41,1301.67,931.33
1044,957.39,2293.14,148.94,1303.67,947.67
1046,957.69,2296.45,117.82,1270.67,933.67
1048,957.99,2299.76,92.32,1284.33,970.67
1050,958.30,2303.07,87.34,1271.33,962.67
1052,958.60,2306.38,74.65,1251.67,953.33
1054,958.91,2309.68,65.11,1241.00,955.67
1056,959.21,2312.98,61.26,1224.00,943.00
1058,959.51,2316.27,41.61,1212.00,944.33
1060,959.82,2319.56,45.00,1236.67,965.00
1062,960.12,2322.85,41.59,1206.00,941.67
1064,960.42,2326.14,48.72,1208.67,947.00
1066,960.72,2329.42,37.58,1208.33,951.33
1068,961.03,2332.70,6.43,1195.33,958.00
1070,961.33,2335.97,1.09,1185.33,953.67
1072,961.63,2339.25,0.00,1175.67,950.00
1074,961.93,2342.52,1.63,1174.67,947.67
1076,962.24,2345.78,4.57,1178.33,950.67
1078,962.54,2349.05,0.00,1175.33,953.67
1080,962.84,2352.31,0.24,1177.33,952.00
1082,963.14,2355.56,0.00,1162.67,941.67
1084,963.45,2358.82,0.52,1172.00,945.00
1086,963.75,2362.07,0.00,1188.00,962.67
1088,964.05,2365.32,20.86,1215.00,974.00
1090,964.35,2368.56,9.02,1189.00,953.00
1092,964.65,2371.80,8.27,1197.33,959.67
1094,964.95,2375.04,22.33,1196.67,952.67
1096,965.25,2378.27,20.18,1186.67,943.67
1098,965.56,2381.51,11.90,1195.33,952.67
1100,965.86,2384.73,3.60,1195.67,959.33
1102,966.16,2387.96,15.12,1191.67,947.00
1104,966.46,2391.18,14.68,1216.33,971.33
1106,966.76,2394.40,12.93,1192.33,947.00
1108,967.06,2397.62,16.93,1219.33,971.00
1110,967.36,2400.83,5.66,1191.00,950.00
1112,967.66,2404.04,34.58,1228.00,965.33
1114,967.96,2407.25,47.55,1201.00,935.00
1116,968.26,2410.45,36.46,1219.33,958.33
1118,968.56,2413.65,36.52,1209.67,942.33
1120,968.86,2416.85,16.49,1233.00,979.00
1122,969.16,2420.04,36.91,1220.33,952.33
1124,969.46,2423.23,44.43,1214.67,947.00
1126,969.76,2426.42,68.29,1236.67,953.33
1128,970.06,2429.60,49.13,1212.00,935.33
1130,970.36,2432.79,32.26,1222.00,957.00
1132,970.66,2435.96,56.49,1226.00,946.00
1134,970.96,2439.14,49.95,1224.00,947.33
1136,971.26,2442.31,46.96,1245.00,967.67
1138,971.56,2445.48,42.79,1228.00,952.67
1140,971.86,2448.65,71.16,1238.67,945.00
1142,972.16,2451.81,78.40,1256.33,959.00
1144,972.45,2454.97,97.75,1256.00,947.00
1146,972.75,2458.13,123.99,1271.00,948.33
1148,973.05,2461.28,130.89,1279.00,951.33
1150,973.35,2464.43,116.29,1290.00,966.00
1152,973.65,2467.58,127.89,1289.67,956.00
1154,973.95,2470.72,151.46,1296.33,953.00
1156,974.24,2473.86,145.02,1287.33,953.33
1158,974.54,2477.00,158.07,1287.00,943.67
1160,974.84,2480.13,144.98,1301.67,960.00
1162,975.14,2483.27,132.34,1286.33,953.00
1164,975.43,2486.40,133.43,1270.33,939.00
1166,975.73,2489.52,120.28,1272.00,949.00
1168,976.03,2492.64,107.53,1254.33,942.00
1170,976.33,2495.76,91.90,1263.33,959.33
1172,976.62,2498.88,57.57,1240.00,950.00
1174,976.92,2501.99,42.06,1247.33,967.33
1176,977.22,2505.10,66.24,1248.00,960.00
1178,977.51,2508.21,52.27,1231.33,952.67
1180,977.81,2511.31,38.20,1228.67,953.67
1182,978.11,2514.41,23.39,1223.00,955.67
1184,978.40,2517.51,46.37,1230.33,950.67
1186,978.70,2520.61,45.88,1231.33,954.33
1188,979.00,2523.70,28.82,1235.33,966.00
1190,979.29,2526.79,50.04,1233.00,950.00
1192,979.59,2529.87,65.10,1247.33,958.00
1194,979.88,2532.95,92.19,1248.00,944.67
1196,980.18,2536.03,102.80,1269.67,962.00
1198,980.48,2539.11,118.86,1281.00,967.67
1200,980.77,2542.18,114.27,1262.33,951.67
1202,981.07,2545.25,86.32,1267.67,966.33
1204,981.36,2548.32,46.78,1236.33,955.67
1206,981.66,2551.38,32.21,1246.33,976.67
1208,981.95,2554.44,32.92,1226.33,956.67
1210,982.25,2557.50,19.95,1239.00,974.67
1212,982.54,2560.56,13.96,1236.67,975.00
1214,982.84,2563.61,18.68,1242.33,977.33
1216,983.13,2566.66,11.65,1229.67,971.67
1218,983.43,2569.70,50.80,1237.33,964.00
1220,983.72,2572.74,8.94,1230.33,973.00
1222,984.01,2575.78,0.00,1209.33,957.33
1224,984.31,2578.82,8.77,1214.33,952.67
1226,984.60,2581.85,19.94,1232.33,962.67
1228,984.90,2584.88,25.82,1224.00,950.33
1230,985.19,2587.91,50.93,1245.67,955.67
1232,985.48,2590.93,115.64,1289.33,969.33
1234,985.78,2593.96,180.64,1304.67,961.33
1236,986.07,2596.97,206.81,1319.00,959.33
1238,986.36,2599.99,191.43,1341.00,981.00
1240,986.66,2603.00,240.71,1370.33,984.00
1242,986.95,2606.01,265.31,1369.00,973.00
1244,987.24,2609.01,330.74,1396.67,971.00
1246,987.54,2612.02,358.55,1366.00,931.33
1248,987.83,2615.02,352.76,1401.67,971.00
1250,988.12,2618.01,315.51,1394.33,978.00
1252,988.41,2621.01,311.97,1382.00,967.00
1254,988.71,2624.00,305.58,1356.67,946.67
1256,989.00,2626.99,240.27,1348.33,966.00
1258,989.29,2629.97,190.23,1326.67,967.00
1260,989.58,2632.95,181.92,1320.67,967.33
1262,989.87,2635.93,116.24,1294.00,974.00
1264,990.16,2638.91,104.15,1271.33,954.33
1266,990.46,2641.88,36.66,1258.33,970.00
1268,990.75,2644.85,23.68,1276.33,992.33
1270,991.04,2647.81,4.66,1234.33,962.67
1272,991.33,2650.78,0.00,1234.00,970.00
1274,991.62,2653.74,0.00,1231.00,964.33
1276,991.91,2656.70,0.00,1228.33,960.00
1278,992.20,2659.65,0.00,1237.33,967.00
1280,992.49,2662.60,0.00,1222.67,952.67
1282,992.78,2665.55,0.00,1260.00,994.33
1284,993.07,2668.50,0.00,1252.33,980.00
1286,993.36,2671.44,0.00,1263.33,977.00
1288,993.65,2674.38,0.00,1269.00,974.67
1290,993.94,2677.31,0.00,1270.33,965.33
1292,994.23,2680.25,4.53,1284.00,960.67
1294,994.52,2683.18,21.00,1307.33,970.33
1296,994.81,2686.10,10.78,1309.33,967.00
1298,995.10,2689.03,38.46,1345.00,972.67
1300,995.39,2691.95,85.33,1372.67,962.67
1302,995.68,2694.87,173.12,1443.00,981.00
1304,995.97,2697.78,334.97,1533.67,985.33
1306,996.26,2700.70,608.05,1645.00,957.67
1308,996.55,2703.61,1008.47,1836.67,968.00
1310,996.84,2706.51,1634.03,2077.67,976.67
1312,997.13,2709.42,2397.02,2324.00,975.33
1314,997.41,2712.32,2832.50,2465.00,977.33
1316,997.70,2715.21,2950.60,2515.67,964.67
1318,997.99,2718.11,2668.90,2458.67,972.33
1320,998.28,2721.00,2301.52,2342.33,958.33
1322,998.57,2723.89,2056.45,2295.33,978.00
1324,998.86,2726.77,1822.40,2192.00,957.67
1326,999.14,2729.66,1822.55,2187.00,966.33
1328,999.43,2732.54,1914.87,2197.67,965.33
1330,999.72,2735.41,1890.58,2172.33,961.67
1332,1000.01,2738.29,1854.70,2187.67,987.33
1334,1000.29,2741.16,1672.10,2114.33,967.00
1336,1000.58,2744.03,1474.99,2046.67,957.33
1338,1000.87,2746.89,1329.52,2025.67,985.00
1340,1001.15,2749.75,1218.10,1964.33,963.67
1342,1001.44,2752.61,1045.68,1910.33,967.33
1344,1001.73,2755.47,967.88,1878.33,955.00
1346,1002.01,2758.32,863.40,1852.67,959.67
1348,1002.30,2761.17,850.92,1875.00,978.33
1350,1002.59,2764.02,888.21,1898.33,983.67
1352,1002.87,2766.86,997.81,1921.67,967.00
1354,1003.16,2769.70,1177.54,1982.67,964.00
1356,1003.44,2772.54,1306.14,2021.00,959.67
1358,1003.73,2775.38,1532.04,2099.33,971.00
1360,1004.01,2778.21,1676.86,2117.00,952.67
1362,1004.30,2781.04,1628.10,2120.33,974.00
1364,1004.58,2783.87,1448.46,2054.67,958.33
1366,1004.87,2786.69,1120.85,1951.67,949.67
1368,1005.15,2789.51,891.27,1912.33,970.67
1370,1005.44,2792.33,532.37,1810.67,975.67
1372,1005.72,2795.14,292.42,1735.00,974.00
1374,1006.01,2797.95,128.03,1692.33,983.00
1376,1006.29,2800.76,42.70,1650.00,959.33
1378,1006.58,2803.57,3.51,1668.33,991.33
1380,1006.86,2806.37,0.00,1609.67,961.67
1382,1007.14,2809.17,0.00,1627.00,962.67
1384,1007.43,2811.97,0.00,1617.33,958.33
1386,1007.71,2814.77,0.00,1631.33,956.00
1388,1008.00,2817.56,0.00,1642.67,958.00
1390,1008.28,2820.35,0.00,1689.67,975.00
1392,1008.56,2823.13,0.00,1699.33,958.33
1394,1008.85,2825.91,0.00,1760.33,973.33
1396,1009.13,2828.69,0.00,1809.33,968.33
1398,1009.41,2831.47,0.00,1868.67,989.67
1400,1009.69,2834.24,0.00,1922.00,955.67
1402,1009.98,2837.02,0.00,2023.00,962.67
1404,1010.26,2839.78,0.00,2149.33,980.67
1406,1010.54,2842.55,43.16,2287.33,960.00
1408,1010.82,2845.31,376.24,2472.33,974.00
1410,1011.11,2848.07,1219.46,2687.67,979.00
1412,1011.39,2850.83,1923.21,2840.00,977.00
1414,1011.67,2853.58,2455.58,2984.00,968.00
1416,1011.95,2856.33,2728.01,3101.67,974.00
1418,1012.23,2859.08,2935.93,3211.67,969.67
1420,1012.51,2861.83,3343.61,3380.33,963.33
1422,1012.80,2864.57,4208.15,3703.00,993.67
1424,1013.08,2867.31,5726.21,4140.67,982.67
1426,1013.36,2870.04,8178.75,4775.67,986.00
1428,1013.64,2872.78,11665.79,5533.00,974.00
1430,1013.92,2875.51,15287.49,6267.00,995.33
1432,1014.20,2878.24,17016.77,6592.00,969.67
1434,1014.48,2880.96,16454.87,6579.00,971.00
1436,1014.76,2883.68,14610.98,6289.67,959.33
1438,1015.04,2886.40,13361.79,6093.00,964.67
1440,1015.32,2889.12,13020.17,6053.00,987.33
1442,1015.60,2891.83,14130.00,6286.33,969.33
1444,1015.88,2894.54,16108.70,6703.00,980.00
1446,1016.16,2897.25,19069.84,7283.00,952.67
1448,1016.44,2899.96,21709.44,7851.00,990.33
1450,1016.72,2902.66,24082.79,8362.33,977.67
1452,1017.00,2905.36,25194.42,8657.00,994.67
1454,1017.28,2908.06,26152.91,8912.67,973.00
1456,1017.55,2910.75,26857.46,9131.00,979.33
1458,1017.83,2913.44,28183.47,9460.67,962.67
1460,1018.11,2916.13,29982.94,9924.67,974.67
1462,1018.39,2918.81,32864.23,10642.33,979.67
1464,1018.67,2921.49,37429.78,11751.67,974.00
1466,1018.95,2924.17,43376.94,13174.67,969.33
1468,1019.22,2926.85,51636.07,15092.00,980.33
1470,1019.50,2929.52,62654.50,17448.00,963.33
1472,1019.78,2932.20,75542.93,19988.67,962.67
1474,1020.06,2934.86,89338.98,22500.67,965.33
1476,1020.33,2937.53,100238.94,24273.67,997.00
1478,1020.61,2940.19,105941.98,24974.67,977.33
1480,1020.89,2942.85,102098.67,24083.67,986.67
1482,1021.17,2945.51,89440.78,21767.33,977.67
1484,1021.44,2948.16,73009.10,18761.00,971.33
1486,1021.72,2950.81,58057.91,15825.67,978.00
1488,1022.00,2953.46,47971.70,13623.33,987.67
1490,1022.27,2956.11,42220.69,12146.33,968.33
1492,1022.55,2958.75,39642.05,11336.33,987.33
1494,1022.82,2961.39,39111.89,10940.33,974.67
1496,1023.10,2964.03,39401.26,10803.67,992.00
1498,1023.38,2966.66,39675.95,10715.67,976.33
1500,1023.65,2969.29,39521.79,10621.00,985.33
1502,1023.93,2971.92,39503.51,10560.00,994.00
1504,1024.20,2974.55,39364.68,10438.00,982.33
1506,1024.48,2977.17,39478.75,10365.00,979.00
1508,1024.75,2979.79,38440.63,10044.00,968.00
1510,1025.03,2982.41,37553.67,9770.67,971.33
1512,1025.30,2985.02,35494.76,9281.00,952.33
1514,1025.58,2987.63,32574.58,8726.67,985.67
1516,1025.85,2990.24,29200.91,8060.33,963.33
1518,1026.13,2992.85,25539.44,7389.67,989.00
1520,1026.40,2995.45,22268.36,6739.00,979.00
1522,1026.68,2998.05,19586.06,6186.00,974.67
1524,1026.95,3000.65,17305.47,5724.33,984.67
1526,1027.22,3003.25,15209.95,5288.00,972.67
1528,1027.50,3005.84,13459.69,4924.00,963.33
1530,1027.77,3008.43,12049.90,4644.67,976.33
1532,1028.04,3011.02,10766.43,4383.00,985.00
1534,1028.32,3013.60,9938.06,4188.67,972.33
1536,1028.59,3016.18,8900.64,3990.00,979.67
1538,1028.86,3018.76,7950.54,3774.67,946.00
1540,1029.14,3021.34,6883.75,3595.33,971.67
1542,1029.41,3023.91,6035.81,3415.00,959.33
1544,1029.68,3026.48,5299.90,3275.00,960.00
1546,1029.95,3029.05,4239.03,3106.00,979.67
1548,1030.22,3031.61,3581.08,2975.67,969.67
1550,1030.50,3034.17,2736.23,2816.00,962.67
1552,1030.77,3036.73,1952.88,2685.33,964.00
1554,1031.04,3039.29,1265.05,2596.67,977.00
1556,1031.31,3041.84,557.63,2452.67,954.33
1558,1031.58,3044.39,166.94,2378.33,995.67
1560,1031.85,3046.94,66.68,2285.33,979.00
1562,1032.13,3049.49,19.86,2194.00,958.33
1564,1032.40,3052.03,17.47,2165.67,979.33
1566,1032.67,3054.57,0.00,2058.00,968.67
1568,1032.94,3057.11,0.00,2044.00,986.00
1570,1033.21,3059.64,0.00,1957.33,954.33
1572,1033.48,3062.18,0.00,1929.67,981.00
1574,1033.75,3064.70,0.00,1880.67,982.67
1576,1034.02,3067.23,0.00,1843.33,983.00
1578,1034.29,3069.75,0.00,1787.67,952.67
1580,1034.56,3072.28,0.00,1765.00,975.33
1582,1034.83,3074.79,2.28,1716.00,948.67
1584,1035.10,3077.31,0.00,1699.33,977.00
1586,1035.37,3079.82,0.00,1659.33,960.67
1588,1035.64,3082.33,0.00,1661.33,997.33
1590,1035.91,3084.84,0.00,1631.67,979.67
1592,1036.17,3087.34,18.82,1606.00,964.67
1594,1036.44,3089.85,51.58,1610.33,990.67
1596,1036.71,3092.35,65.60,1561.33,959.67
1598,1036.98,3094.84,0.00,1533.67,959.67
1600,1037.25,3097.34,0.00,1510.67,958.67
1602,1037.52,3099.83,10.24,1514.33,970.00
1604,1037.78,3102.32,53.00,1501.33,968.00
1606,1038.05,3104.80,43.92,1507.67,992.67
1608,1038.32,3107.29,6.40,1461.67,965.33
1610,1038.59,3109.77,80.07,1458.33,967.00
1612,1038.85,3112.24,38.98,1441.00,969.67
1614,1039.12,3114.72,95.36,1447.33,983.67
1616,1039.39,3117.19,39.22,1391.00,946.33
1618,1039.66,3119.66,9.16,1408.33,981.00
1620,1039.92,3122.13,0.00,1391.00,983.00
1622,1040.19,3124.59,48.34,1372.67,967.67
1624,1040.45,3127.05,127.01,1360.67,958.33
1626,1040.72,3129.51,0.00,1348.67,978.67
1628,1040.99,3131.97,26.65,1343.67,972.00
1630,1041.25,3134.42,0.00,1346.67,989.33
1632,1041.52,3136.87,0.00,1300.67,957.00
1634,1041.78,3139.32,9.15,1315.00,974.00
1636,1042.05,3141.77,35.42,1355.67,1020.00
1638,1042.32,3144.21,0.00,1295.33,972.00
1640,1042.58,3146.65,0.00,1297.33,994.33
1642,1042.85,3149.09,0.74,1290.33,980.33
1644,1043.11,3151.52,0.00,1287.33,986.67
1646,1043.38,3153.96,61.51,1283.67,979.00
1648,1043.64,3156.39,156.76,1275.33,968.67
1650,1043.90,3158.81,0.00,1253.00,969.67
1652,1044.17,3161.24,37.77,1269.33,981.00
1654,1044.43,3163.66,58.72,1241.67,957.33
1656,1044.70,3166.08,133.73,1280.67,996.67
1658,1044.96,3168.49,138.70,1255.00,972.33
1660,1045.22,3170.91,12.62,1239.33,972.00
1662,1045.49,3173.32,40.84,1240.33,968.33
1664,1045.75,3175.73,22.67,1246.00,983.00
1666,1046.01,3178.13,6.73,1223.00,967.33
1668,1046.28,3180.54,302.47,1253.00,977.33
1670,1046.54,3182.94,0.00,1235.33,989.00
1672,1046.80,3185.34,159.26,1242.00,982.33
1674,1047.07,3187.73,136.57,1226.67,968.67
1676,1047.33,3190.12,37.94,1230.33,983.67
1678,1047.59,3192.51,0.00,1225.33,990.00
1680,1047.85,3194.90,30.32,1241.00,1000.67
1682,1048.11,3197.29,148.77,1243.00,994.33
1684,1048.38,3199.67,180.83,1227.67,983.67
1686,1048.64,3202.05,302.60,1243.00,992.00
1688,1048.90,3204.43,244.57,1226.33,979.67
1690,1049.16,3206.80,292.00,1219.33,969.00
1692,1049.42,3209.17,311.51,1236.33,988.33
1694,1049.68,3211.54,342.63,1216.00,970.67
1696,1049.94,3213.91,405.95,1217.67,971.33
1698,1050.20,3216.27,503.56,1226.00,972.67
1700,1050.46,3218.63,416.14,1242.33,995.00
1702,1050.72,3220.99,262.03,1219.67,988.00
1704,1050.98,3223.35,533.34,1232.33,981.00
1706,1051.24,3225.70,432.58,1208.67,970.33
1708,1051.50,3228.05,509.11,1205.00,964.00
1710,1051.76,3230.40,573.45,1232.33,990.00
1712,1052.02,3232.75,671.36,1229.00,981.00
1714,1052.28,3235.09,420.20,1218.33,990.33
1716,1052.54,3237.43,575.96,1215.33,975.67
1718,1052.80,3239.77,552.48,1206.33,971.67
1720,1053.06,3242.11,640.52,1213.33,975.67
1722,1053.32,3244.44,480.12,1190.33,969.00
1724,1053.58,3246.77,786.94,1242.33,1001.67
1726,1053.84,3249.10,757.37,1206.33,969.67
1728,1054.10,3251.42,446.96,1202.00,989.67
1730,1054.35,3253.75,531.22,1192.33,975.67
1732,1054.61,3256.07,615.94,1212.67,992.33
1734,1054.87,3258.39,758.64,1208.00,981.00
1736,1055.13,3260.70,869.45,1200.00,969.00
1738,1055.38,3263.01,819.52,1202.00,976.33
1740,1055.64,3265.32,680.03,1196.67,981.67
1742,1055.90,3267.63,918.04,1185.33,955.00
1744,1056.16,3269.94,652.67,1209.00,1000.00
1746,1056.41,3272.24,906.41,1222.00,999.67
1748,1056.67,3274.54,914.46,1201.67,983.00
1750,1056.93,3276.84,739.22,1189.00,983.33
1752,1057.18,3279.13,734.22,1176.33,972.00
1754,1057.44,3281.42,667.62,1167.00,969.67
1756,1057.69,3283.71,790.48,1172.33,969.67
1758,1057.95,3286.00,617.98,1191.33,1000.00
1760,1058.21,3288.28,436.73,1156.33,978.00
1762,1058.46,3290.57,836.39,1187.67,986.33
1764,1058.72,3292.85,783.28,1180.33,986.33
1766,1058.97,3295.12,405.48,1141.67,973.33
1768,1059.23,3297.40,786.44,1164.00,975.00
1770,1059.48,3299.67,756.90,1171.00,984.67
1772,1059.74,3301.94,586.70,1142.33,967.33
1774,1059.99,3304.21,699.91,1162.00,983.00
1776,1060.25,3306.47,871.53,1180.33,995.33
1778,1060.50,3308.73,813.88,1147.33,968.00
1780,1060.76,3310.99,838.99,1149.33,969.00
1782,1061.01,3313.25,638.29,1150.00,981.67
1784,1061.26,3315.50,702.81,1144.33,974.67
1786,1061.52,3317.76,858.25,1162.00,987.33
1788,1061.77,3320.01,849.19,1153.67,981.33
1790,1062.02,3322.25,633.10,1129.67,969.33
1792,1062.28,3324.50,649.16,1138.67,979.00
1794,1062.53,3326.74,800.74,1125.33,961.00
1796,1062.78,3328.98,719.09,1132.67,975.00
1798,1063.04,3331.22,503.83,1124.00,978.00
1800,1063.29,3333.45,558.31,1116.33,968.33
1802,1063.54,3335.68,748.36,1127.00,971.00
1804,1063.79,3337.91,560.02,1132.67,988.67
1806,1064.05,3340.14,526.75,1147.67,1007.67
1808,1064.30,3342.36,702.52,1104.33,958.67
1810,1064.55,3344.59,879.42,1136.33,984.00
1812,1064.80,3346.81,517.33,1107.67,972.33
1814,1065.05,3349.02,533.34,1105.67,970.00
1816,1065.30,3351.24,767.81,1131.67,987.00
1818,1065.55,3353.45,775.40,1114.67,973.00
1820,1065.81,3355.66,868.63,1147.33,1002.33
1822,1066.06,3357.87,496.08,1103.33,975.67
1824,1066.31,3360.07,550.91,1092.33,963.33
1826,1066.56,3362.27,777.05,1120.00,984.00
1828,1066.81,3364.47,698.52,1090.00,960.67
1830,1067.06,3366.67,578.17,1098.67,975.33
1832,1067.31,3368.87,359.46,1098.00,984.33
1834,1067.56,3371.06,538.17,1073.33,952.33
1836,1067.81,3373.25,542.45,1077.67,958.00
1838,1068.06,3375.44,581.12,1076.33,956.67
1840,1068.31,3377.62,380.48,1085.33,976.00
1842,1068.56,3379.81,582.44,1073.33,957.00
1844,1068.80,3381.99,568.04,1108.67,994.00
1846,1069.05,3384.16,603.13,1093.67,978.67
1848,1069.30,3386.34,723.74,1088.00,970.00
1850,1069.55,3388.51,719.40,1079.67,964.00
1852,1069.80,3390.68,573.25,1088.00,979.33
1854,1070.05,3392.85,442.82,1113.67,1010.67
1856,1070.30,3395.02,405.71,1075.33,974.33
1858,1070.54,3397.18,360.38,1060.00,962.00
1860,1070.79,3399.34,586.95,1075.33,970.33
1862,1071.04,3401.50,507.12,1064.00,963.33
1864,1071.29,3403.66,579.29,1055.00,952.33
1866,1071.53,3405.81,482.23,1076.00,978.33
1868,1071.78,3407.96,799.66,1075.33,968.67
1870,1072.03,3410.11,630.75,1073.33,974.33
1872,1072.27,3412.26,674.12,1074.00,973.33
1874,1072.52,3414.40,321.53,1052.67,964.00
1876,1072.77,3416.54,350.56,1063.33,973.67
1878,1073.01,3418.68,385.73,1077.67,988.33
1880,1073.26,3420.82,545.80,1040.00,947.33
1882,1073.51,3422.96,686.95,1074.00,979.00
1884,1073.75,3425.09,522.07,1063.33,975.33
1886,1074.00,3427.22,686.72,1045.00,953.00
1888,1074.24,3429.35,636.00,1080.00,990.00
1890,1074.49,3431.47,598.04,1053.67,964.67
1892,1074.73,3433.59,649.42,1042.00,950.67
1894,1074.98,3435.71,225.86,1071.00,995.33
1896,1075.22,3437.83,524.67,1058.33,974.00
1898,1075.47,3439.95,777.33,1067.33,977.67
1900,1075.71,3442.06,685.72,1070.33,984.33
1902,1075.96,3444.17,463.77,1049.00,969.67
1904,1076.20,3446.28,223.74,1008.00,937.33
1906,1076.44,3448.38,745.60,1079.00,995.33
1908,1076.69,3450.49,749.65,1064.00,982.33
1910,1076.93,3452.59,452.50,1051.67,977.33
1912,1077.17,3454.69,186.36,1042.33,975.33
1914,1077.42,3456.79,186.60,1043.67,977.00
1916,1077.66,3458.88,395.69,1031.67,960.00
1918,1077.90,3460.97,480.33,1030.00,958.67
1920,1078.15,3463.06,511.50,1055.67,984.33
1922,1078.39,3465.15,591.94,1043.67,969.33
1924,1078.63,3467.23,436.73,1019.00,949.67
1926,1078.87,3469.32,375.46,1050.33,984.33
1928,1079.12,3471.40,511.62,1032.33,963.33
1930,1079.36,3473.47,338.77,1076.00,1011.67
1932,1079.60,3475.55,186.36,1021.67,962.67
1934,1079.84,3477.62,759.31,1047.67,975.33
1936,1080.08,3479.69,270.60,1023.67,965.33
1938,1080.33,3481.76,475.69,1019.33,957.00
1940,1080.57,3483.83,203.84,1032.33,976.67
1942,1080.81,3485.89,707.59,1034.00,965.33
1944,1081.05,3487.95,308.07,1040.67,983.00
1946,1081.29,3490.01,78.21,1033.67,983.00
1948,1081.53,3492.07,424.45,1020.00,961.67
1950,1081.77,3494.12,161.02,1016.33,964.67
1952,1082.01,3496.18,64.66,1027.67,979.00
1954,1082.25,3498.23,245.88,1022.67,969.67
1956,1082.49,3500.27,75.14,1021.67,974.33
1958,1082.73,3502.32,508.48,1013.00,956.67
1960,1082.97,3504.36,225.93,1027.00,977.33
1962,1083.21,3506.40,166.30,1015.00,967.33
1964,1083.45,3508.44,366.93,1002.00,951.33
1966,1083.69,3510.48,641.41,1048.67,994.00
1968,1083.93,3512.51,548.25,1029.00,974.67
1970,1084.16,3514.54,51.91,1012.33,969.33
1972,1084.40,3516.57,65.47,1012.67,969.67
1974,1084.64,3518.60,84.70,1003.33,960.67
1976,1084.88,3520.62,249.16,1036.00,990.33
1978,1085.12,3522.65,319.48,1039.67,993.00
1980,1085.36,3524.67,338.92,1018.33,971.67
1982,1085.59,3526.68,83.51,1008.33,968.33
1984,1085.83,3528.70,1116.88,1033.67,976.67
1986,1086.07,3530.71,873.79,1011.67,960.00
1988,1086.31,3532.72,45.24,1023.33,985.67
1990,1086.54,3534.73,172.99,997.33,956.67
1992,1086.78,3536.74,6.83,1036.67,1000.67
1994,1087.02,3538.74,455.99,1019.67,973.00
1996,1087.25,3540.74,525.17,1000.00,954.00
1998,1087.49,3542.74,0.00,1007.00,973.33
2000,1087.73,3544.74,888.57,1008.67,958.33
2002,1087.96,3546.74,253.95,1014.33,976.00
2004,1088.20,3548.73,819.67,1038.33,990.33
2006,1088.43,3550.72,462.18,1010.00,969.33
2008,1088.67,3552.71,593.95,1007.00,964.67
2010,1088.90,3554.69,351.32,990.67,952.00
2012,1089.14,3556.68,176.43,1007.67,972.00
2014,1089.38,3558.66,285.91,1003.33,965.33
2016,1089.61,3560.64,653.87,1001.33,956.33
2018,1089.84,3562.62,271.94,1017.00,981.00
2020,1090.08,3564.59,594.01,997.00,956.67
2022,1090.31,3566.56,805.23,1002.00,959.67
2024,1090.55,3568.53,715.66,1000.00,959.33
2026,1090.78,3570.50,640.35,983.67,943.67
2028,1091.02,3572.47,169.84,987.33,955.00
2030,1091.25,3574.43,88.93,987.67,957.00
2032,1091.48,3576.39,348.14,971.00,936.00
2034,1091.72,3578.35,0.00,966.67,939.00
2036,1091.95,3580.31,393.52,988.67,954.33
2038,1092.18,3582.26,377.13,964.67,931.33
2040,1092.42,3584.22,133.71,965.00,935.33
2042,1092.65,3586.17,0.00,970.00,944.33
2044,1092.88,3588.12,403.63,966.33,931.67
2046,1093.11,3590.06,16.08,964.67,936.33
2047,1093.23,3591.03,46.23,961.33,930.33