File: src/enlighten/plugins/Raman/MatchingLibrary/785X/isopropanol.csv
ENLIGHTEN Version,4.1.22
Measurement ID,20250220-195943-150331-WP-01977
Serial Number,WP-01977
Model,WP-785X-F13-R-ILC
Detector,S16011-1106
Label,isopropanol
Declared Match,
Declared Score,0
Scan Averaging,5
Boxcar,0
Technique,Raman
Baseline Correction Algo,AirPLS
ROI Pixel Start,47
ROI Pixel End,2047
ROI Start Line,0
ROI Stop Line,63
CCD C4,1.38617e-12
Slit Width,25
Cropped,True
Interpolated,False
Wavenumber Correction,-0.100481
Raman Intensity Corrected,True
Deconvolved,True
Region,
High Gain Mode,False
Laser Power mW,
Electrical Dark Correction,False
Battery %,
Device ID,<DeviceID USB:0x24aa:0x1000:0:1>
FW Version,10.0.0.10
FPGA Version,035-001
BLE Version,
Prefix,enlighten
Suffix,
Preset,
Auto-Raman,True
Session Count,0
Plugin Name,
Integration Time,232
Timestamp,2025-02-20 19:59:43.1503
Note,
Temperature,0
CCD C0,793.274
CCD C1,0.153259
CCD C2,1.40788e-05
CCD C3,-1.132e-08
CCD Offset,0
CCD Gain,1.9
CCD Offset Odd,0
CCD Gain Odd,1.9
Laser Wavelength,785.032
Laser Enable,False
Laser Power %,0
Laser Temperature,0
Pixel Count,2048

Pixel,Wavelength,Wavenumber,Processed,Raw,Dark
0,793.27,132.25,NA,906.60,896.80
2,793.58,137.12,NA,914.40,903.40
4,793.89,141.99,NA,911.40,897.80
6,794.19,146.86,NA,913.40,901.00
8,794.50,151.72,NA,913.40,906.80
10,794.81,156.58,NA,916.20,907.40
12,795.12,161.44,NA,905.00,898.20
14,795.42,166.30,NA,911.00,893.60
16,795.73,171.16,NA,913.20,895.80
18,796.04,176.01,NA,918.40,907.40
20,796.35,180.86,NA,919.80,906.60
22,796.65,185.71,NA,932.20,919.80
24,796.96,190.56,NA,918.60,906.20
26,797.27,195.41,NA,928.60,912.20
28,797.58,200.25,NA,929.80,912.40
30,797.88,205.09,NA,915.60,903.40
32,798.19,209.93,NA,920.60,904.00
34,798.50,214.77,NA,922.00,905.40
36,798.81,219.60,NA,923.20,907.00
38,799.12,224.43,NA,943.80,908.60
40,799.43,229.27,NA,994.20,912.80
42,799.74,234.09,NA,1178.40,912.20
44,800.04,238.92,NA,1474.40,923.20
46,800.35,243.75,NA,1591.00,905.80
48,800.66,248.57,65.09,1613.20,914.60
50,800.97,253.39,83.12,1636.00,920.80
52,801.28,258.21,87.01,1645.80,919.00
54,801.59,263.02,105.62,1661.20,919.80
56,801.90,267.83,85.37,1634.80,917.60
58,802.21,272.65,88.98,1630.00,917.20
60,802.52,277.46,63.31,1592.00,912.20
62,802.83,282.26,49.07,1582.80,925.40
64,803.14,287.07,30.35,1548.00,920.40
66,803.45,291.87,16.70,1529.20,920.00
68,803.76,296.67,1.10,1505.80,923.80
70,804.07,301.47,3.20,1493.60,913.80
72,804.38,306.26,0.00,1479.20,916.80
74,804.69,311.06,0.00,1472.80,913.20
76,805.00,315.85,0.00,1472.00,915.80
78,805.31,320.64,4.30,1495.80,920.60
80,805.62,325.42,9.83,1491.60,913.80
82,805.93,330.21,3.59,1492.00,917.00
84,806.24,334.99,19.10,1502.20,902.20
86,806.55,339.77,39.36,1533.40,914.40
88,806.86,344.55,64.01,1572.00,917.80
90,807.17,349.32,91.33,1604.20,909.60
92,807.48,354.10,148.90,1689.00,907.80
94,807.80,358.87,238.71,1853.60,916.60
96,808.11,363.63,445.42,2172.40,916.80
98,808.42,368.40,918.52,2713.40,911.00
100,808.73,373.16,1265.16,3052.80,907.80
102,809.04,377.93,987.05,2806.60,905.80
104,809.35,382.68,607.59,2389.20,910.40
106,809.66,387.44,442.96,2138.80,912.00
108,809.98,392.19,388.72,2023.20,903.40
110,810.29,396.95,391.76,2027.80,917.80
112,810.60,401.70,415.87,2055.80,905.80
114,810.91,406.44,472.32,2154.20,908.40
116,811.22,411.19,603.07,2363.80,917.00
118,811.54,415.93,836.37,2706.80,916.20
120,811.85,420.67,1177.75,3150.60,909.80
122,812.16,425.41,1501.47,3557.80,908.20
124,812.47,430.14,1595.73,3722.40,915.60
126,812.79,434.87,1520.28,3655.40,908.40
128,813.10,439.60,1409.48,3497.20,904.40
130,813.41,444.33,1273.71,3304.80,910.40
132,813.72,449.06,1092.86,3041.80,907.00
134,814.04,453.78,900.81,2771.20,912.00
136,814.35,458.50,718.32,2507.20,902.80
138,814.66,463.22,613.23,2342.80,897.80
140,814.98,467.93,558.54,2280.40,904.20
142,815.29,472.65,585.06,2365.20,907.80
144,815.60,477.36,822.07,2763.00,911.60
146,815.92,482.06,1358.15,3483.40,903.40
148,816.23,486.77,1995.72,4222.40,912.40
150,816.54,491.47,2026.11,4292.20,922.20
152,816.86,496.17,1539.37,3713.00,904.20
154,817.17,500.87,1005.83,2991.40,913.60
156,817.48,505.57,631.30,2407.20,905.80
158,817.80,510.26,373.10,1993.60,904.60
160,818.11,514.95,253.96,1791.00,913.20
162,818.42,519.64,181.80,1661.80,907.60
164,818.74,524.32,132.64,1585.00,912.00
166,819.05,529.00,122.27,1558.60,913.60
168,819.37,533.68,127.01,1543.00,908.20
170,819.68,538.36,100.14,1501.00,906.60
172,819.99,543.04,55.56,1447.80,918.60
174,820.31,547.71,34.10,1402.80,907.00
176,820.62,552.38,13.43,1364.00,908.60
178,820.94,557.05,6.87,1345.80,906.20
180,821.25,561.71,0.00,1319.60,899.20
182,821.57,566.37,0.00,1318.60,902.80
184,821.88,571.03,0.00,1311.60,902.80
186,822.20,575.69,0.00,1319.40,907.80
188,822.51,580.34,0.00,1317.20,908.60
190,822.83,584.99,0.72,1321.80,909.80
192,823.14,589.64,5.04,1317.00,902.00
194,823.46,594.29,0.83,1318.00,908.20
196,823.77,598.93,0.95,1312.60,905.20
198,824.09,603.57,0.37,1306.40,900.40
200,824.40,608.21,0.00,1310.00,910.20
202,824.72,612.85,0.00,1313.00,909.20
204,825.03,617.48,0.07,1317.60,912.40
206,825.35,622.11,0.01,1318.20,913.00
208,825.66,626.74,6.76,1325.00,907.60
210,825.98,631.36,8.43,1319.60,901.80
212,826.29,635.99,0.06,1316.00,908.20
214,826.61,640.61,0.00,1311.80,906.00
216,826.92,645.22,7.83,1317.00,900.00
218,827.24,649.84,0.03,1309.80,901.00
220,827.56,654.45,4.44,1327.40,910.60
222,827.87,659.06,0.00,1316.40,909.60
224,828.19,663.67,1.18,1319.20,904.80
226,828.50,668.27,1.26,1340.80,924.40
228,828.82,672.87,0.00,1326.60,912.20
230,829.13,677.47,0.00,1320.40,904.60
232,829.45,682.06,0.00,1328.80,908.40
234,829.77,686.66,6.88,1349.40,914.00
236,830.08,691.25,0.00,1328.80,903.00
238,830.40,695.83,0.00,1335.20,903.40
240,830.72,700.42,0.00,1342.00,907.00
242,831.03,705.00,0.00,1328.80,891.60
244,831.35,709.58,0.00,1343.40,904.40
246,831.66,714.15,0.00,1343.40,889.20
248,831.98,718.73,0.00,1358.60,909.00
250,832.30,723.30,0.00,1362.20,899.60
252,832.61,727.87,0.00,1381.00,914.60
254,832.93,732.43,0.00,1370.60,887.60
256,833.25,736.99,0.00,1422.20,911.20
258,833.56,741.55,0.00,1421.20,900.00
260,833.88,746.11,6.99,1461.00,900.20
262,834.20,750.66,12.55,1495.80,907.60
264,834.51,755.22,31.53,1535.80,903.40
266,834.83,759.76,52.24,1582.00,909.00
268,835.15,764.31,72.94,1631.20,904.60
270,835.47,768.85,125.94,1730.80,900.60
272,835.78,773.39,194.00,1868.00,905.40
274,836.10,777.93,307.68,2076.00,905.40
276,836.42,782.46,499.34,2391.80,904.20
278,836.73,787.00,713.06,2727.80,902.00
280,837.05,791.52,881.71,3012.80,897.00
282,837.37,796.05,971.28,3285.20,910.80
284,837.69,800.57,1221.40,3979.60,899.60
286,838.00,805.09,2028.74,6194.00,903.40
288,838.32,809.61,4804.21,12742.60,908.20
290,838.64,814.13,14234.59,27503.60,913.00
292,838.95,818.64,30017.49,43380.80,906.60
294,839.27,823.15,22850.44,36883.00,908.00
296,839.59,827.65,6718.48,17163.80,905.40
298,839.91,832.15,2076.34,7137.20,899.20
300,840.22,836.65,1113.21,4025.80,920.00
302,840.54,841.15,687.93,2915.40,900.80
304,840.86,845.65,431.79,2455.20,911.20
306,841.18,850.14,302.96,2218.00,909.00
308,841.50,854.63,197.06,2067.60,933.40
310,841.81,859.11,143.70,1957.60,903.80
312,842.13,863.60,133.07,1942.00,908.20
314,842.45,868.07,152.21,1954.20,903.00
316,842.77,872.55,141.02,1949.20,909.80
318,843.08,877.03,92.93,1896.40,915.60
320,843.40,881.50,43.92,1817.00,896.60
322,843.72,885.97,19.28,1797.20,910.60
324,844.04,890.43,30.49,1800.80,902.20
326,844.36,894.89,71.38,1855.20,902.60
328,844.67,899.35,113.67,1937.40,908.80
330,844.99,903.81,180.97,2050.40,901.40
332,845.31,908.26,296.25,2267.00,909.40
334,845.63,912.71,505.90,2613.40,912.20
336,845.95,917.16,800.05,3059.00,910.40
338,846.27,921.61,1028.65,3580.00,988.60
340,846.58,926.05,1293.29,4053.60,905.80
342,846.90,930.49,1952.88,5021.00,910.80
344,847.22,934.92,2647.52,5945.60,908.20
346,847.54,939.36,2621.32,6213.40,894.00
348,847.86,943.79,2696.76,6691.00,896.60
350,848.18,948.21,3773.34,8184.40,898.60
352,848.49,952.64,5181.36,9608.60,907.60
354,848.81,957.06,4484.30,8673.40,892.40
356,849.13,961.48,2394.80,6054.80,913.80
358,849.45,965.89,1131.00,3956.80,917.20
360,849.77,970.31,659.51,2907.80,902.80
362,850.09,974.71,459.78,2441.60,902.20
364,850.40,979.12,320.90,2180.20,913.40
366,850.72,983.52,243.46,2032.40,916.80
368,851.04,987.92,162.19,1867.00,897.80
370,851.36,992.32,111.17,1768.40,895.80
372,851.68,996.72,65.46,1690.80,904.20
374,852.00,1001.11,44.03,1632.80,895.00
376,852.32,1005.50,15.46,1577.40,895.00
378,852.63,1009.88,2.74,1577.20,911.20
380,852.95,1014.26,0.00,1544.20,906.60
382,853.27,1018.64,0.00,1542.80,908.60
384,853.59,1023.02,0.00,1530.60,903.40
386,853.91,1027.39,0.00,1512.00,898.20
388,854.23,1031.76,0.00,1514.00,898.20
390,854.55,1036.13,0.00,1529.40,903.40
392,854.87,1040.49,0.00,1535.40,897.80
394,855.18,1044.86,0.00,1566.80,909.60
396,855.50,1049.21,5.06,1591.20,905.20
398,855.82,1053.57,22.23,1640.80,915.00
400,856.14,1057.92,48.12,1683.80,900.20
402,856.46,1062.27,112.58,1793.80,899.60
404,856.78,1066.62,155.30,1872.00,896.00
406,857.10,1070.96,199.49,1967.60,899.40
408,857.42,1075.30,246.88,2082.00,914.80
410,857.74,1079.64,319.62,2215.40,903.40
412,858.06,1083.97,421.41,2404.40,900.00
414,858.37,1088.30,567.72,2676.20,895.40
416,858.69,1092.63,810.10,3118.80,898.20
418,859.01,1096.95,1168.92,3739.20,899.00
420,859.33,1101.27,1657.40,4537.40,902.60
422,859.65,1105.59,2184.20,5337.60,902.40
424,859.97,1109.91,2571.06,5921.20,894.20
426,860.29,1114.22,2622.40,6128.40,907.40
428,860.61,1118.53,2587.69,6257.00,902.40
430,860.93,1122.84,2785.65,6669.00,903.20
432,861.25,1127.14,3420.23,7505.20,911.80
434,861.56,1131.44,4027.17,8133.80,901.80
436,861.88,1135.74,3680.15,7672.60,899.80
438,862.20,1140.03,2650.12,6359.80,905.80
440,862.52,1144.32,1874.63,5189.20,905.40
442,862.84,1148.61,1540.38,4595.00,908.20
444,863.16,1152.89,1478.62,4446.80,899.20
446,863.48,1157.17,1657.61,4686.80,904.20
448,863.80,1161.45,1970.30,5050.80,906.80
450,864.12,1165.73,2047.88,5047.40,900.20
452,864.44,1170.00,1606.34,4474.80,903.00
454,864.76,1174.27,964.24,3616.20,907.40
456,865.07,1178.53,563.29,2939.80,893.40
458,865.39,1182.80,376.68,2590.80,903.20
460,865.71,1187.06,252.68,2368.60,904.20
462,866.03,1191.31,156.24,2213.40,904.80
464,866.35,1195.57,98.95,2118.60,902.80
466,866.67,1199.82,68.17,2075.00,905.40
468,866.99,1204.06,33.69,2029.20,908.00
470,867.31,1208.31,12.99,2008.40,908.20
472,867.63,1212.55,1.50,1997.60,902.80
474,867.95,1216.79,0.00,1975.00,889.20
476,868.27,1221.02,0.35,2012.40,903.80
478,868.58,1225.25,5.16,2019.60,890.40
480,868.90,1229.48,21.85,2055.80,903.80
482,869.22,1233.71,1.98,2061.00,911.40
484,869.54,1237.93,0.00,2047.80,919.00
486,869.86,1242.15,0.00,2049.40,901.60
488,870.18,1246.36,0.00,2060.20,890.40
490,870.50,1250.58,0.94,2115.20,903.00
492,870.82,1254.79,8.23,2165.60,918.40
494,871.14,1258.99,31.44,2200.00,901.40
496,871.46,1263.20,72.59,2277.60,912.00
498,871.78,1267.40,129.73,2364.40,903.00
500,872.10,1271.59,174.77,2452.00,901.80
502,872.41,1275.79,255.57,2590.80,895.60
504,872.73,1279.98,339.90,2737.40,900.40
506,873.05,1284.17,467.96,2954.00,907.00
508,873.37,1288.35,591.01,3142.60,889.20
510,873.69,1292.53,746.68,3404.80,899.40
512,874.01,1296.71,907.08,3662.20,902.60
514,874.33,1300.88,1046.38,3878.20,892.60
516,874.65,1305.06,1174.35,4091.40,903.20
518,874.97,1309.22,1247.39,4221.60,899.60
520,875.29,1313.39,1295.63,4308.00,901.40
522,875.60,1317.55,1360.50,4415.60,906.80
524,875.92,1321.71,1374.53,4468.80,901.00
526,876.24,1325.87,1416.19,4593.00,907.40
528,876.56,1330.02,1596.38,4910.00,899.60
530,876.88,1334.17,1931.59,5417.80,909.80
532,877.20,1338.32,2443.37,6027.80,894.80
534,877.52,1342.46,2703.71,6298.80,897.00
536,877.84,1346.60,2315.59,5879.60,903.80
538,878.16,1350.73,1750.58,5178.80,900.40
540,878.47,1354.87,1452.02,4715.60,901.60
542,878.79,1359.00,1380.32,4532.40,901.60
544,879.11,1363.13,1356.78,4436.60,897.60
546,879.43,1367.25,1333.37,4404.40,899.80
548,879.75,1371.37,1263.97,4347.60,896.80
550,880.07,1375.49,1256.78,4357.40,897.60
552,880.39,1379.60,1420.99,4550.40,900.40
554,880.71,1383.71,1532.45,4695.40,901.60
556,881.03,1387.82,1518.72,4739.60,898.80
558,881.34,1391.93,1564.98,4850.20,891.20
560,881.66,1396.03,1731.97,5112.00,894.80
562,881.98,1400.13,1995.16,5496.80,909.80
564,882.30,1404.22,2293.98,5902.80,904.20
566,882.62,1408.31,2465.10,6154.40,899.20
568,882.94,1412.40,2572.99,6345.20,905.00
570,883.26,1416.49,2562.11,6367.60,897.00
572,883.57,1420.57,2577.74,6424.60,911.60
574,883.89,1424.65,2644.46,6520.40,901.80
576,884.21,1428.73,2759.20,6727.80,910.40
578,884.53,1432.80,2963.98,7100.60,915.80
580,884.85,1436.87,3313.09,7779.20,900.00
582,885.17,1440.93,4029.29,9113.00,894.00
584,885.49,1445.00,5725.20,11554.60,900.00
586,885.80,1449.06,8353.11,14559.60,899.40
588,886.12,1453.11,9441.10,15777.40,913.80
590,886.44,1457.17,7921.16,14310.20,904.00
592,886.76,1461.22,6093.24,12043.20,903.00
594,887.08,1465.26,4993.56,10246.40,910.60
596,887.40,1469.31,4132.71,8748.20,898.00
598,887.71,1473.35,3175.08,7320.60,897.20
600,888.03,1477.38,2283.26,6058.60,901.60
602,888.35,1481.42,1660.85,5112.40,908.20
604,888.67,1485.45,1308.58,4506.40,900.60
606,888.99,1489.48,1055.84,4087.60,894.40
608,889.31,1493.50,845.02,3776.20,907.40
610,889.62,1497.52,701.89,3544.20,903.40
612,889.94,1501.54,594.86,3366.80,892.20
614,890.26,1505.56,503.14,3239.80,900.40
616,890.58,1509.57,419.11,3115.60,897.80
618,890.90,1513.57,353.54,3016.20,897.20
620,891.21,1517.58,299.46,2941.00,903.00
622,891.53,1521.58,254.30,2879.20,902.40
624,891.85,1525.58,214.97,2822.00,900.80
626,892.17,1529.57,202.54,2799.20,903.80
628,892.49,1533.57,163.09,2744.60,903.80
630,892.80,1537.56,115.87,2672.00,894.20
632,893.12,1541.54,65.17,2608.00,893.40
634,893.44,1545.52,25.21,2551.80,905.80
636,893.76,1549.50,9.98,2499.80,895.60
638,894.07,1553.48,0.00,2453.80,907.40
640,894.39,1557.45,0.78,2429.20,896.40
642,894.71,1561.42,0.00,2402.40,902.80
644,895.03,1565.39,0.00,2357.80,891.20
646,895.34,1569.35,0.00,2355.20,905.40
648,895.66,1573.31,0.00,2325.00,896.80
650,895.98,1577.26,0.00,2293.00,896.60
652,896.30,1581.22,0.00,2285.60,891.00
654,896.61,1585.17,0.00,2272.40,897.20
656,896.93,1589.11,0.00,2257.20,901.80
658,897.25,1593.06,9.11,2264.60,893.00
660,897.57,1597.00,2.00,2247.60,901.00
662,897.88,1600.93,4.95,2245.00,903.80
664,898.20,1604.87,26.97,2255.40,892.00
666,898.52,1608.80,26.70,2244.40,895.60
668,898.84,1612.72,40.07,2247.00,890.00
670,899.15,1616.65,58.65,2274.60,904.60
672,899.47,1620.57,58.23,2255.40,897.00
674,899.79,1624.49,66.61,2255.00,898.40
676,900.10,1628.40,71.04,2249.80,894.20
678,900.42,1632.31,87.05,2271.80,903.80
680,900.74,1636.22,93.14,2246.60,886.00
682,901.05,1640.12,102.06,2278.20,913.80
684,901.37,1644.02,93.86,2250.40,901.80
686,901.69,1647.92,132.04,2285.20,905.40
688,902.00,1651.82,123.10,2258.80,900.00
690,902.32,1655.71,146.06,2275.80,892.60
692,902.64,1659.60,152.24,2272.60,893.00
694,902.95,1663.48,172.98,2292.20,900.20
696,903.27,1667.36,184.57,2289.80,897.00
698,903.59,1671.24,172.35,2279.40,907.00
700,903.90,1675.11,178.20,2270.80,899.80
702,904.22,1678.99,168.49,2238.20,893.60
704,904.54,1682.85,186.69,2273.80,918.40
706,904.85,1686.72,178.00,2231.00,894.40
708,905.17,1690.58,200.28,2254.80,896.00
710,905.49,1694.44,196.11,2243.00,899.20
712,905.80,1698.29,223.20,2271.20,897.00
714,906.12,1702.15,261.32,2316.00,900.40
716,906.43,1706.00,342.14,2388.20,896.40
718,906.75,1709.84,400.36,2435.00,904.60
720,907.07,1713.68,382.59,2397.00,893.60
722,907.38,1717.52,284.47,2293.80,901.00
724,907.70,1721.36,204.20,2181.40,898.80
726,908.01,1725.19,169.79,2119.60,897.40
728,908.33,1729.02,142.68,2075.20,903.60
730,908.65,1732.85,122.31,2026.80,897.80
732,908.96,1736.67,116.14,2009.40,905.00
734,909.28,1740.49,102.73,1977.60,896.20
736,909.59,1744.30,78.68,1941.20,901.40
738,909.91,1748.12,78.15,1917.60,895.80
740,910.22,1751.93,56.12,1888.00,903.40
742,910.54,1755.73,48.10,1887.80,917.60
744,910.85,1759.54,23.90,1832.40,906.60
746,911.17,1763.34,36.83,1819.20,894.00
748,911.49,1767.13,8.54,1786.60,902.80
750,911.80,1770.93,1.16,1752.40,888.80
752,912.12,1774.72,6.96,1763.80,902.60
754,912.43,1778.50,8.70,1741.60,892.40
756,912.75,1782.29,4.51,1730.60,888.00
758,913.06,1786.07,0.00,1712.40,893.80
760,913.38,1789.84,4.93,1722.40,895.40
762,913.69,1793.62,18.93,1721.80,898.60
764,914.01,1797.39,11.48,1704.40,900.00
766,914.32,1801.15,12.22,1698.40,896.00
768,914.64,1804.92,0.45,1670.40,893.60
770,914.95,1808.68,0.00,1663.00,902.40
772,915.26,1812.44,10.71,1669.00,899.20
774,915.58,1816.19,20.89,1663.80,888.00
776,915.89,1819.94,21.24,1670.40,900.20
778,916.21,1823.69,39.93,1678.60,895.40
780,916.52,1827.43,40.21,1683.20,910.60
782,916.84,1831.17,52.12,1668.60,890.80
784,917.15,1834.91,45.36,1657.00,891.20
786,917.47,1838.64,53.78,1668.80,902.00
788,917.78,1842.38,56.64,1658.40,898.20
790,918.09,1846.10,53.82,1645.20,896.00
792,918.41,1849.83,59.11,1645.00,900.00
794,918.72,1853.55,48.08,1619.80,892.80
796,919.04,1857.27,50.58,1621.80,896.60
798,919.35,1860.98,62.40,1623.80,897.80
800,919.66,1864.69,64.43,1617.00,896.20
802,919.98,1868.40,71.75,1621.20,898.20
804,920.29,1872.11,78.18,1616.80,898.00
806,920.60,1875.81,78.30,1603.00,893.40
808,920.92,1879.51,73.38,1592.80,893.00
810,921.23,1883.20,58.90,1581.80,902.80
812,921.55,1886.90,71.43,1574.40,893.40
814,921.86,1890.58,103.07,1602.60,901.60
816,922.17,1894.27,75.88,1578.00,907.40
818,922.49,1897.95,66.30,1555.40,900.20
820,922.80,1901.63,85.55,1557.60,894.80
822,923.11,1905.31,76.82,1543.20,899.60
824,923.42,1908.98,74.27,1535.40,899.80
826,923.74,1912.65,65.81,1523.80,902.00
828,924.05,1916.31,66.39,1509.40,895.20
830,924.36,1919.98,75.14,1503.60,893.40
832,924.68,1923.64,74.65,1497.60,894.20
834,924.99,1927.29,70.20,1484.40,890.80
836,925.30,1930.94,75.72,1480.20,890.00
838,925.61,1934.59,64.43,1468.20,898.00
840,925.93,1938.24,78.64,1471.40,891.80
842,926.24,1941.88,75.63,1467.40,900.80
844,926.55,1945.52,86.34,1462.00,893.40
846,926.86,1949.16,70.87,1445.00,898.20
848,927.18,1952.79,79.53,1445.20,895.60
850,927.49,1956.42,68.67,1426.40,898.20
852,927.80,1960.05,64.21,1440.80,925.20
854,928.11,1963.67,57.11,1399.60,899.40
856,928.42,1967.29,52.46,1389.80,900.60
858,928.74,1970.91,41.57,1369.60,896.80
860,929.05,1974.52,50.53,1368.00,897.00
862,929.36,1978.13,54.16,1354.20,890.40
864,929.67,1981.74,29.88,1333.20,898.80
866,929.98,1985.35,24.18,1320.60,900.40
868,930.29,1988.95,16.90,1303.20,898.00
870,930.61,1992.54,9.19,1288.60,895.20
872,930.92,1996.14,0.89,1272.20,898.40
874,931.23,1999.73,20.89,1283.40,899.00
876,931.54,2003.32,5.17,1264.60,899.00
878,931.85,2006.90,0.55,1249.20,896.00
880,932.16,2010.48,0.66,1240.60,894.20
882,932.47,2014.06,5.77,1239.00,895.40
884,932.78,2017.63,10.51,1241.40,899.80
886,933.09,2021.21,0.00,1217.80,899.00
888,933.41,2024.77,0.10,1220.40,899.80
890,933.72,2028.34,5.17,1230.40,907.80
892,934.03,2031.90,6.17,1209.20,896.40
894,934.34,2035.46,8.53,1212.20,901.40
896,934.65,2039.01,10.10,1198.60,890.00
898,934.96,2042.57,14.29,1204.80,899.20
900,935.27,2046.11,13.89,1207.40,909.60
902,935.58,2049.66,9.74,1176.20,886.80
904,935.89,2053.20,14.46,1188.60,898.20
906,936.20,2056.74,14.40,1181.60,897.00
908,936.51,2060.28,19.94,1183.20,900.20
910,936.82,2063.81,35.15,1189.80,898.40
912,937.13,2067.34,18.01,1172.40,900.60
914,937.44,2070.86,27.51,1172.60,897.40
916,937.75,2074.39,37.44,1168.60,893.80
918,938.06,2077.91,37.30,1163.60,893.40
920,938.37,2081.42,23.33,1153.40,898.80
922,938.68,2084.94,9.50,1136.60,900.60
924,938.99,2088.45,8.21,1123.20,895.60
926,939.30,2091.95,16.96,1131.80,901.80
928,939.60,2095.46,14.86,1114.20,889.20
930,939.91,2098.96,15.18,1121.80,903.20
932,940.22,2102.45,11.59,1110.60,900.40
934,940.53,2105.95,12.91,1099.60,892.00
936,940.84,2109.44,23.08,1107.40,897.40
938,941.15,2112.92,17.61,1099.40,901.20
940,941.46,2116.41,22.62,1092.00,893.80
942,941.77,2119.89,18.37,1090.60,900.20
944,942.07,2123.37,12.50,1078.80,897.80
946,942.38,2126.84,8.03,1069.40,898.20
948,942.69,2130.31,7.25,1062.20,898.20
950,943.00,2133.78,6.42,1052.00,892.40
952,943.31,2137.24,0.69,1049.80,900.00
954,943.62,2140.70,0.00,1041.40,902.00
956,943.92,2144.16,1.81,1033.60,892.60
958,944.23,2147.62,0.00,1032.80,901.40
960,944.54,2151.07,0.00,1036.60,908.60
962,944.85,2154.52,0.06,1042.60,911.00
964,945.16,2157.96,0.00,1030.00,902.20
966,945.46,2161.40,2.13,1035.60,903.40
968,945.77,2164.84,0.00,1014.00,891.00
970,946.08,2168.28,0.00,1025.20,899.00
972,946.39,2171.71,1.19,1025.60,898.60
974,946.69,2175.14,4.07,1024.80,895.80
976,947.00,2178.57,0.00,1021.00,896.20
978,947.31,2181.99,7.26,1021.60,890.00
980,947.61,2185.41,5.55,1034.40,904.40
982,947.92,2188.82,2.89,1030.20,903.40
984,948.23,2192.24,10.69,1025.20,891.40
986,948.53,2195.65,21.67,1036.00,896.60
988,948.84,2199.05,22.41,1020.20,881.20
990,949.15,2202.46,8.41,1029.20,897.20
992,949.45,2205.86,1.63,1023.80,897.80
994,949.76,2209.25,1.32,1018.20,894.00
996,950.07,2212.65,17.40,1026.20,890.20
998,950.37,2216.04,5.71,1021.40,895.20
1000,950.68,2219.43,10.83,1023.40,891.80
1002,950.98,2222.81,7.14,1029.80,900.40
1004,951.29,2226.19,16.42,1030.20,892.80
1006,951.60,2229.57,14.70,1027.20,891.20
1008,951.90,2232.94,17.08,1031.00,892.60
1010,952.21,2236.32,35.09,1046.20,894.00
1012,952.51,2239.68,32.03,1054.20,903.40
1014,952.82,2243.05,43.12,1046.80,886.40
1016,953.12,2246.41,55.08,1071.20,902.80
1018,953.43,2249.77,56.61,1086.20,914.60
1020,953.73,2253.12,56.01,1079.40,906.20
1022,954.04,2256.48,67.83,1069.00,887.20
1024,954.34,2259.83,90.76,1101.00,903.40
1026,954.65,2263.17,85.38,1087.40,894.80
1028,954.95,2266.51,89.15,1091.40,894.60
1030,955.26,2269.85,83.73,1103.80,909.20
1032,955.56,2273.19,84.37,1098.00,902.60
1034,955.87,2276.52,86.26,1097.60,902.20
1036,956.17,2279.85,91.24,1104.20,905.40
1038,956.48,2283.18,93.65,1087.60,888.00
1040,956.78,2286.50,97.93,1092.40,889.20
1042,957.08,2289.82,93.66,1089.20,887.60
1044,957.39,2293.14,97.14,1101.00,898.20
1046,957.69,2296.45,118.70,1105.40,890.40
1048,957.99,2299.76,101.06,1104.00,903.60
1050,958.30,2303.07,96.31,1094.60,894.40
1052,958.60,2306.38,63.55,1075.20,898.60
1054,958.91,2309.68,57.63,1067.20,897.20
1056,959.21,2312.98,53.74,1054.00,887.60
1058,959.51,2316.27,37.90,1050.20,894.20
1060,959.82,2319.56,41.71,1067.20,909.20
1062,960.12,2322.85,43.02,1053.00,896.40
1064,960.42,2326.14,52.86,1057.20,893.60
1066,960.72,2329.42,57.75,1064.60,899.80
1068,961.03,2332.70,57.34,1061.60,897.60
1070,961.33,2335.97,43.02,1053.40,897.80
1072,961.63,2339.25,34.79,1042.80,893.20
1074,961.93,2342.52,31.59,1041.00,892.00
1076,962.24,2345.78,18.26,1037.80,899.00
1078,962.54,2349.05,30.01,1042.20,896.40
1080,962.84,2352.31,29.69,1039.80,895.20
1082,963.14,2355.56,31.85,1042.20,894.60
1084,963.45,2358.82,54.69,1056.40,891.40
1086,963.75,2362.07,48.07,1065.40,905.60
1088,964.05,2365.32,86.34,1096.40,909.40
1090,964.35,2368.56,102.69,1092.20,897.00
1092,964.65,2371.80,117.76,1108.80,902.80
1094,964.95,2375.04,122.38,1105.80,894.80
1096,965.25,2378.27,120.01,1100.40,893.20
1098,965.56,2381.51,134.78,1116.80,901.40
1100,965.86,2384.73,112.89,1103.60,901.40
1102,966.16,2387.96,104.45,1090.40,893.40
1104,966.46,2391.18,93.85,1092.80,904.00
1106,966.76,2394.40,91.42,1081.60,895.60
1108,967.06,2397.62,70.71,1075.20,904.40
1110,967.36,2400.83,55.33,1053.60,893.20
1112,967.66,2404.04,45.76,1062.60,907.00
1114,967.96,2407.25,34.16,1037.80,891.60
1116,968.26,2410.45,54.28,1052.40,895.00
1118,968.56,2413.65,51.63,1047.40,892.40
1120,968.86,2416.85,45.58,1060.40,910.00
1122,969.16,2420.04,48.93,1051.80,899.20
1124,969.46,2423.23,38.27,1041.00,894.80
1126,969.76,2426.42,32.44,1035.80,895.00
1128,970.06,2429.60,26.74,1023.80,888.40
1130,970.36,2432.79,5.58,1022.80,899.60
1132,970.66,2435.96,2.77,1017.80,892.40
1134,970.96,2439.14,0.03,1016.00,897.00
1136,971.26,2442.31,0.00,1020.20,902.20
1138,971.56,2445.48,6.32,1021.40,898.80
1140,971.86,2448.65,0.00,1011.00,895.40
1142,972.16,2451.81,0.00,1021.80,904.20
1144,972.45,2454.97,0.00,1014.60,898.40
1146,972.75,2458.13,4.36,1022.80,897.00
1148,973.05,2461.28,6.65,1024.20,894.40
1150,973.35,2464.43,6.87,1030.80,899.60
1152,973.65,2467.58,15.92,1034.40,896.80
1154,973.95,2470.72,15.45,1034.80,895.40
1156,974.24,2473.86,15.09,1037.60,895.80
1158,974.54,2477.00,27.74,1043.20,892.60
1160,974.84,2480.13,38.30,1057.40,899.80
1162,975.14,2483.27,36.99,1057.40,898.20
1164,975.43,2486.40,41.88,1049.40,884.80
1166,975.73,2489.52,38.72,1058.80,894.40
1168,976.03,2492.64,41.21,1057.40,889.60
1170,976.33,2495.76,42.77,1070.80,900.60
1172,976.62,2498.88,48.86,1069.80,894.60
1174,976.92,2501.99,48.03,1081.20,904.20
1176,977.22,2505.10,48.55,1078.20,900.80
1178,977.51,2508.21,60.16,1080.40,897.20
1180,977.81,2511.31,54.09,1080.60,897.60
1182,978.11,2514.41,48.09,1080.00,898.00
1184,978.40,2517.51,41.03,1074.40,894.80
1186,978.70,2520.61,23.59,1071.40,900.00
1188,979.00,2523.70,36.18,1082.80,902.20
1190,979.29,2526.79,37.43,1073.40,892.80
1192,979.59,2529.87,47.47,1081.60,896.00
1194,979.88,2532.95,39.08,1071.00,888.80
1196,980.18,2536.03,24.93,1075.80,899.60
1198,980.48,2539.11,21.36,1084.00,906.60
1200,980.77,2542.18,3.31,1066.00,896.80
1202,981.07,2545.25,0.00,1071.40,909.40
1204,981.36,2548.32,0.00,1059.80,900.40
1206,981.66,2551.38,0.00,1075.20,909.20
1208,981.95,2554.44,0.00,1072.20,902.20
1210,982.25,2557.50,0.00,1090.20,911.20
1212,982.54,2560.56,0.37,1092.00,905.80
1214,982.84,2563.61,0.00,1098.60,909.80
1216,983.13,2566.66,0.00,1103.40,907.00
1218,983.43,2569.70,0.00,1111.80,907.40
1220,983.72,2572.74,9.44,1126.40,906.60
1222,984.01,2575.78,4.64,1126.40,905.40
1224,984.31,2578.82,18.65,1129.60,895.20
1226,984.60,2581.85,39.59,1157.60,903.80
1228,984.90,2584.88,27.07,1151.40,896.00
1230,985.19,2587.91,52.80,1175.80,900.00
1232,985.48,2590.93,74.71,1197.20,906.60
1234,985.78,2593.96,110.56,1213.60,900.00
1236,986.07,2596.97,131.28,1231.20,900.40
1238,986.36,2599.99,130.86,1250.20,912.00
1240,986.66,2603.00,154.80,1265.80,910.00
1242,986.95,2606.01,191.60,1284.40,906.40
1244,987.24,2609.01,203.74,1294.80,905.00
1246,987.54,2612.02,219.41,1292.00,887.60
1248,987.83,2615.02,224.80,1320.00,907.60
1250,988.12,2618.01,253.28,1337.60,906.80
1252,988.41,2621.01,289.71,1358.60,906.20
1254,988.71,2624.00,300.23,1359.20,898.00
1256,989.00,2626.99,298.58,1369.00,903.00
1258,989.29,2629.97,292.09,1374.40,905.00
1260,989.58,2632.95,305.57,1389.20,908.60
1262,989.87,2635.93,331.26,1404.20,908.20
1264,990.16,2638.91,320.01,1393.40,897.20
1266,990.46,2641.88,324.25,1410.80,906.60
1268,990.75,2644.85,355.58,1441.00,918.20
1270,991.04,2647.81,391.10,1445.60,902.00
1272,991.33,2650.78,426.05,1469.00,906.20
1274,991.62,2653.74,489.00,1498.00,909.40
1276,991.91,2656.70,550.61,1510.00,898.80
1278,992.20,2659.65,544.15,1516.00,905.00
1280,992.49,2662.60,461.41,1482.20,901.00
1282,992.78,2665.55,401.08,1473.80,915.20
1284,993.07,2668.50,307.12,1435.00,913.00
1286,993.36,2671.44,190.48,1394.20,913.20
1288,993.65,2674.38,84.68,1364.80,910.80
1290,993.94,2677.31,6.85,1318.00,903.80
1292,994.23,2680.25,0.50,1312.80,903.80
1294,994.52,2683.18,0.00,1314.00,910.80
1296,994.81,2686.10,0.00,1320.60,906.20
1298,995.10,2689.03,5.32,1336.00,905.40
1300,995.39,2691.95,61.28,1375.00,900.60
1302,995.68,2694.87,162.63,1431.20,914.20
1304,995.97,2697.78,327.68,1492.40,908.60
1306,996.26,2700.70,477.24,1546.40,898.00
1308,996.55,2703.61,660.48,1642.00,903.80
1310,996.84,2706.51,811.92,1734.60,914.20
1312,997.13,2709.42,1140.47,1877.60,908.60
1314,997.41,2712.32,1563.48,2036.20,908.60
1316,997.70,2715.21,2119.41,2215.80,908.20
1318,997.99,2718.11,2629.27,2358.00,902.60
1320,998.28,2721.00,2777.45,2397.60,897.80
1322,998.57,2723.89,2460.25,2331.20,917.20
1324,998.86,2726.77,1977.38,2168.60,899.80
1326,999.14,2729.66,1517.12,2018.40,904.00
1328,999.43,2732.54,1166.47,1895.60,905.40
1330,999.72,2735.41,862.75,1779.60,903.00
1332,1000.01,2738.29,716.28,1735.00,914.80
1334,1000.29,2741.16,727.80,1727.20,905.40
1336,1000.58,2744.03,765.56,1724.40,898.60
1338,1000.87,2746.89,938.24,1785.80,913.00
1340,1001.15,2749.75,1047.85,1800.00,903.80
1342,1001.44,2752.61,978.82,1782.20,908.80
1344,1001.73,2755.47,875.84,1746.20,897.40
1346,1002.01,2758.32,658.79,1685.20,904.20
1348,1002.30,2761.17,513.22,1642.00,907.80
1350,1002.59,2764.02,335.49,1588.80,912.60
1352,1002.87,2766.86,177.30,1529.40,900.40
1354,1003.16,2769.70,55.10,1490.80,898.20
1356,1003.44,2772.54,4.96,1471.20,900.80
1358,1003.73,2775.38,0.00,1466.60,906.60
1360,1004.01,2778.21,0.00,1465.00,897.00
1362,1004.30,2781.04,0.00,1472.00,903.20
1364,1004.58,2783.87,0.00,1471.80,902.60
1366,1004.87,2786.69,0.00,1477.20,893.60
1368,1005.15,2789.51,0.00,1491.20,906.80
1370,1005.44,2792.33,0.00,1524.40,911.20
1372,1005.72,2795.14,0.00,1529.60,910.80
1374,1006.01,2797.95,0.00,1554.40,909.80
1376,1006.29,2800.76,0.00,1565.00,900.40
1378,1006.58,2803.57,0.00,1616.60,913.40
1380,1006.86,2806.37,0.00,1633.40,899.00
1382,1007.14,2809.17,0.00,1673.00,909.40
1384,1007.43,2811.97,0.00,1703.20,902.00
1386,1007.71,2814.77,0.68,1736.80,896.00
1388,1008.00,2817.56,0.00,1771.00,899.80
1390,1008.28,2820.35,16.87,1818.20,906.20
1392,1008.56,2823.13,49.37,1855.60,900.40
1394,1008.85,2825.91,120.19,1914.60,910.60
1396,1009.13,2828.69,253.87,1964.00,905.40
1398,1009.41,2831.47,520.49,2048.40,910.80
1400,1009.69,2834.24,829.37,2118.40,897.40
1402,1009.98,2837.02,1284.64,2252.40,903.40
1404,1010.26,2839.78,1730.11,2385.60,909.80
1406,1010.54,2842.55,2281.33,2536.00,900.80
1408,1010.82,2845.31,2968.52,2742.00,907.80
1410,1011.11,2848.07,3693.53,2958.00,913.80
1412,1011.39,2850.83,4662.21,3233.00,909.80
1414,1011.67,2853.58,5779.57,3548.80,908.40
1416,1011.95,2856.33,7153.26,3942.60,910.40
1418,1012.23,2859.08,8839.46,4413.60,907.40
1420,1012.51,2861.83,10980.06,4999.60,907.00
1422,1012.80,2864.57,13403.10,5674.60,925.00
1424,1013.08,2867.31,16125.16,6404.00,920.20
1426,1013.36,2870.04,19420.58,7248.60,913.60
1428,1013.64,2872.78,23183.74,8144.40,910.60
1430,1013.92,2875.51,26869.15,8972.20,924.20
1432,1014.20,2878.24,30023.20,9622.40,911.20
1434,1014.48,2880.96,31468.49,9881.20,908.20
1436,1014.76,2883.68,31334.37,9821.40,903.00
1438,1015.04,2886.40,29304.62,9372.20,904.20
1440,1015.32,2889.12,26620.21,8782.00,913.60
1442,1015.60,2891.83,24206.18,8190.20,906.60
1444,1015.88,2894.54,22683.49,7778.20,912.60
1446,1016.16,2897.25,21969.55,7528.60,899.40
1448,1016.44,2899.96,21912.72,7479.00,909.80
1450,1016.72,2902.66,22419.94,7569.40,909.20
1452,1017.00,2905.36,23874.16,7892.20,923.00
1454,1017.28,2908.06,26210.07,8350.20,905.20
1456,1017.55,2910.75,29216.61,8946.60,916.40
1458,1017.83,2913.44,32214.98,9494.60,905.00
1460,1018.11,2916.13,34555.20,9917.60,908.20
1462,1018.39,2918.81,35704.64,10101.40,914.00
1464,1018.67,2921.49,35932.62,10110.40,908.20
1466,1018.95,2924.17,34860.27,9889.80,911.20
1468,1019.22,2926.85,33220.87,9567.00,908.00
1470,1019.50,2929.52,31564.61,9195.20,903.80
1472,1019.78,2932.20,31293.72,9040.80,903.80
1474,1020.06,2934.86,31565.21,8895.20,907.00
1476,1020.33,2937.53,31914.10,8741.00,921.40
1478,1020.61,2940.19,31055.30,8398.60,909.00
1480,1020.89,2942.85,27708.69,7711.40,912.60
1482,1021.17,2945.51,23153.50,6829.20,907.60
1484,1021.44,2948.16,19261.24,6056.20,910.80
1486,1021.72,2950.81,16206.66,5393.00,905.40
1488,1022.00,2953.46,14410.51,4981.80,914.80
1490,1022.27,2956.11,13803.54,4799.00,904.60
1492,1022.55,2958.75,14120.41,4844.20,916.40
1494,1022.82,2961.39,15359.50,5061.60,905.80
1496,1023.10,2964.03,17728.47,5501.80,918.80
1498,1023.38,2966.66,21063.19,6041.20,911.20
1500,1023.65,2969.29,25063.35,6650.20,911.60
1502,1023.93,2971.92,27994.45,7057.40,916.20
1504,1024.20,2974.55,28657.99,7108.60,914.80
1506,1024.48,2977.17,27257.90,6846.40,911.00
1508,1024.75,2979.79,24315.64,6317.80,902.40
1510,1025.03,2982.41,20614.19,5650.60,905.40
1512,1025.30,2985.02,16870.32,4947.20,901.80
1514,1025.58,2987.63,13484.60,4301.20,910.80
1516,1025.85,2990.24,10587.02,3708.20,901.20
1518,1026.13,2992.85,8468.26,3274.20,912.20
1520,1026.40,2995.45,6872.64,2925.20,909.20
1522,1026.68,2998.05,5685.66,2655.40,901.80
1524,1026.95,3000.65,4747.28,2459.00,912.80
1526,1027.22,3003.25,3942.52,2274.80,900.40
1528,1027.50,3005.84,3135.31,2113.60,902.80
1530,1027.77,3008.43,2562.63,2004.20,909.60
1532,1028.04,3011.02,2043.98,1898.20,910.80
1534,1028.32,3013.60,1571.44,1797.00,906.60
1536,1028.59,3016.18,1132.89,1716.00,908.20
1538,1028.86,3018.76,667.86,1619.60,894.80
1540,1029.14,3021.34,352.67,1574.00,909.80
1542,1029.41,3023.91,215.79,1522.20,899.20
1544,1029.68,3026.48,92.52,1470.80,897.00
1546,1029.95,3029.05,13.66,1431.20,905.60
1548,1030.22,3031.61,1.74,1397.80,905.80
1550,1030.50,3034.17,0.00,1352.20,898.00
1552,1030.77,3036.73,0.00,1321.80,903.80
1554,1031.04,3039.29,0.00,1300.60,910.00
1556,1031.31,3041.84,0.07,1271.80,895.80
1558,1031.58,3044.39,0.00,1261.80,918.00
1560,1031.85,3046.94,0.00,1233.40,913.60
1562,1032.13,3049.49,0.00,1209.80,901.40
1564,1032.40,3052.03,0.00,1207.80,910.20
1566,1032.67,3054.57,0.00,1178.80,901.40
1568,1032.94,3057.11,0.00,1180.60,920.00
1570,1033.21,3059.64,30.73,1152.20,891.80
1572,1033.48,3062.18,0.00,1143.40,905.80
1574,1033.75,3064.70,0.00,1138.00,910.80
1576,1034.02,3067.23,1.31,1133.60,910.20
1578,1034.29,3069.75,0.00,1103.60,902.00
1580,1034.56,3072.28,0.00,1112.80,910.00
1582,1034.83,3074.79,8.12,1095.40,897.60
1584,1035.10,3077.31,21.53,1102.20,909.40
1586,1035.37,3079.82,21.85,1087.20,900.80
1588,1035.64,3082.33,0.00,1095.40,919.80
1590,1035.91,3084.84,0.00,1077.60,911.20
1592,1036.17,3087.34,0.00,1070.00,903.80
1594,1036.44,3089.85,0.00,1083.40,919.40
1596,1036.71,3092.35,88.42,1069.40,898.60
1598,1036.98,3094.84,0.00,1053.40,901.00
1600,1037.25,3097.34,6.64,1055.40,899.60
1602,1037.52,3099.83,6.57,1059.60,906.20
1604,1037.78,3102.32,21.81,1058.40,905.80
1606,1038.05,3104.80,84.36,1065.60,910.20
1608,1038.32,3107.29,17.09,1050.40,903.80
1610,1038.59,3109.77,0.00,1051.20,909.60
1612,1038.85,3112.24,0.00,1042.80,904.20
1614,1039.12,3114.72,0.00,1054.20,915.80
1616,1039.39,3117.19,0.00,1030.60,897.80
1618,1039.66,3119.66,1.94,1048.40,910.80
1620,1039.92,3122.13,0.00,1046.40,911.80
1622,1040.19,3124.59,21.03,1043.40,903.80
1624,1040.45,3127.05,54.02,1038.20,898.40
1626,1040.72,3129.51,45.03,1051.20,912.60
1628,1040.99,3131.97,14.98,1046.60,911.40
1630,1041.25,3134.42,85.75,1057.00,912.20
1632,1041.52,3136.87,21.60,1033.40,899.20
1634,1041.78,3139.32,106.33,1051.00,908.20
1636,1042.05,3141.77,202.14,1081.40,930.60
1638,1042.32,3144.21,212.31,1057.60,906.80
1640,1042.58,3146.65,152.76,1061.00,916.80
1642,1042.85,3149.09,192.16,1058.20,910.00
1644,1043.11,3151.52,238.35,1061.00,908.60
1646,1043.38,3153.96,297.07,1070.60,913.60
1648,1043.64,3156.39,320.39,1062.20,905.40
1650,1043.90,3158.81,408.65,1070.60,906.20
1652,1044.17,3161.24,464.30,1081.60,911.40
1654,1044.43,3163.66,425.24,1068.60,903.40
1656,1044.70,3166.08,526.58,1093.00,920.00
1658,1044.96,3168.49,648.05,1087.40,904.80
1660,1045.22,3170.91,622.37,1086.20,906.60
1662,1045.49,3173.32,601.29,1087.80,910.80
1664,1045.75,3175.73,677.08,1093.40,910.60
1666,1046.01,3178.13,724.91,1093.00,907.00
1668,1046.28,3180.54,782.67,1109.20,918.60
1670,1046.54,3182.94,846.09,1108.40,915.00
1672,1046.80,3185.34,1113.70,1121.60,907.20
1674,1047.07,3187.73,998.38,1102.40,900.00
1676,1047.33,3190.12,1054.18,1119.00,910.20
1678,1047.59,3192.51,1027.05,1118.00,911.80
1680,1047.85,3194.90,1028.37,1126.60,922.40
1682,1048.11,3197.29,1147.68,1125.20,913.60
1684,1048.38,3199.67,1321.48,1136.00,912.80
1686,1048.64,3202.05,1338.23,1138.00,916.00
1688,1048.90,3204.43,1317.43,1129.20,909.60
1690,1049.16,3206.80,1318.29,1127.40,907.80
1692,1049.42,3209.17,1381.68,1136.80,913.20
1694,1049.68,3211.54,1507.36,1137.40,906.60
1696,1049.94,3213.91,1508.03,1135.20,908.00
1698,1050.20,3216.27,1505.19,1136.60,910.40
1700,1050.46,3218.63,1563.39,1147.60,916.20
1702,1050.72,3220.99,1548.82,1140.00,912.40
1704,1050.98,3223.35,1713.23,1150.20,913.60
1706,1051.24,3225.70,1788.23,1144.60,905.80
1708,1051.50,3228.05,1847.94,1147.40,905.40
1710,1051.76,3230.40,1813.95,1156.40,917.60
1712,1052.02,3232.75,1807.22,1147.40,910.40
1714,1052.28,3235.09,1887.64,1159.20,918.40
1716,1052.54,3237.43,1946.56,1157.40,915.00
1718,1052.80,3239.77,1846.37,1136.20,904.20
1720,1053.06,3242.11,1990.38,1149.80,908.60
1722,1053.32,3244.44,1913.63,1139.20,905.80
1724,1053.58,3246.77,2032.71,1162.80,923.00
1726,1053.84,3249.10,2122.48,1154.60,910.60
1728,1054.10,3251.42,1914.20,1142.80,916.40
1730,1054.35,3253.75,2196.81,1149.20,904.60
1732,1054.61,3256.07,2132.26,1151.20,913.60
1734,1054.87,3258.39,2154.79,1150.00,912.40
1736,1055.13,3260.70,2224.91,1147.00,906.60
1738,1055.38,3263.01,2155.61,1139.20,907.00
1740,1055.64,3265.32,2300.36,1147.80,909.00
1742,1055.90,3267.63,2320.13,1135.80,897.60
1744,1056.16,3269.94,2194.25,1148.00,919.00
1746,1056.41,3272.24,2208.61,1149.80,921.60
1748,1056.67,3274.54,2259.51,1143.80,915.60
1750,1056.93,3276.84,2346.19,1142.80,911.20
1752,1057.18,3279.13,2174.02,1129.60,909.80
1754,1057.44,3281.42,2236.72,1128.80,906.20
1756,1057.69,3283.71,2237.96,1126.40,907.80
1758,1057.95,3286.00,2413.03,1145.40,920.20
1760,1058.21,3288.28,2458.31,1130.60,904.60
1762,1058.46,3290.57,2245.29,1130.60,918.00
1764,1058.72,3292.85,2205.37,1126.00,916.80
1766,1058.97,3295.12,2353.14,1123.20,907.00
1768,1059.23,3297.40,2251.08,1114.80,907.40
1770,1059.48,3299.67,2219.72,1116.40,913.80
1772,1059.74,3301.94,2387.24,1113.80,904.20
1774,1059.99,3304.21,2392.20,1122.80,914.20
1776,1060.25,3306.47,2320.39,1124.40,919.80
1778,1060.50,3308.73,2317.39,1110.40,907.40
1780,1060.76,3310.99,2405.58,1114.00,910.60
1782,1061.01,3313.25,2468.22,1114.60,912.80
1784,1061.26,3315.50,2499.63,1111.20,909.40
1786,1061.52,3317.76,2333.42,1110.60,916.40
1788,1061.77,3320.01,2261.34,1110.20,918.80
1790,1062.02,3322.25,2230.65,1092.60,905.00
1792,1062.28,3324.50,2509.75,1107.20,909.00
1794,1062.53,3326.74,2389.03,1091.60,904.20
1796,1062.78,3328.98,2675.48,1105.80,906.20
1798,1063.04,3331.22,2529.37,1101.60,910.80
1800,1063.29,3333.45,2342.75,1086.80,905.80
1802,1063.54,3335.68,2442.39,1094.60,909.00
1804,1063.79,3337.91,2328.97,1095.80,918.20
1806,1064.05,3340.14,2428.99,1100.60,920.60
1808,1064.30,3342.36,2388.36,1079.80,903.00
1810,1064.55,3344.59,2239.19,1086.40,917.60
1812,1064.80,3346.81,2378.25,1080.20,906.80
1814,1065.05,3349.02,2613.67,1084.20,903.20
1816,1065.30,3351.24,2481.36,1087.80,916.00
1818,1065.55,3353.45,2475.65,1076.40,906.20
1820,1065.81,3355.66,2394.35,1090.20,924.40
1822,1066.06,3357.87,2347.36,1074.60,911.60
1824,1066.31,3360.07,2399.26,1062.60,898.00
1826,1066.56,3362.27,2288.24,1075.80,917.40
1828,1066.81,3364.47,2286.39,1062.40,905.80
1830,1067.06,3366.67,2329.98,1062.40,906.60
1832,1067.31,3368.87,2526.03,1068.00,906.80
1834,1067.56,3371.06,2426.47,1053.80,899.00
1836,1067.81,3373.25,2397.75,1050.20,897.00
1838,1068.06,3375.44,2354.67,1051.60,900.20
1840,1068.31,3377.62,2371.84,1057.40,906.60
1842,1068.56,3379.81,2420.55,1047.40,897.40
1844,1068.80,3381.99,2484.72,1069.40,919.40
1846,1069.05,3384.16,2493.87,1059.40,910.40
1848,1069.30,3386.34,2440.73,1051.00,905.00
1850,1069.55,3388.51,2333.84,1047.40,906.60
1852,1069.80,3390.68,2169.31,1042.20,908.60
1854,1070.05,3392.85,2139.17,1059.00,927.20
1856,1070.30,3395.02,2307.92,1045.60,908.60
1858,1070.54,3397.18,2189.74,1033.80,904.00
1860,1070.79,3399.34,2454.31,1046.00,908.60
1862,1071.04,3401.50,2411.36,1039.60,905.20
1864,1071.29,3403.66,2161.83,1022.00,897.80
1866,1071.53,3405.81,2198.43,1033.40,909.00
1868,1071.78,3407.96,2154.95,1029.20,907.00
1870,1072.03,3410.11,2094.07,1033.60,913.60
1872,1072.27,3412.26,2066.02,1027.20,909.20
1874,1072.52,3414.40,2153.63,1021.80,903.40
1876,1072.77,3416.54,2153.69,1019.00,903.60
1878,1073.01,3418.68,2167.24,1029.60,915.00
1880,1073.26,3420.82,1976.44,1000.40,891.80
1882,1073.51,3422.96,2126.61,1023.60,909.20
1884,1073.75,3425.09,2122.24,1021.40,908.00
1886,1074.00,3427.22,1877.70,1004.00,901.00
1888,1074.24,3429.35,1876.80,1018.60,917.40
1890,1074.49,3431.47,1970.87,1006.00,902.60
1892,1074.73,3433.59,1815.65,998.00,900.20
1894,1074.98,3435.71,1974.96,1016.20,914.20
1896,1075.22,3437.83,1855.58,1005.40,909.00
1898,1075.47,3439.95,1999.93,1009.00,910.20
1900,1075.71,3442.06,2307.81,1015.80,909.20
1902,1075.96,3444.17,1943.43,1004.80,909.40
1904,1076.20,3446.28,1854.42,982.20,888.80
1906,1076.44,3448.38,1732.29,1009.80,919.60
1908,1076.69,3450.49,1546.42,1001.80,918.00
1910,1076.93,3452.59,1729.87,997.60,910.20
1912,1077.17,3454.69,1779.27,990.20,904.00
1914,1077.42,3456.79,1772.57,991.20,907.00
1916,1077.66,3458.88,1854.28,987.80,901.80
1918,1077.90,3460.97,1649.22,983.60,903.00
1920,1078.15,3463.06,1893.73,996.80,908.80
1922,1078.39,3465.15,1497.15,986.80,910.60
1924,1078.63,3467.23,1687.78,975.60,895.40
1926,1078.87,3469.32,1733.49,993.40,913.80
1928,1079.12,3471.40,1615.50,976.40,901.00
1930,1079.36,3473.47,1458.93,995.80,924.60
1932,1079.60,3475.55,1434.94,965.40,894.80
1934,1079.84,3477.62,1309.27,977.80,911.40
1936,1080.08,3479.69,1420.36,972.00,904.40
1938,1080.33,3481.76,1703.88,971.00,898.20
1940,1080.57,3483.83,1448.64,972.80,907.00
1942,1080.81,3485.89,1427.71,973.40,907.40
1944,1081.05,3487.95,1295.54,977.80,914.20
1946,1081.29,3490.01,1091.84,966.40,908.40
1948,1081.53,3492.07,1144.61,962.00,904.20
1950,1081.77,3494.12,1103.31,961.00,905.80
1952,1082.01,3496.18,1263.95,974.80,916.40
1954,1082.25,3498.23,1012.07,956.20,903.40
1956,1082.49,3500.27,863.89,957.20,907.80
1958,1082.73,3502.32,968.25,953.60,902.20
1960,1082.97,3504.36,1023.75,961.60,910.00
1962,1083.21,3506.40,747.50,950.40,906.20
1964,1083.45,3508.44,1121.86,944.20,892.60
1966,1083.69,3510.48,1329.46,970.00,914.20
1968,1083.93,3512.51,632.12,954.80,914.00
1970,1084.16,3514.54,1128.44,954.80,902.20
1972,1084.40,3516.57,1058.10,951.00,900.00
1974,1084.64,3518.60,572.14,941.80,903.00
1976,1084.88,3520.62,605.92,955.40,917.20
1978,1085.12,3522.65,977.61,960.60,916.20
1980,1085.36,3524.67,854.10,952.00,910.00
1982,1085.59,3526.68,821.99,943.60,901.40
1984,1085.83,3528.70,668.23,954.00,914.80
1986,1086.07,3530.71,340.21,934.60,903.00
1988,1086.31,3532.72,541.56,947.60,912.60
1990,1086.54,3534.73,740.46,936.20,897.40
1992,1086.78,3536.74,312.10,949.00,918.60
1994,1087.02,3538.74,302.14,943.40,913.20
1996,1087.25,3540.74,656.15,937.80,900.40
1998,1087.49,3542.74,743.43,945.00,907.00
2000,1087.73,3544.74,801.43,941.60,903.80
2002,1087.96,3546.74,739.80,943.00,907.00
2004,1088.20,3548.73,396.46,948.00,918.60
2006,1088.43,3550.72,623.21,938.20,905.40
2008,1088.67,3552.71,288.03,930.80,904.60
2010,1088.90,3554.69,561.56,927.60,897.00
2012,1089.14,3556.68,551.73,940.00,908.20
2014,1089.38,3558.66,218.60,923.00,897.40
2016,1089.61,3560.64,228.83,926.40,901.20
2018,1089.84,3562.62,217.47,934.40,910.80
2020,1090.08,3564.59,810.19,931.60,900.20
2022,1090.31,3566.56,304.58,921.20,897.00
2024,1090.55,3568.53,232.30,925.40,901.60
2026,1090.78,3570.50,184.97,919.40,896.40
2028,1091.02,3572.47,303.86,921.20,896.80
2030,1091.25,3574.43,414.82,924.80,900.40
2032,1091.48,3576.39,602.76,912.60,886.40
2034,1091.72,3578.35,123.33,908.40,888.80
2036,1091.95,3580.31,103.98,919.00,899.60
2038,1092.18,3582.26,0.00,905.00,889.20
2040,1092.42,3584.22,252.83,910.20,889.20
2042,1092.65,3586.17,310.11,913.20,892.60
2044,1092.88,3588.12,0.00,905.80,890.40
2046,1093.11,3590.06,321.03,909.20,885.60
2047,1093.23,3591.03,45.21,903.40,884.80