File: src/enlighten/plugins/Raman/MatchingLibrary/785X/ketoprofen.csv
ENLIGHTEN Version,4.1.22
Measurement ID,20250220-203823-906037-WP-01977
Serial Number,WP-01977
Model,WP-785X-F13-R-ILC
Detector,S16011-1106
Label,ketoprofen
Declared Match,
Declared Score,0
Scan Averaging,3
Boxcar,0
Technique,Raman
Baseline Correction Algo,AirPLS
ROI Pixel Start,47
ROI Pixel End,2047
ROI Start Line,0
ROI Stop Line,63
CCD C4,1.38617e-12
Slit Width,25
Cropped,True
Interpolated,False
Wavenumber Correction,-0.100481
Raman Intensity Corrected,True
Deconvolved,True
Region,
High Gain Mode,False
Laser Power mW,
Electrical Dark Correction,False
Battery %,
Device ID,<DeviceID USB:0x24aa:0x1000:0:1>
FW Version,10.0.0.10
FPGA Version,035-001
BLE Version,
Prefix,enlighten
Suffix,
Preset,
Auto-Raman,True
Session Count,0
Plugin Name,
Integration Time,379
Timestamp,2025-02-20 20:38:23.906
Note,
Temperature,0
CCD C0,793.274
CCD C1,0.153259
CCD C2,1.40788e-05
CCD C3,-1.132e-08
CCD Offset,0
CCD Gain,1.9
CCD Offset Odd,0
CCD Gain Odd,1.9
Laser Wavelength,785.032
Laser Enable,False
Laser Power %,0
Laser Temperature,0
Pixel Count,2048

Pixel,Wavelength,Wavenumber,Processed,Raw,Dark
0,793.27,132.25,NA,970.33,927.33
2,793.58,137.12,NA,985.33,934.67
4,793.89,141.99,NA,977.33,935.00
6,794.19,146.86,NA,990.33,937.33
8,794.50,151.72,NA,997.33,944.33
10,794.81,156.58,NA,992.33,945.67
12,795.12,161.44,NA,989.00,933.00
14,795.42,166.30,NA,985.67,935.33
16,795.73,171.16,NA,989.67,936.00
18,796.04,176.01,NA,998.67,949.67
20,796.35,180.86,NA,1011.33,943.67
22,796.65,185.71,NA,1023.33,966.33
24,796.96,190.56,NA,1010.33,945.67
26,797.27,195.41,NA,1028.67,957.00
28,797.58,200.25,NA,1033.67,956.33
30,797.88,205.09,NA,1019.67,940.00
32,798.19,209.93,NA,1020.33,945.33
34,798.50,214.77,NA,1032.33,940.33
36,798.81,219.60,NA,1048.00,943.00
38,799.12,224.43,NA,1128.33,940.67
40,799.43,229.27,NA,1493.00,961.33
42,799.74,234.09,NA,2827.00,951.33
44,800.04,238.92,NA,4624.33,975.33
46,800.35,243.75,NA,5369.00,944.33
48,800.66,248.57,521.71,5641.67,961.33
50,800.97,253.39,1558.84,6577.67,966.67
52,801.28,258.21,2556.84,7271.67,971.67
54,801.59,263.02,1161.78,6246.00,960.67
56,801.90,267.83,30.43,4900.00,952.00
58,802.21,272.65,0.00,4440.33,962.67
60,802.52,277.46,8.27,4607.67,953.33
62,802.83,282.26,521.21,5304.33,974.67
64,803.14,287.07,1597.02,6125.33,977.67
66,803.45,291.87,1505.69,6118.00,974.00
68,803.76,296.67,741.94,5434.00,976.00
70,804.07,301.47,604.62,5178.00,963.33
72,804.38,306.26,918.26,5398.67,960.67
74,804.69,311.06,1168.38,5583.33,957.00
76,805.00,315.85,1072.19,5390.67,955.33
78,805.31,320.64,641.79,4874.00,961.00
80,805.62,325.42,130.51,4310.33,966.67
82,805.93,330.21,0.90,3965.67,962.67
84,806.24,334.99,0.00,3806.00,943.67
86,806.55,339.77,0.00,3735.67,955.67
88,806.86,344.55,0.00,3748.67,964.00
90,807.17,349.32,0.00,3752.00,947.00
92,807.48,354.10,27.79,3897.00,954.33
94,807.80,358.87,165.75,4072.67,971.33
96,808.11,363.63,467.76,4414.00,966.00
98,808.42,368.40,659.18,4612.00,958.33
100,808.73,373.16,545.53,4540.00,952.00
102,809.04,377.93,467.73,4448.67,950.67
104,809.35,382.68,491.40,4410.67,945.67
106,809.66,387.44,372.26,4280.67,953.67
108,809.98,392.19,236.00,4176.00,939.67
110,810.29,396.95,315.63,4435.33,962.00
112,810.60,401.70,1182.80,5498.67,956.33
114,810.91,406.44,2242.71,6323.00,948.00
116,811.22,411.19,1212.47,5539.33,961.00
118,811.54,415.93,437.62,4610.67,964.67
120,811.85,420.67,403.32,4418.33,951.00
122,812.16,425.41,680.34,4655.00,945.67
124,812.47,430.14,801.68,4826.00,959.33
126,812.79,434.87,803.00,4913.00,952.00
128,813.10,439.60,859.87,5123.00,938.00
130,813.41,444.33,1477.87,5959.67,952.33
132,813.72,449.06,2352.96,6819.33,950.67
134,814.04,453.78,2231.03,6705.67,952.00
136,814.35,458.50,1333.12,5734.00,943.00
138,814.66,463.22,758.74,4912.00,936.33
140,814.98,467.93,554.52,4515.33,940.67
142,815.29,472.65,501.33,4371.33,951.00
144,815.60,477.36,421.54,4256.33,954.33
146,815.92,482.06,325.66,4095.67,934.00
148,816.23,486.77,309.01,4059.67,954.33
150,816.54,491.47,260.52,3994.33,970.00
152,816.86,496.17,218.11,3901.33,943.67
154,817.17,500.87,169.25,3857.00,950.67
156,817.48,505.57,193.54,3918.67,937.33
158,817.80,510.26,427.62,4269.00,939.67
160,818.11,514.95,940.56,4781.00,952.33
162,818.42,519.64,884.07,4707.67,957.00
164,818.74,524.32,291.23,4084.33,946.67
166,819.05,529.00,35.90,3640.67,958.67
168,819.37,533.68,1.77,3511.33,945.00
170,819.68,538.36,0.00,3453.67,962.00
172,819.99,543.04,0.00,3434.33,964.33
174,820.31,547.71,0.00,3386.33,951.33
176,820.62,552.38,0.00,3415.33,940.00
178,820.94,557.05,2.42,3449.00,948.33
180,821.25,561.71,84.43,3564.33,927.00
182,821.57,566.37,169.53,3697.67,941.67
184,821.88,571.03,293.32,3923.67,949.33
186,822.20,575.69,485.13,4287.00,955.67
188,822.51,580.34,868.43,4900.67,942.33
190,822.83,584.99,1483.77,5748.00,952.67
192,823.14,589.64,2069.12,6398.00,956.33
194,823.46,594.29,1710.64,6141.67,952.33
196,823.77,598.93,1315.40,5707.33,947.00
198,824.09,603.57,1583.49,5958.00,931.67
200,824.40,608.21,1586.33,6281.00,950.00
202,824.72,612.85,2279.80,7458.00,962.00
204,825.03,617.48,4630.76,9467.33,954.33
206,825.35,622.11,2938.55,7997.00,961.33
208,825.66,626.74,487.44,4972.33,957.00
210,825.98,631.36,352.59,4559.67,937.00
212,826.29,635.99,1836.55,6349.33,950.67
214,826.61,640.61,3188.82,7340.00,950.33
216,826.92,645.22,1153.38,5586.00,944.00
218,827.24,649.84,221.90,4046.33,935.33
220,827.56,654.45,160.79,3770.33,951.33
222,827.87,659.06,375.99,4028.00,952.67
224,828.19,663.67,673.10,4510.33,952.33
226,828.50,668.27,1088.18,5214.33,978.33
228,828.82,672.87,1783.45,5972.67,959.00
230,829.13,677.47,1704.98,5918.33,942.33
232,829.45,682.06,939.22,5127.67,952.00
234,829.77,686.66,975.51,5213.00,982.33
236,830.08,691.25,1519.49,6067.33,946.33
238,830.40,695.83,2165.34,7679.00,949.33
240,830.72,700.42,5053.64,11856.00,950.00
242,831.03,705.00,8860.76,15391.33,930.00
244,831.35,709.58,5470.71,12351.67,950.67
246,831.66,714.15,2236.95,7822.00,928.67
248,831.98,718.73,1579.76,6051.67,952.00
250,832.30,723.30,767.11,4676.67,938.67
252,832.61,727.87,211.91,3776.00,962.00
254,832.93,732.43,66.73,3397.33,918.67
256,833.25,736.99,3.25,3284.33,953.33
258,833.56,741.55,0.00,3232.00,943.00
260,833.88,746.11,0.00,3201.33,940.67
262,834.20,750.66,0.00,3198.67,944.33
264,834.51,755.22,4.32,3261.67,950.67
266,834.83,759.76,45.01,3322.67,950.00
268,835.15,764.31,122.33,3513.67,952.00
270,835.47,768.85,445.58,4012.00,934.00
272,835.78,773.39,956.55,4609.33,948.33
274,836.10,777.93,810.56,4676.00,942.33
276,836.42,782.46,843.59,4894.67,941.67
278,836.73,787.00,1862.90,5877.00,939.00
280,837.05,791.52,1547.01,5510.00,934.67
282,837.37,796.05,403.69,4214.67,950.67
284,837.69,800.57,177.24,3734.67,931.67
286,838.00,805.09,405.56,4090.67,935.33
288,838.32,809.61,1203.36,4947.33,944.67
290,838.64,814.13,1304.49,5099.33,953.33
292,838.95,818.64,510.72,4347.67,939.67
294,839.27,823.15,484.51,4337.00,938.67
296,839.59,827.65,1410.49,5283.00,948.67
298,839.91,832.15,1434.57,5206.67,941.67
300,840.22,836.65,408.63,4133.67,960.33
302,840.54,841.15,97.03,3482.00,941.00
304,840.86,845.65,87.13,3411.33,952.00
306,841.18,850.14,215.07,3642.67,949.00
308,841.50,854.63,480.92,4225.33,982.00
310,841.81,859.11,1165.05,5282.33,947.00
312,842.13,863.60,2347.33,6556.67,954.33
314,842.45,868.07,1985.04,6160.00,938.67
316,842.77,872.55,713.84,4665.33,953.00
318,843.08,877.03,200.65,3700.67,963.33
320,843.40,881.50,48.46,3313.00,930.33
322,843.72,885.97,1.92,3199.33,951.33
324,844.04,890.43,0.00,3122.00,938.00
326,844.36,894.89,0.00,3119.33,936.00
328,844.67,899.35,0.00,3134.00,950.00
330,844.99,903.81,0.00,3147.33,921.33
332,845.31,908.26,19.96,3335.67,943.00
334,845.63,912.71,349.05,3794.33,945.67
336,845.95,917.16,634.89,4072.33,953.67
338,846.27,921.61,222.69,3891.33,1102.33
340,846.58,926.05,146.82,3621.00,943.00
342,846.90,930.49,383.33,3823.67,947.00
344,847.22,934.92,300.09,3761.00,942.33
346,847.54,939.36,11.10,3419.00,930.00
348,847.86,943.79,0.00,3321.33,936.33
350,848.18,948.21,2.55,3390.67,933.67
352,848.49,952.64,67.77,3584.00,941.00
354,848.81,957.06,291.87,4154.33,928.00
356,849.13,961.48,1043.11,5659.67,961.67
358,849.45,965.89,3257.88,8142.00,956.33
360,849.77,970.31,3392.75,8377.67,945.00
362,850.09,974.71,1353.61,6517.33,941.67
364,850.40,979.12,1230.19,6829.67,958.67
366,850.72,983.52,3827.58,11418.33,962.67
368,851.04,987.92,9111.45,18938.33,934.67
370,851.36,992.32,13755.25,26855.67,933.00
372,851.68,996.72,17137.95,33521.33,946.67
374,852.00,1001.11,24492.40,41087.33,942.33
376,852.32,1005.50,23823.34,38529.33,933.00
378,852.63,1009.88,7680.71,20568.00,969.67
380,852.95,1014.26,1437.27,8635.00,945.00
382,853.27,1018.64,875.52,6132.33,947.00
384,853.59,1023.02,2234.34,7303.67,936.00
386,853.91,1027.39,3522.30,8268.33,924.00
388,854.23,1031.76,1593.63,6446.67,932.67
390,854.55,1036.13,474.69,4723.67,940.67
392,854.87,1040.49,105.01,3952.67,933.33
394,855.18,1044.86,1.29,3657.33,947.00
396,855.50,1049.21,0.00,3573.67,940.33
398,855.82,1053.57,0.00,3594.00,947.67
400,856.14,1057.92,1.42,3685.67,944.33
402,856.46,1062.27,106.12,3917.00,933.67
404,856.78,1066.62,224.80,4163.33,932.67
406,857.10,1070.96,544.79,4811.00,924.00
408,857.42,1075.30,1247.90,5800.33,952.00
410,857.74,1079.64,1779.59,6379.00,937.33
412,858.06,1083.97,1469.66,5970.33,936.33
414,858.37,1088.30,476.00,4929.67,922.00
416,858.69,1092.63,11.85,4078.00,927.67
418,859.01,1096.95,0.00,3835.67,922.67
420,859.33,1101.27,0.00,3906.33,943.67
422,859.65,1105.59,31.23,4032.00,939.67
424,859.97,1109.91,55.71,4044.00,928.67
426,860.29,1114.22,8.65,4047.67,931.00
428,860.61,1118.53,28.13,4182.67,926.67
430,860.93,1122.84,191.32,4636.33,937.00
432,861.25,1127.14,737.11,5762.67,952.67
434,861.56,1131.44,2209.49,7825.33,935.33
436,861.88,1135.74,3986.51,9545.33,943.00
438,862.20,1140.03,2638.97,8343.00,933.67
440,862.52,1144.32,766.68,6214.33,943.00
442,862.84,1148.61,365.59,5575.00,944.33
444,863.16,1152.89,1466.69,7478.67,933.67
446,863.48,1157.17,5139.89,10525.00,937.67
448,863.80,1161.45,2466.68,8673.33,936.00
450,864.12,1165.73,247.61,5551.67,939.00
452,864.44,1170.00,250.85,5495.33,934.33
454,864.76,1174.27,1933.43,7754.00,936.33
456,865.07,1178.53,3941.22,9406.33,926.00
458,865.39,1182.80,1743.23,8048.00,938.67
460,865.71,1187.06,1253.07,8122.33,938.33
462,866.03,1191.31,4688.48,13320.67,949.33
464,866.35,1195.57,10885.53,18525.33,938.33
466,866.67,1199.82,6821.23,15251.33,949.00
468,866.99,1204.06,1833.48,9048.67,939.33
470,867.31,1208.31,744.20,6529.00,943.00
472,867.63,1212.55,675.71,5975.33,943.00
474,867.95,1216.79,991.98,6196.67,920.67
476,868.27,1221.02,1195.59,6388.33,938.67
478,868.58,1225.25,926.58,6052.33,929.33
480,868.90,1229.48,383.97,5461.67,949.33
482,869.22,1233.71,34.79,4934.33,950.00
484,869.54,1237.93,0.10,4784.33,962.00
486,869.86,1242.15,0.00,4746.33,937.33
488,870.18,1246.36,0.99,4821.00,921.00
490,870.50,1250.58,80.80,5067.00,943.67
492,870.82,1254.79,393.32,5476.00,960.00
494,871.14,1258.99,600.09,5792.67,936.00
496,871.46,1263.20,730.45,6149.67,945.67
498,871.78,1267.40,920.99,6711.67,932.33
500,872.10,1271.59,1565.19,8047.67,938.00
502,872.41,1275.79,3599.44,10723.00,930.33
504,872.73,1279.98,5626.73,12678.33,938.67
506,873.05,1284.17,4209.70,11379.33,948.00
508,873.37,1288.35,2021.91,8755.00,915.33
510,873.69,1292.53,979.21,7073.67,932.00
512,874.01,1296.71,729.19,6480.67,929.33
514,874.33,1300.88,959.74,6633.33,924.00
516,874.65,1305.06,1159.79,6855.33,937.33
518,874.97,1309.22,1062.48,6872.67,931.67
520,875.29,1313.39,1042.56,6965.00,938.67
522,875.60,1317.55,1453.30,7437.67,941.67
524,875.92,1321.71,1597.80,7557.00,937.00
526,876.24,1325.87,1326.43,7337.33,952.00
528,876.56,1330.02,1051.47,7018.00,935.33
530,876.88,1334.17,1050.03,6989.00,959.67
532,877.20,1338.32,1129.57,6970.33,924.67
534,877.52,1342.46,921.13,6695.33,919.00
536,877.84,1346.60,730.01,6493.00,937.67
538,878.16,1350.73,530.16,6221.67,934.00
540,878.47,1354.87,464.02,6115.00,935.67
542,878.79,1359.00,466.76,6098.67,935.00
544,879.11,1363.13,437.43,6078.33,934.67
546,879.43,1367.25,421.27,6083.00,931.33
548,879.75,1371.37,441.85,6144.33,927.67
550,880.07,1375.49,526.01,6266.00,931.00
552,880.39,1379.60,677.29,6417.33,936.00
554,880.71,1383.71,537.27,6303.33,943.00
556,881.03,1387.82,351.11,6106.67,936.00
558,881.34,1391.93,334.82,6057.33,919.67
560,881.66,1396.03,344.59,6061.67,927.67
562,881.98,1400.13,347.72,6099.33,939.00
564,882.30,1404.22,391.44,6189.67,938.00
566,882.62,1408.31,386.93,6213.00,931.33
568,882.94,1412.40,478.90,6400.67,938.33
570,883.26,1416.49,625.79,6655.33,933.67
572,883.57,1420.57,874.36,7077.00,951.33
574,883.89,1424.65,1258.26,7597.67,922.00
576,884.21,1428.73,1676.91,8167.67,946.00
578,884.53,1432.80,1763.96,8439.33,955.67
580,884.85,1436.87,1779.69,8586.67,935.00
582,885.17,1440.93,2288.31,9115.67,929.00
584,885.49,1445.00,2422.08,9335.67,927.33
586,885.80,1449.06,1980.48,9140.67,926.00
588,886.12,1453.11,2370.93,9821.33,950.67
590,886.44,1457.17,3766.63,11063.67,940.33
592,886.76,1461.22,4289.34,11295.67,939.00
594,887.08,1465.26,1918.90,9090.33,945.67
596,887.40,1469.31,517.54,7079.33,925.33
598,887.71,1473.35,234.47,6410.00,924.33
600,888.03,1477.38,224.23,6295.33,940.33
602,888.35,1481.42,334.16,6410.00,943.67
604,888.67,1485.45,391.76,6463.00,943.67
606,888.99,1489.48,447.83,6492.00,929.33
608,889.31,1493.50,227.23,6335.67,945.67
610,889.62,1497.52,54.66,6082.67,937.67
612,889.94,1501.54,63.40,6067.67,924.67
614,890.26,1505.56,22.35,6018.00,929.33
616,890.58,1509.57,0.00,5982.00,933.33
618,890.90,1513.57,6.80,6002.67,928.00
620,891.21,1517.58,17.59,6028.33,934.33
622,891.53,1521.58,0.00,6006.33,935.33
624,891.85,1525.58,10.21,6040.00,928.67
626,892.17,1529.57,23.55,6063.33,935.67
628,892.49,1533.57,48.63,6104.33,936.67
630,892.80,1537.56,19.38,6071.67,936.33
632,893.12,1541.54,40.47,6099.00,928.00
634,893.44,1545.52,43.73,6120.00,946.33
636,893.76,1549.50,27.18,6092.33,923.00
638,894.07,1553.48,26.94,6126.67,942.33
640,894.39,1557.45,98.02,6213.67,929.67
642,894.71,1561.42,268.67,6456.33,944.67
644,895.03,1565.39,512.54,6901.00,922.00
646,895.34,1569.35,1157.99,8007.67,941.67
648,895.66,1573.31,2643.98,9862.00,931.67
650,895.98,1577.26,4367.97,11860.00,924.00
652,896.30,1581.22,5191.37,13126.00,924.00
654,896.61,1585.17,5843.10,14802.33,934.67
656,896.93,1589.11,6312.21,17196.33,948.00
658,897.25,1593.06,11169.84,24643.33,925.33
660,897.57,1597.00,25126.62,37523.67,940.33
662,897.88,1600.93,28811.39,39669.67,944.33
664,898.20,1604.87,13630.75,26842.00,938.67
666,898.52,1608.80,4584.38,15102.33,925.33
668,898.84,1612.72,2224.28,10045.33,919.33
670,899.15,1616.65,1690.92,8334.33,938.33
672,899.47,1620.57,1500.12,7702.33,925.33
674,899.79,1624.49,1375.30,7470.67,932.67
676,900.10,1628.40,1298.33,7388.33,931.33
678,900.42,1632.31,1346.47,7516.00,945.00
680,900.74,1636.22,1734.83,8075.33,910.67
682,901.05,1640.12,2574.63,9576.33,953.33
684,901.37,1644.02,3914.79,12495.00,936.00
686,901.69,1647.92,7567.84,18734.67,944.67
688,902.00,1651.82,19543.71,30791.33,935.67
690,902.32,1655.71,29503.88,37558.33,931.67
692,902.64,1659.60,14784.00,26620.67,934.00
694,902.95,1663.48,4228.06,14166.33,939.67
696,903.27,1667.36,1902.39,9129.33,934.67
698,903.59,1671.24,1271.14,7258.00,948.33
700,903.90,1675.11,878.50,6411.00,937.67
702,904.22,1678.99,611.23,5972.67,919.33
704,904.54,1682.85,448.08,5758.33,966.00
706,904.85,1686.72,377.16,5556.67,923.33
708,905.17,1690.58,370.55,5504.00,926.67
710,905.49,1694.44,343.17,5439.67,925.33
712,905.80,1698.29,326.29,5385.33,932.00
714,906.12,1702.15,312.60,5333.00,936.67
716,906.43,1706.00,270.74,5241.67,935.67
718,906.75,1709.84,201.43,5124.67,941.00
720,907.07,1713.68,106.16,4989.33,924.00
722,907.38,1717.52,20.07,4843.67,938.67
724,907.70,1721.36,37.17,4800.67,929.67
726,908.01,1725.19,12.41,4719.67,935.00
728,908.33,1729.02,1.35,4646.33,937.67
730,908.65,1732.85,26.86,4611.67,933.67
732,908.96,1736.67,3.84,4542.00,945.67
734,909.28,1740.49,0.61,4457.67,922.67
736,909.59,1744.30,1.07,4418.67,942.33
738,909.91,1748.12,23.48,4363.33,926.00
740,910.22,1751.93,0.00,4267.00,940.33
742,910.54,1755.73,0.00,4255.33,965.33
744,910.85,1759.54,0.00,4194.33,945.00
746,911.17,1763.34,0.00,4108.00,930.33
748,911.49,1767.13,0.00,4078.67,934.00
750,911.80,1770.93,1.77,4042.33,919.67
752,912.12,1774.72,0.00,4022.00,945.67
754,912.43,1778.50,0.00,3964.00,918.67
756,912.75,1782.29,13.19,3975.67,920.33
758,913.06,1786.07,0.00,3919.33,924.00
760,913.38,1789.84,14.79,3928.00,931.00
762,913.69,1793.62,15.57,3918.33,941.67
764,914.01,1797.39,45.77,3907.00,934.00
766,914.32,1801.15,38.30,3865.33,926.67
768,914.64,1804.92,31.12,3828.67,918.33
770,914.95,1808.68,19.08,3803.00,939.67
772,915.26,1812.44,29.43,3798.67,941.67
774,915.58,1816.19,37.72,3768.67,917.33
776,915.89,1819.94,65.16,3787.00,934.00
778,916.21,1823.69,119.68,3810.67,934.67
780,916.52,1827.43,159.91,3832.33,949.00
782,916.84,1831.17,115.89,3746.33,923.33
784,917.15,1834.91,95.87,3699.67,919.00
786,917.47,1838.64,84.93,3664.67,925.00
788,917.78,1842.38,89.31,3642.00,926.00
790,918.09,1846.10,75.28,3606.33,930.00
792,918.41,1849.83,98.16,3620.33,943.00
794,918.72,1853.55,115.20,3578.00,913.67
796,919.04,1857.27,135.51,3592.00,931.33
798,919.35,1860.98,163.03,3593.33,922.67
800,919.66,1864.69,118.07,3530.00,931.33
802,919.98,1868.40,149.89,3537.00,933.00
804,920.29,1872.11,151.47,3507.00,928.00
806,920.60,1875.81,131.74,3466.00,924.33
808,920.92,1879.51,140.92,3458.67,933.00
810,921.23,1883.20,184.39,3471.33,937.33
812,921.55,1886.90,199.97,3451.00,920.67
814,921.86,1890.58,131.55,3389.67,946.33
816,922.17,1894.27,140.22,3367.67,945.00
818,922.49,1897.95,175.83,3361.67,938.67
820,922.80,1901.63,175.96,3324.67,924.00
822,923.11,1905.31,151.93,3291.00,931.33
824,923.42,1908.98,129.46,3246.33,932.67
826,923.74,1912.65,122.03,3217.33,940.33
828,924.05,1916.31,136.62,3189.00,929.33
830,924.36,1919.98,176.61,3195.33,919.33
832,924.68,1923.64,151.18,3160.33,923.33
834,924.99,1927.29,146.40,3130.00,925.33
836,925.30,1930.94,169.84,3117.33,916.00
838,925.61,1934.59,122.87,3062.33,932.00
840,925.93,1938.24,159.83,3069.67,929.33
842,926.24,1941.88,166.75,3049.67,927.67
844,926.55,1945.52,145.44,3008.00,924.67
846,926.86,1949.16,138.11,2985.67,937.67
848,927.18,1952.79,129.25,2942.00,928.00
850,927.49,1956.42,112.83,2904.67,925.67
852,927.80,1960.05,103.73,2929.00,987.67
854,928.11,1963.67,147.88,2890.00,926.00
856,928.42,1967.29,149.77,2883.67,938.33
858,928.74,1970.91,161.82,2859.00,930.00
860,929.05,1974.52,144.45,2818.67,933.00
862,929.36,1978.13,147.70,2792.67,928.00
864,929.67,1981.74,107.27,2736.33,933.67
866,929.98,1985.35,92.49,2699.33,928.67
868,930.29,1988.95,62.00,2650.33,935.67
870,930.61,1992.54,55.87,2606.00,926.00
872,930.92,1996.14,75.75,2599.67,928.67
874,931.23,1999.73,38.34,2558.33,940.00
876,931.54,2003.32,20.74,2513.67,933.67
878,931.85,2006.90,45.28,2507.33,929.33
880,932.16,2010.48,50.02,2486.67,930.00
882,932.47,2014.06,17.53,2435.67,927.33
884,932.78,2017.63,22.92,2432.00,937.33
886,933.09,2021.21,46.57,2416.33,926.00
888,933.41,2024.77,43.95,2403.33,938.67
890,933.72,2028.34,23.93,2377.00,953.00
892,934.03,2031.90,2.64,2317.33,934.33
894,934.34,2035.46,0.00,2297.67,942.00
896,934.65,2039.01,0.00,2258.00,925.67
898,934.96,2042.57,0.00,2251.00,938.67
900,935.27,2046.11,2.99,2262.00,952.67
902,935.58,2049.66,14.45,2213.67,919.00
904,935.89,2053.20,16.13,2207.00,932.33
906,936.20,2056.74,37.80,2201.00,923.00
908,936.51,2060.28,0.00,2155.00,934.00
910,936.82,2063.81,8.38,2160.00,943.00
912,937.13,2067.34,26.07,2144.00,931.67
914,937.44,2070.86,12.38,2116.33,931.33
916,937.75,2074.39,4.04,2082.67,922.00
918,938.06,2077.91,0.00,2062.67,925.33
920,938.37,2081.42,0.58,2060.33,934.67
922,938.68,2084.94,0.35,2040.33,930.67
924,938.99,2088.45,0.00,2020.00,925.33
926,939.30,2091.95,2.08,2019.33,937.00
928,939.60,2095.46,0.00,1996.33,935.00
930,939.91,2098.96,0.00,1999.00,947.00
932,940.22,2102.45,1.55,1982.67,938.33
934,940.53,2105.95,4.14,1953.67,921.67
936,940.84,2109.44,15.44,1953.67,926.00
938,941.15,2112.92,11.03,1943.33,933.33
940,941.46,2116.41,1.66,1919.33,924.67
942,941.77,2119.89,0.00,1917.00,940.00
944,942.07,2123.37,0.00,1894.67,929.33
946,942.38,2126.84,3.05,1897.67,939.67
948,942.69,2130.31,0.00,1876.00,943.00
950,943.00,2133.78,15.03,1873.67,929.33
952,943.31,2137.24,0.00,1855.67,936.00
954,943.62,2140.70,0.00,1851.67,941.67
956,943.92,2144.16,0.00,1827.67,926.00
958,944.23,2147.62,0.00,1829.33,937.33
960,944.54,2151.07,20.74,1848.00,947.33
962,944.85,2154.52,7.40,1832.67,947.67
964,945.16,2157.96,13.50,1821.00,942.33
966,945.46,2161.40,26.58,1816.33,939.33
968,945.77,2164.84,0.00,1758.00,914.00
970,946.08,2168.28,14.90,1784.67,932.00
972,946.39,2171.71,0.00,1739.67,931.00
974,946.69,2175.14,0.00,1749.00,930.67
976,947.00,2178.57,6.09,1751.67,929.33
978,947.31,2181.99,4.47,1738.33,922.00
980,947.61,2185.41,26.27,1759.67,933.00
982,947.92,2188.82,34.88,1761.00,942.00
984,948.23,2192.24,15.23,1732.33,921.33
986,948.53,2195.65,0.00,1707.33,930.00
988,948.84,2199.05,4.94,1702.67,911.00
990,949.15,2202.46,5.80,1717.00,936.67
992,949.45,2205.86,15.38,1712.67,931.00
994,949.76,2209.25,0.48,1689.33,922.67
996,950.07,2212.65,0.00,1684.33,930.33
998,950.37,2216.04,0.00,1672.00,918.33
1000,950.68,2219.43,0.91,1684.00,928.67
1002,950.98,2222.81,12.80,1700.33,937.00
1004,951.29,2226.19,32.04,1698.00,926.00
1006,951.60,2229.57,9.16,1674.67,921.00
1008,951.90,2232.94,14.72,1675.67,922.67
1010,952.21,2236.32,15.30,1679.67,931.33
1012,952.51,2239.68,32.30,1690.33,930.00
1014,952.82,2243.05,27.68,1672.00,916.33
1016,953.12,2246.41,40.72,1709.33,946.33
1018,953.43,2249.77,40.27,1716.33,964.00
1020,953.73,2253.12,34.96,1689.33,940.00
1022,954.04,2256.48,18.18,1655.67,922.00
1024,954.34,2259.83,44.45,1690.67,943.00
1026,954.65,2263.17,18.80,1650.67,927.33
1028,954.95,2266.51,31.80,1669.00,935.33
1030,955.26,2269.85,37.23,1683.33,949.67
1032,955.56,2273.19,47.46,1677.00,941.67
1034,955.87,2276.52,41.42,1667.67,938.67
1036,956.17,2279.85,37.47,1668.67,945.67
1038,956.48,2283.18,40.77,1641.33,921.33
1040,956.78,2286.50,45.05,1640.33,923.33
1042,957.08,2289.82,33.82,1621.67,913.33
1044,957.39,2293.14,1.15,1614.33,936.00
1046,957.69,2296.45,8.52,1604.00,922.00
1048,957.99,2299.76,5.58,1619.67,945.00
1050,958.30,2303.07,16.73,1614.33,932.67
1052,958.60,2306.38,0.00,1600.00,936.67
1054,958.91,2309.68,39.22,1621.00,928.00
1056,959.21,2312.98,52.39,1613.67,919.33
1058,959.51,2316.27,60.61,1627.67,933.00
1060,959.82,2319.56,54.63,1639.67,951.67
1062,960.12,2322.85,25.46,1599.33,926.67
1064,960.42,2326.14,2.94,1571.33,924.67
1066,960.72,2329.42,3.77,1579.67,937.00
1068,961.03,2332.70,4.95,1577.67,934.33
1070,961.33,2335.97,0.00,1568.67,938.00
1072,961.63,2339.25,0.77,1561.33,928.33
1074,961.93,2342.52,0.00,1558.67,931.00
1076,962.24,2345.78,7.81,1572.00,936.33
1078,962.54,2349.05,3.32,1564.00,934.00
1080,962.84,2352.31,8.09,1566.67,935.33
1082,963.14,2355.56,21.19,1562.67,924.67
1084,963.45,2358.82,27.42,1569.33,926.67
1086,963.75,2362.07,33.66,1583.67,936.00
1088,964.05,2365.32,27.41,1594.33,952.33
1090,964.35,2368.56,19.47,1568.00,933.67
1092,964.65,2371.80,25.46,1568.33,933.33
1094,964.95,2375.04,18.37,1557.33,926.67
1096,965.25,2378.27,8.44,1549.67,923.33
1098,965.56,2381.51,6.60,1562.67,938.33
1100,965.86,2384.73,53.16,1589.00,933.67
1102,966.16,2387.96,53.13,1572.67,926.67
1104,966.46,2391.18,50.36,1588.00,943.00
1106,966.76,2394.40,45.84,1566.67,926.00
1108,967.06,2397.62,34.75,1579.67,938.67
1110,967.36,2400.83,0.00,1532.00,924.00
1112,967.66,2404.04,40.80,1581.33,945.00
1114,967.96,2407.25,18.61,1538.33,919.33
1116,968.26,2410.45,21.69,1554.33,932.67
1118,968.56,2413.65,29.02,1553.00,928.00
1120,968.86,2416.85,21.65,1571.67,952.00
1122,969.16,2420.04,36.43,1567.00,936.67
1124,969.46,2423.23,34.32,1552.00,926.00
1126,969.76,2426.42,28.52,1557.67,938.33
1128,970.06,2429.60,38.91,1545.33,920.00
1130,970.36,2432.79,32.54,1549.33,930.33
1132,970.66,2435.96,80.25,1576.00,929.33
1134,970.96,2439.14,107.74,1584.00,927.33
1136,971.26,2442.31,117.91,1604.33,939.33
1138,971.56,2445.48,111.16,1589.00,930.33
1140,971.86,2448.65,143.41,1602.33,929.33
1142,972.16,2451.81,110.70,1590.33,937.33
1144,972.45,2454.97,108.51,1583.33,930.67
1146,972.75,2458.13,108.44,1582.67,932.33
1148,973.05,2461.28,139.76,1586.00,920.67
1150,973.35,2464.43,158.65,1599.33,930.33
1152,973.65,2467.58,149.62,1592.33,932.33
1154,973.95,2470.72,140.97,1587.00,929.33
1156,974.24,2473.86,106.10,1568.33,931.67
1158,974.54,2477.00,128.42,1564.00,917.00
1160,974.84,2480.13,120.54,1574.00,936.67
1162,975.14,2483.27,152.60,1587.33,932.67
1164,975.43,2486.40,114.82,1551.33,924.00
1166,975.73,2489.52,171.59,1582.67,928.33
1168,976.03,2492.64,185.50,1584.00,924.00
1170,976.33,2495.76,124.55,1570.33,940.00
1172,976.62,2498.88,125.71,1554.33,922.67
1174,976.92,2501.99,174.24,1589.67,938.67
1176,977.22,2505.10,191.67,1590.00,937.33
1178,977.51,2508.21,160.09,1572.67,938.00
1180,977.81,2511.31,192.62,1584.00,931.00
1182,978.11,2514.41,179.66,1573.67,930.67
1184,978.40,2517.51,199.04,1581.00,928.00
1186,978.70,2520.61,203.10,1586.00,932.33
1188,979.00,2523.70,221.46,1601.00,941.00
1190,979.29,2526.79,243.70,1589.00,924.00
1192,979.59,2529.87,239.70,1591.67,932.33
1194,979.88,2532.95,252.48,1589.33,922.67
1196,980.18,2536.03,240.81,1596.00,937.33
1198,980.48,2539.11,213.52,1584.67,945.00
1200,980.77,2542.18,247.39,1583.00,928.67
1202,981.07,2545.25,219.44,1584.67,948.67
1204,981.36,2548.32,230.67,1575.33,933.00
1206,981.66,2551.38,218.39,1576.33,941.67
1208,981.95,2554.44,235.04,1572.33,932.33
1210,982.25,2557.50,249.47,1591.67,948.00
1212,982.54,2560.56,266.09,1596.67,948.33
1214,982.84,2563.61,324.50,1629.00,955.00
1216,983.13,2566.66,338.92,1627.00,948.00
1218,983.43,2569.70,336.22,1616.33,937.33
1220,983.72,2572.74,340.69,1629.00,949.33
1222,984.01,2575.78,393.81,1636.33,933.67
1224,984.31,2578.82,422.87,1647.33,933.00
1226,984.60,2581.85,448.56,1671.67,945.00
1228,984.90,2584.88,486.45,1661.33,923.33
1230,985.19,2587.91,572.93,1698.33,933.33
1232,985.48,2590.93,542.74,1686.67,939.00
1234,985.78,2593.96,451.80,1660.00,946.33
1236,986.07,2596.97,415.55,1634.67,938.00
1238,986.36,2599.99,426.80,1646.67,951.67
1240,986.66,2603.00,432.36,1645.67,952.67
1242,986.95,2606.01,382.67,1615.67,951.67
1244,987.24,2609.01,439.73,1633.00,945.00
1246,987.54,2612.02,442.00,1598.00,913.33
1248,987.83,2615.02,424.65,1620.67,947.00
1250,988.12,2618.01,457.33,1635.33,950.67
1252,988.41,2621.01,508.08,1644.67,944.33
1254,988.71,2624.00,514.16,1621.67,923.33
1256,989.00,2626.99,480.93,1620.33,939.00
1258,989.29,2629.97,429.58,1590.33,936.00
1260,989.58,2632.95,374.12,1576.00,949.00
1262,989.87,2635.93,306.99,1541.67,946.33
1264,990.16,2638.91,299.18,1519.33,931.67
1266,990.46,2641.88,256.79,1509.33,948.33
1268,990.75,2644.85,220.37,1503.67,962.67
1270,991.04,2647.81,173.76,1460.67,942.67
1272,991.33,2650.78,158.17,1447.33,940.33
1274,991.62,2653.74,123.64,1426.67,938.67
1276,991.91,2656.70,67.40,1403.00,941.00
1278,992.20,2659.65,28.98,1389.67,947.00
1280,992.49,2662.60,12.76,1368.00,934.67
1282,992.78,2665.55,4.14,1384.67,958.33
1284,993.07,2668.50,0.00,1371.67,954.00
1286,993.36,2671.44,6.16,1370.67,950.00
1288,993.65,2674.38,18.25,1376.67,954.33
1290,993.94,2677.31,37.96,1370.67,943.00
1292,994.23,2680.25,13.72,1363.33,946.33
1294,994.52,2683.18,11.52,1360.67,945.67
1296,994.81,2686.10,27.30,1360.00,941.67
1298,995.10,2689.03,20.36,1354.33,944.33
1300,995.39,2691.95,21.28,1347.00,938.33
1302,995.68,2694.87,3.83,1354.33,953.00
1304,995.97,2697.78,2.01,1351.67,951.33
1306,996.26,2700.70,0.18,1328.33,933.33
1308,996.55,2703.61,4.35,1348.00,948.33
1310,996.84,2706.51,2.33,1347.00,952.67
1312,997.13,2709.42,23.03,1348.67,945.67
1314,997.41,2712.32,55.55,1371.00,956.00
1316,997.70,2715.21,88.84,1368.33,937.33
1318,997.99,2718.11,112.24,1391.33,945.00
1320,998.28,2721.00,199.85,1423.00,936.33
1322,998.57,2723.89,353.01,1493.33,955.00
1324,998.86,2726.77,608.36,1535.33,930.00
1326,999.14,2729.66,790.07,1582.33,942.33
1328,999.43,2732.54,695.70,1569.00,946.33
1330,999.72,2735.41,381.54,1487.33,946.33
1332,1000.01,2738.29,227.02,1445.67,957.67
1334,1000.29,2741.16,184.41,1405.67,941.67
1336,1000.58,2744.03,168.48,1383.33,935.33
1338,1000.87,2746.89,131.07,1384.67,957.67
1340,1001.15,2749.75,153.64,1369.33,938.33
1342,1001.44,2752.61,114.52,1360.00,943.00
1344,1001.73,2755.47,102.30,1352.33,934.00
1346,1002.01,2758.32,24.72,1330.33,945.67
1348,1002.30,2761.17,81.66,1362.33,959.33
1350,1002.59,2764.02,91.70,1358.33,957.00
1352,1002.87,2766.86,84.06,1348.00,946.67
1354,1003.16,2769.70,73.68,1327.67,930.67
1356,1003.44,2772.54,129.13,1339.00,930.33
1358,1003.73,2775.38,70.70,1328.67,940.67
1360,1004.01,2778.21,66.38,1323.67,934.00
1362,1004.30,2781.04,40.46,1320.33,939.00
1364,1004.58,2783.87,26.73,1312.00,939.00
1366,1004.87,2786.69,48.83,1297.33,921.00
1368,1005.15,2789.51,53.59,1329.67,955.00
1370,1005.44,2792.33,48.89,1325.00,950.33
1372,1005.72,2795.14,6.38,1313.00,952.00
1374,1006.01,2797.95,0.00,1307.67,955.33
1376,1006.29,2800.76,0.00,1294.33,940.33
1378,1006.58,2803.57,19.75,1320.33,959.00
1380,1006.86,2806.37,0.00,1282.67,936.33
1382,1007.14,2809.17,0.00,1288.00,943.67
1384,1007.43,2811.97,0.00,1284.33,931.67
1386,1007.71,2814.77,30.68,1306.33,936.33
1388,1008.00,2817.56,28.59,1302.33,936.00
1390,1008.28,2820.35,18.25,1321.67,951.33
1392,1008.56,2823.13,0.00,1298.33,938.00
1394,1008.85,2825.91,24.85,1326.67,945.67
1396,1009.13,2828.69,70.98,1327.00,936.67
1398,1009.41,2831.47,0.00,1325.00,957.00
1400,1009.69,2834.24,7.83,1315.33,928.67
1402,1009.98,2837.02,5.88,1331.67,941.67
1404,1010.26,2839.78,0.00,1338.67,950.67
1406,1010.54,2842.55,0.00,1321.33,935.00
1408,1010.82,2845.31,0.00,1338.33,937.00
1410,1011.11,2848.07,0.00,1352.67,951.67
1412,1011.39,2850.83,0.00,1370.33,950.67
1414,1011.67,2853.58,0.00,1376.33,951.33
1416,1011.95,2856.33,40.14,1412.00,948.00
1418,1012.23,2859.08,87.42,1426.67,943.67
1420,1012.51,2861.83,206.48,1464.00,938.67
1422,1012.80,2864.57,405.89,1557.33,963.67
1424,1013.08,2867.31,639.23,1626.33,957.67
1426,1013.36,2870.04,1087.10,1752.67,955.67
1428,1013.64,2872.78,1667.77,1879.67,951.00
1430,1013.92,2875.51,2391.52,2035.33,961.33
1432,1014.20,2878.24,2676.06,2076.67,948.33
1434,1014.48,2880.96,2634.02,2076.00,938.67
1436,1014.76,2883.68,2193.29,1993.33,935.00
1438,1015.04,2886.40,1825.42,1924.00,935.67
1440,1015.32,2889.12,1417.46,1843.33,953.00
1442,1015.60,2891.83,1235.15,1781.33,937.33
1444,1015.88,2894.54,1121.97,1763.00,948.33
1446,1016.16,2897.25,1058.88,1726.33,928.00
1448,1016.44,2899.96,1045.02,1743.00,950.00
1450,1016.72,2902.66,1204.72,1769.33,939.67
1452,1017.00,2905.36,1286.15,1803.00,964.00
1454,1017.28,2908.06,1453.94,1805.33,938.00
1456,1017.55,2910.75,1484.35,1826.00,950.33
1458,1017.83,2913.44,1392.97,1802.33,932.00
1460,1018.11,2916.13,1202.33,1787.67,948.67
1462,1018.39,2918.81,1266.87,1810.00,946.33
1464,1018.67,2921.49,1360.37,1828.67,936.67
1466,1018.95,2924.17,1609.29,1908.67,943.67
1468,1019.22,2926.85,1873.94,1997.33,945.67
1470,1019.50,2929.52,2459.91,2159.00,935.67
1472,1019.78,2932.20,3629.27,2434.00,926.67
1474,1020.06,2934.86,5626.76,2828.33,941.67
1476,1020.33,2937.53,8263.63,3248.00,958.00
1478,1020.61,2940.19,9990.84,3485.00,948.33
1480,1020.89,2942.85,9160.86,3408.67,952.67
1482,1021.17,2945.51,7152.03,3143.67,942.33
1484,1021.44,2948.16,5741.87,2901.67,945.00
1486,1021.72,2950.81,5670.96,2804.67,940.00
1488,1022.00,2953.46,6278.72,2808.33,957.33
1490,1022.27,2956.11,5729.17,2637.00,944.33
1492,1022.55,2958.75,4074.68,2397.00,952.67
1494,1022.82,2961.39,2345.75,2094.00,937.00
1496,1023.10,2964.03,1546.82,1955.00,961.33
1498,1023.38,2966.66,1379.89,1880.33,938.33
1500,1023.65,2969.29,1544.19,1916.67,950.67
1502,1023.93,2971.92,1852.74,1977.00,953.33
1504,1024.20,2974.55,2563.98,2090.33,952.67
1506,1024.48,2977.17,3936.92,2256.67,943.67
1508,1024.75,2979.79,5043.37,2357.67,935.67
1510,1025.03,2982.41,4455.83,2303.00,948.67
1512,1025.30,2985.02,2765.99,2094.00,931.67
1514,1025.58,2987.63,1445.79,1911.67,946.33
1516,1025.85,2990.24,978.80,1811.33,939.33
1518,1026.13,2992.85,1136.20,1833.33,952.67
1520,1026.40,2995.45,1991.46,1926.33,951.00
1522,1026.68,2998.05,3042.95,1994.67,943.67
1524,1026.95,3000.65,2967.72,1986.00,955.67
1526,1027.22,3003.25,1519.44,1831.33,939.33
1528,1027.50,3005.84,446.25,1687.33,940.67
1530,1027.77,3008.43,80.84,1598.00,950.00
1532,1028.04,3011.02,8.14,1559.33,953.67
1534,1028.32,3013.60,2.43,1546.00,943.67
1536,1028.59,3016.18,0.00,1527.00,957.67
1538,1028.86,3018.76,0.00,1509.33,921.67
1540,1029.14,3021.34,17.40,1560.67,947.00
1542,1029.41,3023.91,198.72,1587.67,938.67
1544,1029.68,3026.48,733.43,1630.33,929.33
1546,1029.95,3029.05,984.44,1671.00,953.33
1548,1030.22,3031.61,1102.23,1681.67,938.00
1550,1030.50,3034.17,1190.62,1700.00,934.67
1552,1030.77,3036.73,1570.90,1767.67,942.33
1554,1031.04,3039.29,2070.43,1857.67,951.33
1556,1031.31,3041.84,2469.57,1926.33,931.67
1558,1031.58,3044.39,3059.14,2105.33,961.33
1560,1031.85,3046.94,4335.53,2370.00,960.00
1562,1032.13,3049.49,7356.92,2837.67,943.00
1564,1032.40,3052.03,12640.17,3494.33,952.00
1566,1032.67,3054.57,19081.93,4159.33,940.33
1568,1032.94,3057.11,21538.38,4429.67,962.67
1570,1033.21,3059.64,20404.83,4350.33,935.33
1572,1033.48,3062.18,18495.25,4228.00,954.33
1574,1033.75,3064.70,16236.83,3944.33,953.67
1576,1034.02,3067.23,15180.86,3749.33,955.67
1578,1034.29,3069.75,14464.18,3528.33,937.33
1580,1034.56,3072.28,13893.08,3382.00,949.00
1582,1034.83,3074.79,11995.16,3096.00,933.67
1584,1035.10,3077.31,9382.56,2779.33,951.33
1586,1035.37,3079.82,7652.59,2537.00,934.67
1588,1035.64,3082.33,6416.02,2375.00,958.00
1590,1035.91,3084.84,5814.97,2255.00,950.33
1592,1036.17,3087.34,5453.48,2155.67,946.33
1594,1036.44,3089.85,5921.88,2187.67,969.67
1596,1036.71,3092.35,6044.62,2116.67,938.67
1598,1036.98,3094.84,5755.36,2046.00,933.67
1600,1037.25,3097.34,4722.72,1931.00,940.00
1602,1037.52,3099.83,3355.82,1786.33,943.67
1604,1037.78,3102.32,2161.53,1646.00,948.67
1606,1038.05,3104.80,1408.41,1545.00,959.67
1608,1038.32,3107.29,1053.81,1462.00,942.33
1610,1038.59,3109.77,745.12,1405.00,941.00
1612,1038.85,3112.24,530.05,1370.33,942.33
1614,1039.12,3114.72,170.99,1335.67,964.33
1616,1039.39,3117.19,160.82,1295.00,928.00
1618,1039.66,3119.66,45.87,1292.33,948.33
1620,1039.92,3122.13,3.86,1276.67,954.67
1622,1040.19,3124.59,0.00,1257.00,948.67
1624,1040.45,3127.05,0.00,1234.67,938.67
1626,1040.72,3129.51,0.00,1237.00,953.33
1628,1040.99,3131.97,0.00,1245.33,962.67
1630,1041.25,3134.42,0.00,1237.67,963.33
1632,1041.52,3136.87,0.00,1199.33,931.00
1634,1041.78,3139.32,0.00,1218.33,943.00
1636,1042.05,3141.77,38.92,1270.67,990.00
1638,1042.32,3144.21,137.59,1229.33,939.00
1640,1042.58,3146.65,56.79,1245.33,965.33
1642,1042.85,3149.09,281.57,1255.67,954.00
1644,1043.11,3151.52,344.75,1256.00,952.67
1646,1043.38,3153.96,206.62,1249.67,959.00
1648,1043.64,3156.39,167.86,1232.33,945.00
1650,1043.90,3158.81,160.47,1232.33,948.00
1652,1044.17,3161.24,206.17,1243.33,957.67
1654,1044.43,3163.66,356.42,1236.00,937.67
1656,1044.70,3166.08,125.05,1248.33,974.00
1658,1044.96,3168.49,336.35,1245.00,951.00
1660,1045.22,3170.91,203.56,1227.00,948.00
1662,1045.49,3173.32,201.03,1225.00,946.33
1664,1045.75,3175.73,175.44,1228.33,951.33
1666,1046.01,3178.13,82.36,1206.00,941.00
1668,1046.28,3180.54,239.39,1237.33,957.33
1670,1046.54,3182.94,285.62,1239.00,959.33
1672,1046.80,3185.34,370.70,1238.33,953.67
1674,1047.07,3187.73,597.90,1240.33,938.00
1676,1047.33,3190.12,827.86,1267.67,951.33
1678,1047.59,3192.51,816.91,1268.67,958.00
1680,1047.85,3194.90,862.75,1283.33,969.00
1682,1048.11,3197.29,820.47,1276.33,965.33
1684,1048.38,3199.67,748.44,1256.33,954.33
1686,1048.64,3202.05,919.86,1275.00,961.67
1688,1048.90,3204.43,808.74,1251.33,951.33
1690,1049.16,3206.80,704.83,1232.33,944.33
1692,1049.42,3209.17,811.96,1252.00,956.33
1694,1049.68,3211.54,600.48,1221.33,943.67
1696,1049.94,3213.91,596.52,1228.33,951.00
1698,1050.20,3216.27,711.49,1235.00,952.67
1700,1050.46,3218.63,963.97,1259.33,964.67
1702,1050.72,3220.99,925.48,1233.00,946.33
1704,1050.98,3223.35,789.06,1241.67,966.00
1706,1051.24,3225.70,912.83,1234.00,948.67
1708,1051.50,3228.05,949.66,1225.00,940.33
1710,1051.76,3230.40,1084.60,1257.00,966.00
1712,1052.02,3232.75,1186.27,1243.67,947.00
1714,1052.28,3235.09,1030.20,1251.00,968.00
1716,1052.54,3237.43,1129.49,1235.67,947.67
1718,1052.80,3239.77,1239.47,1234.67,942.33
1720,1053.06,3242.11,1216.84,1237.67,950.33
1722,1053.32,3244.44,1235.40,1230.33,943.00
1724,1053.58,3246.77,1264.47,1258.67,970.33
1726,1053.84,3249.10,1273.17,1234.00,948.67
1728,1054.10,3251.42,1489.16,1248.33,952.33
1730,1054.35,3253.75,1616.06,1246.00,945.00
1732,1054.61,3256.07,1470.21,1241.67,953.33
1734,1054.87,3258.39,1545.33,1241.00,949.33
1736,1055.13,3260.70,1391.71,1226.67,949.00
1738,1055.38,3263.01,1658.44,1245.67,952.67
1740,1055.64,3265.32,1523.21,1236.00,954.33
1742,1055.90,3267.63,1450.55,1214.00,938.67
1744,1056.16,3269.94,1441.73,1244.67,972.67
1746,1056.41,3272.24,1525.68,1243.67,969.67
1748,1056.67,3274.54,1347.08,1216.33,957.67
1750,1056.93,3276.84,1787.22,1239.33,954.33
1752,1057.18,3279.13,1671.13,1226.00,951.33
1754,1057.44,3281.42,1631.42,1212.67,943.00
1756,1057.69,3283.71,1550.91,1207.00,945.33
1758,1057.95,3286.00,1587.66,1231.00,970.33
1760,1058.21,3288.28,1580.49,1212.00,954.33
1762,1058.46,3290.57,1491.34,1217.00,966.00
1764,1058.72,3292.85,1455.49,1204.33,957.00
1766,1058.97,3295.12,1451.52,1186.67,943.00
1768,1059.23,3297.40,1718.48,1199.33,943.67
1770,1059.48,3299.67,1670.11,1207.00,956.67
1772,1059.74,3301.94,1528.68,1175.67,935.00
1774,1059.99,3304.21,1566.50,1199.00,959.33
1776,1060.25,3306.47,1630.38,1206.33,968.00
1778,1060.50,3308.73,1791.91,1192.33,947.33
1780,1060.76,3310.99,1575.65,1180.67,946.33
1782,1061.01,3313.25,1374.13,1177.00,954.00
1784,1061.26,3315.50,1573.55,1183.00,952.33
1786,1061.52,3317.76,1427.35,1175.00,958.33
1788,1061.77,3320.01,1651.20,1183.67,958.33
1790,1062.02,3322.25,1595.20,1170.33,948.67
1792,1062.28,3324.50,1506.24,1170.00,953.67
1794,1062.53,3326.74,1397.38,1147.00,938.67
1796,1062.78,3328.98,1488.76,1158.33,948.33
1798,1063.04,3331.22,1559.16,1157.67,947.00
1800,1063.29,3333.45,1471.73,1153.33,948.67
1802,1063.54,3335.68,1344.82,1143.67,946.33
1804,1063.79,3337.91,1321.32,1156.00,962.00
1806,1064.05,3340.14,1487.97,1170.33,971.00
1808,1064.30,3342.36,1464.82,1134.67,938.33
1810,1064.55,3344.59,986.32,1136.00,964.67
1812,1064.80,3346.81,1503.35,1140.67,946.00
1814,1065.05,3349.02,1270.06,1133.33,952.67
1816,1065.30,3351.24,1343.06,1140.33,958.67
1818,1065.55,3353.45,1439.93,1128.33,944.33
1820,1065.81,3355.66,1450.72,1156.33,972.67
1822,1066.06,3357.87,1389.36,1130.33,949.67
1824,1066.31,3360.07,1323.91,1114.33,938.33
1826,1066.56,3362.27,1256.74,1128.33,958.67
1828,1066.81,3364.47,1475.38,1115.67,939.67
1830,1067.06,3366.67,1453.22,1123.00,949.67
1832,1067.31,3368.87,1448.57,1124.00,950.33
1834,1067.56,3371.06,1228.71,1096.67,933.00
1836,1067.81,3373.25,1195.55,1094.67,935.33
1838,1068.06,3375.44,1452.20,1104.33,938.00
1840,1068.31,3377.62,1311.47,1103.67,945.67
1842,1068.56,3379.81,1481.42,1099.00,935.00
1844,1068.80,3381.99,1417.83,1128.33,967.00
1846,1069.05,3384.16,1206.85,1110.33,958.00
1848,1069.30,3386.34,1207.10,1100.33,949.67
1850,1069.55,3388.51,1043.52,1087.00,946.33
1852,1069.80,3390.68,1408.23,1104.33,952.67
1854,1070.05,3392.85,1420.10,1123.00,971.00
1856,1070.30,3395.02,1075.13,1089.67,949.33
1858,1070.54,3397.18,1197.31,1081.67,936.33
1860,1070.79,3399.34,1389.36,1099.00,950.00
1862,1071.04,3401.50,1419.41,1088.67,943.67
1864,1071.29,3403.66,1765.72,1075.33,920.67
1866,1071.53,3405.81,1366.15,1090.67,950.33
1868,1071.78,3407.96,1341.91,1086.00,946.33
1870,1072.03,3410.11,1453.02,1093.00,950.33
1872,1072.27,3412.26,1161.20,1081.33,951.33
1874,1072.52,3414.40,1479.78,1081.00,941.00
1876,1072.77,3416.54,1102.57,1070.67,944.33
1878,1073.01,3418.68,1228.67,1087.00,957.00
1880,1073.26,3420.82,1253.82,1050.00,922.00
1882,1073.51,3422.96,1573.89,1081.67,946.67
1884,1073.75,3425.09,1205.39,1068.67,947.33
1886,1074.00,3427.22,1350.68,1059.00,932.33
1888,1074.24,3429.35,788.77,1073.00,964.00
1890,1074.49,3431.47,1039.00,1056.33,938.33
1892,1074.73,3433.59,698.64,1041.33,937.67
1894,1074.98,3435.71,1098.09,1074.00,960.67
1896,1075.22,3437.83,1279.24,1064.00,947.67
1898,1075.47,3439.95,979.38,1063.00,955.67
1900,1075.71,3442.06,986.53,1064.00,955.67
1902,1075.96,3444.17,657.23,1052.67,955.67
1904,1076.20,3446.28,1202.45,1024.00,912.00
1906,1076.44,3448.38,1323.21,1078.00,965.33
1908,1076.69,3450.49,1314.48,1070.67,959.33
1910,1076.93,3452.59,732.70,1046.67,952.33
1912,1077.17,3454.69,825.19,1041.67,945.00
1914,1077.42,3456.79,1087.13,1050.00,947.00
1916,1077.66,3458.88,963.92,1036.00,938.67
1918,1077.90,3460.97,906.08,1036.67,942.33
1920,1078.15,3463.06,1271.37,1057.67,953.33
1922,1078.39,3465.15,689.49,1040.67,952.67
1924,1078.63,3467.23,1049.47,1031.00,933.33
1926,1078.87,3469.32,1108.91,1053.00,955.00
1928,1079.12,3471.40,770.17,1029.67,942.33
1930,1079.36,3473.47,970.22,1063.67,972.33
1932,1079.60,3475.55,1119.34,1029.33,936.33
1934,1079.84,3477.62,957.30,1034.00,947.00
1936,1080.08,3479.69,1186.54,1024.00,932.33
1938,1080.33,3481.76,724.36,1020.33,939.33
1940,1080.57,3483.83,473.47,1026.67,951.33
1942,1080.81,3485.89,616.06,1029.00,948.67
1944,1081.05,3487.95,28.29,1025.00,963.33
1946,1081.29,3490.01,409.27,1020.33,949.00
1948,1081.53,3492.07,790.60,1017.00,938.33
1950,1081.77,3494.12,860.03,1021.67,943.67
1952,1082.01,3496.18,864.87,1031.00,954.33
1954,1082.25,3498.23,1020.55,1019.00,939.00
1956,1082.49,3500.27,791.33,1019.00,943.00
1958,1082.73,3502.32,295.07,1007.33,943.67
1960,1082.97,3504.36,483.15,1015.67,948.67
1962,1083.21,3506.40,765.03,1012.00,941.33
1964,1083.45,3508.44,640.04,994.00,927.00
1966,1083.69,3510.48,500.27,1032.67,967.33
1968,1083.93,3512.51,420.91,1015.33,950.33
1970,1084.16,3514.54,160.62,1002.67,946.00
1972,1084.40,3516.57,475.62,1007.67,945.67
1974,1084.64,3518.60,744.64,1001.33,936.00
1976,1084.88,3520.62,461.50,1024.67,964.33
1978,1085.12,3522.65,2.01,1018.33,968.67
1980,1085.36,3524.67,481.91,1009.00,947.00
1982,1085.59,3526.68,290.31,996.00,940.67
1984,1085.83,3528.70,605.36,1012.67,952.67
1986,1086.07,3530.71,792.52,998.67,937.33
1988,1086.31,3532.72,736.36,1014.00,954.33
1990,1086.54,3534.73,627.63,992.00,934.00
1992,1086.78,3536.74,542.73,1019.67,963.33
1994,1087.02,3538.74,575.10,1004.00,947.67
1996,1087.25,3540.74,810.00,991.67,931.67
1998,1087.49,3542.74,120.18,998.67,952.67
2000,1087.73,3544.74,849.62,1000.00,940.33
2002,1087.96,3546.74,67.01,996.67,952.67
2004,1088.20,3548.73,336.73,1009.33,960.00
2006,1088.43,3550.72,795.91,1004.33,946.33
2008,1088.67,3552.71,626.62,990.00,937.33
2010,1088.90,3554.69,833.67,984.00,929.33
2012,1089.14,3556.68,952.01,1000.00,944.33
2014,1089.38,3558.66,376.03,980.67,935.00
2016,1089.61,3560.64,975.53,987.33,932.33
2018,1089.84,3562.62,974.80,1003.00,947.67
2020,1090.08,3564.59,410.72,979.67,933.67
2022,1090.31,3566.56,385.11,980.33,934.67
2024,1090.55,3568.53,551.45,987.33,939.33
2026,1090.78,3570.50,477.38,976.33,931.67
2028,1091.02,3572.47,884.52,974.00,924.67
2030,1091.25,3574.43,662.60,977.67,932.33
2032,1091.48,3576.39,1191.83,966.33,913.33
2034,1091.72,3578.35,954.37,969.00,919.00
2036,1091.95,3580.31,0.00,971.67,937.00
2038,1092.18,3582.26,228.11,955.00,915.00
2040,1092.42,3584.22,0.00,955.00,921.00
2042,1092.65,3586.17,26.54,959.67,923.67
2044,1092.88,3588.12,316.11,961.00,921.33
2046,1093.11,3590.06,395.83,957.00,914.67
2047,1093.23,3591.03,279.13,951.00,907.67