File: src/enlighten/plugins/Raman/MatchingLibrary/785X/methyl paraben.csv
ENLIGHTEN Version,4.1.22
Measurement ID,20250220-203732-113449-WP-01977
Serial Number,WP-01977
Model,WP-785X-F13-R-ILC
Detector,S16011-1106
Label,methyl paraben
Declared Match,
Declared Score,0
Scan Averaging,9
Boxcar,0
Technique,Raman
Baseline Correction Algo,AirPLS
ROI Pixel Start,47
ROI Pixel End,2047
ROI Start Line,0
ROI Stop Line,63
CCD C4,1.38617e-12
Slit Width,25
Cropped,True
Interpolated,False
Wavenumber Correction,-0.100481
Raman Intensity Corrected,True
Deconvolved,True
Region,
High Gain Mode,False
Laser Power mW,
Electrical Dark Correction,False
Battery %,
Device ID,<DeviceID USB:0x24aa:0x1000:0:1>
FW Version,10.0.0.10
FPGA Version,035-001
BLE Version,
Prefix,enlighten
Suffix,
Preset,
Auto-Raman,True
Session Count,0
Plugin Name,
Integration Time,118
Timestamp,2025-02-20 20:37:32.1134
Note,
Temperature,0
CCD C0,793.274
CCD C1,0.153259
CCD C2,1.40788e-05
CCD C3,-1.132e-08
CCD Offset,0
CCD Gain,1.9
CCD Offset Odd,0
CCD Gain Odd,1.9
Laser Wavelength,785.032
Laser Enable,False
Laser Power %,0
Laser Temperature,0
Pixel Count,2048

Pixel,Wavelength,Wavenumber,Processed,Raw,Dark
0,793.27,132.25,NA,981.78,868.78
2,793.58,137.12,NA,992.44,872.89
4,793.89,141.99,NA,984.44,871.44
6,794.19,146.86,NA,988.22,871.33
8,794.50,151.72,NA,999.89,874.44
10,794.81,156.58,NA,1001.56,874.89
12,795.12,161.44,NA,1000.89,869.67
14,795.42,166.30,NA,1005.44,869.56
16,795.73,171.16,NA,1012.22,871.67
18,796.04,176.01,NA,1014.44,878.33
20,796.35,180.86,NA,1023.44,877.00
22,796.65,185.71,NA,1032.44,880.44
24,796.96,190.56,NA,1030.67,872.89
26,797.27,195.41,NA,1047.11,880.67
28,797.58,200.25,NA,1045.00,878.67
30,797.88,205.09,NA,1052.67,875.00
32,798.19,209.93,NA,1061.89,875.33
34,798.50,214.77,NA,1083.22,873.56
36,798.81,219.60,NA,1117.44,874.89
38,799.12,224.43,NA,1245.89,872.22
40,799.43,229.27,NA,1845.33,879.78
42,799.74,234.09,NA,4135.78,879.78
44,800.04,238.92,NA,7530.78,886.89
46,800.35,243.75,NA,9058.67,876.78
48,800.66,248.57,0.00,9407.22,881.22
50,800.97,253.39,0.00,9512.22,881.89
52,801.28,258.21,0.58,9605.89,883.22
54,801.59,263.02,5.22,9675.89,882.33
56,801.90,267.83,51.20,9788.89,882.00
58,802.21,272.65,73.15,9876.00,880.56
60,802.52,277.46,69.37,9944.67,881.56
62,802.83,282.26,63.85,10004.78,882.78
64,803.14,287.07,113.56,10119.56,886.89
66,803.45,291.87,218.58,10323.78,884.33
68,803.76,296.67,376.36,10671.33,887.11
70,804.07,301.47,834.78,11501.22,882.00
72,804.38,306.26,2205.50,13209.67,881.11
74,804.69,311.06,4010.41,14931.89,880.44
76,805.00,315.85,3484.85,14756.33,878.00
78,805.31,320.64,2364.31,13792.33,880.33
80,805.62,325.42,2322.19,13592.78,883.67
82,805.93,330.21,2409.02,13554.00,882.11
84,806.24,334.99,1951.51,13170.22,879.56
86,806.55,339.77,1594.56,12886.33,880.11
88,806.86,344.55,1921.64,13199.00,880.44
90,807.17,349.32,2223.95,13399.22,877.56
92,807.48,354.10,1601.48,12822.56,881.78
94,807.80,358.87,855.76,11999.33,884.22
96,808.11,363.63,440.61,11434.67,880.11
98,808.42,368.40,233.53,11147.89,876.89
100,808.73,373.16,131.58,11036.11,877.00
102,809.04,377.93,100.61,11023.78,878.00
104,809.35,382.68,84.68,11034.89,877.11
106,809.66,387.44,72.93,11074.67,881.89
108,809.98,392.19,30.38,11055.22,874.22
110,810.29,396.95,25.85,11089.44,881.11
112,810.60,401.70,33.95,11124.33,874.11
114,810.91,406.44,31.32,11153.89,880.33
116,811.22,411.19,56.54,11214.56,881.56
118,811.54,415.93,92.22,11289.44,882.33
120,811.85,420.67,118.34,11346.89,878.00
122,812.16,425.41,176.84,11426.00,877.00
124,812.47,430.14,126.30,11408.56,880.89
126,812.79,434.87,45.07,11324.78,877.00
128,813.10,439.60,22.50,11303.89,876.00
130,813.41,444.33,3.84,11304.56,878.11
132,813.72,449.06,8.60,11327.00,876.56
134,814.04,453.78,0.26,11338.22,880.11
136,814.35,458.50,12.54,11390.00,874.11
138,814.66,463.22,59.37,11460.00,875.78
140,814.98,467.93,83.42,11505.33,877.22
142,815.29,472.65,80.95,11532.78,878.56
144,815.60,477.36,105.02,11595.67,880.67
146,815.92,482.06,113.11,11637.22,876.89
148,816.23,486.77,176.29,11803.22,880.22
150,816.54,491.47,439.29,12201.78,883.33
152,816.86,496.17,832.55,12603.56,876.56
154,817.17,500.87,758.12,12598.33,881.44
156,817.48,505.57,455.95,12295.67,876.00
158,817.80,510.26,414.43,12182.22,874.78
160,818.11,514.95,384.21,12099.89,883.67
162,818.42,519.64,148.98,11846.67,879.11
164,818.74,524.32,49.84,11695.44,878.33
166,819.05,529.00,28.26,11648.44,879.67
168,819.37,533.68,30.25,11659.33,880.67
170,819.68,538.36,19.18,11656.22,878.56
172,819.99,543.04,11.36,11657.00,885.00
174,820.31,547.71,17.57,11667.89,879.33
176,820.62,552.38,0.00,11638.56,877.33
178,820.94,557.05,26.31,11689.11,876.78
180,821.25,561.71,6.19,11671.78,872.67
182,821.57,566.37,4.49,11678.00,874.00
184,821.88,571.03,1.83,11682.00,876.22
186,822.20,575.69,0.00,11674.44,882.11
188,822.51,580.34,0.00,11693.33,877.44
190,822.83,584.99,0.00,11681.56,877.44
192,823.14,589.64,0.00,11713.22,877.67
194,823.46,594.29,27.00,11766.11,879.78
196,823.77,598.93,15.40,11777.33,877.89
198,824.09,603.57,16.54,11786.44,873.89
200,824.40,608.21,75.34,11912.11,877.33
202,824.72,612.85,217.21,12176.44,880.11
204,825.03,617.48,613.26,12692.67,879.44
206,825.35,622.11,909.82,13124.44,880.67
208,825.66,626.74,694.39,13296.33,881.00
210,825.98,631.36,1539.24,14992.22,877.33
212,826.29,635.99,4852.36,18292.78,880.78
214,826.61,640.61,4278.41,17774.22,876.78
216,826.92,645.22,1062.11,14249.44,872.89
218,827.24,649.84,296.67,12574.78,873.67
220,827.56,654.45,228.03,12200.11,876.67
222,827.87,659.06,268.47,12182.33,878.22
224,828.19,663.67,357.15,12303.22,877.56
226,828.50,668.27,414.45,12414.56,890.00
228,828.82,672.87,463.30,12491.44,881.44
230,829.13,677.47,557.35,12612.89,877.00
232,829.45,682.06,579.85,12642.56,881.11
234,829.77,686.66,544.85,12617.11,887.89
236,830.08,691.25,457.18,12481.44,880.56
238,830.40,695.83,515.37,12496.33,877.00
240,830.72,700.42,431.50,12350.67,876.11
242,831.03,705.00,215.31,12061.44,871.78
244,831.35,709.58,82.83,11853.67,877.56
246,831.66,714.15,25.31,11714.33,870.22
248,831.98,718.73,42.19,11715.33,878.11
250,832.30,723.30,34.35,11685.56,877.67
252,832.61,727.87,0.04,11621.33,881.11
254,832.93,732.43,0.00,11582.78,868.56
256,833.25,736.99,8.53,11597.67,879.44
258,833.56,741.55,11.39,11581.78,874.89
260,833.88,746.11,0.12,11550.89,875.11
262,834.20,750.66,0.00,11512.78,877.56
264,834.51,755.22,0.00,11493.67,877.78
266,834.83,759.76,0.00,11516.78,877.56
268,835.15,764.31,0.00,11486.33,877.11
270,835.47,768.85,8.45,11601.67,873.33
272,835.78,773.39,251.60,11924.22,877.22
274,836.10,777.93,455.36,12045.22,875.67
276,836.42,782.46,35.52,11701.22,876.89
278,836.73,787.00,0.00,11491.78,876.44
280,837.05,791.52,0.00,11448.67,870.33
282,837.37,796.05,2.84,11545.67,881.33
284,837.69,800.57,113.07,11713.78,870.89
286,838.00,805.09,327.83,11938.44,873.44
288,838.32,809.61,363.10,12047.22,876.33
290,838.64,814.13,404.67,12178.00,879.56
292,838.95,818.64,581.27,12530.44,876.22
294,839.27,823.15,1107.72,13365.44,872.56
296,839.59,827.65,1859.59,14351.00,877.22
298,839.91,832.15,2261.35,14913.33,872.22
300,840.22,836.65,2051.07,15039.78,883.78
302,840.54,841.15,2093.13,15869.00,872.78
304,840.86,845.65,4241.72,20211.33,879.78
306,841.18,850.14,10169.43,28707.67,877.56
308,841.50,854.63,16710.36,35738.56,891.00
310,841.81,859.11,14580.68,33256.89,877.22
312,842.13,863.60,5469.94,22521.22,876.44
314,842.45,868.07,1334.24,14917.00,876.44
316,842.77,872.55,484.16,12398.89,878.56
318,843.08,877.03,246.00,11623.67,882.33
320,843.40,881.50,93.82,11293.11,871.78
322,843.72,885.97,23.19,11135.67,880.11
324,844.04,890.43,4.97,11034.11,873.89
326,844.36,894.89,0.00,10972.00,873.78
328,844.67,899.35,0.00,10905.78,879.22
330,844.99,903.81,0.00,10831.11,873.00
332,845.31,908.26,0.00,10844.67,877.56
334,845.63,912.71,0.00,10818.56,879.89
336,845.95,917.16,0.00,10784.78,881.11
338,846.27,921.61,0.00,10797.78,926.00
340,846.58,926.05,0.00,10724.67,875.78
342,846.90,930.49,5.77,10740.89,878.22
344,847.22,934.92,24.99,10722.67,875.67
346,847.54,939.36,46.83,10745.44,867.89
348,847.86,943.79,101.13,10832.89,870.33
350,848.18,948.21,200.70,10996.33,874.11
352,848.49,952.64,420.69,11252.44,874.22
354,848.81,957.06,589.03,11403.44,869.22
356,849.13,961.48,409.98,11208.89,881.11
358,849.45,965.89,165.23,10836.67,878.00
360,849.77,970.31,101.70,10666.44,877.67
362,850.09,974.71,37.92,10518.22,874.56
364,850.40,979.12,14.08,10448.00,880.00
366,850.72,983.52,30.13,10440.11,881.56
368,851.04,987.92,31.79,10397.00,869.00
370,851.36,992.32,33.52,10394.78,874.00
372,851.68,996.72,16.43,10349.44,878.33
374,852.00,1001.11,53.78,10378.67,871.56
376,852.32,1005.50,110.07,10454.67,873.44
378,852.63,1009.88,309.16,10671.00,882.44
380,852.95,1014.26,283.80,10614.11,876.11
382,853.27,1018.64,155.99,10451.11,880.11
384,853.59,1023.02,131.00,10357.44,874.89
386,853.91,1027.39,111.56,10270.00,867.78
388,854.23,1031.76,82.53,10200.78,874.44
390,854.55,1036.13,47.73,10109.00,873.22
392,854.87,1040.49,37.81,10060.00,875.67
394,855.18,1044.86,1.36,9986.22,877.00
396,855.50,1049.21,0.00,9912.67,874.56
398,855.82,1053.57,0.00,9898.33,876.00
400,856.14,1057.92,0.00,9842.11,876.33
402,856.46,1062.27,7.17,9881.67,874.67
404,856.78,1066.62,0.00,9845.56,869.89
406,857.10,1070.96,3.94,9843.33,870.11
408,857.42,1075.30,0.00,9802.22,881.22
410,857.74,1079.64,6.68,9822.78,874.11
412,858.06,1083.97,0.00,9783.89,873.11
414,858.37,1088.30,0.00,9758.33,872.89
416,858.69,1092.63,0.00,9741.89,871.44
418,859.01,1096.95,0.20,9820.78,871.00
420,859.33,1101.27,108.71,10082.00,874.78
422,859.65,1105.59,270.83,10234.78,873.22
424,859.97,1109.91,293.81,10414.67,874.89
426,860.29,1114.22,517.60,10828.11,873.78
428,860.61,1118.53,1011.65,11420.00,870.00
430,860.93,1122.84,1241.69,11649.89,873.44
432,861.25,1127.14,713.57,11061.44,877.56
434,861.56,1131.44,265.11,10439.00,872.44
436,861.88,1135.74,33.30,10076.44,873.11
438,862.20,1140.03,0.00,9883.44,877.33
440,862.52,1144.32,2.52,9970.89,877.11
442,862.84,1148.61,90.16,10417.33,882.11
444,863.16,1152.89,636.22,11890.22,874.56
446,863.48,1157.17,3515.07,15881.00,871.00
448,863.80,1161.45,6802.55,18782.56,872.89
450,864.12,1165.73,3532.63,16115.11,875.56
452,864.44,1170.00,1582.16,13288.67,874.00
454,864.76,1174.27,1701.00,12628.22,874.44
456,865.07,1178.53,1008.08,11665.22,870.56
458,865.39,1182.80,184.94,10514.33,877.22
460,865.71,1187.06,153.01,10368.56,873.33
462,866.03,1191.31,495.21,10703.00,874.67
464,866.35,1195.57,702.08,10805.56,869.22
466,866.67,1199.82,211.08,10419.33,874.44
468,866.99,1204.06,2.51,10031.67,875.78
470,867.31,1208.31,0.00,9900.00,877.11
472,867.63,1212.55,0.00,9872.00,874.44
474,867.95,1216.79,0.00,9880.56,871.22
476,868.27,1221.02,4.84,10132.11,872.22
478,868.58,1225.25,294.19,10862.89,868.44
480,868.90,1229.48,1289.94,12093.22,877.56
482,869.22,1233.71,2155.04,13124.11,877.78
484,869.54,1237.93,2010.48,13099.22,880.56
486,869.86,1242.15,1372.79,12397.89,875.44
488,870.18,1246.36,899.06,11716.22,867.44
490,870.50,1250.58,717.33,11431.33,875.11
492,870.82,1254.79,797.76,11590.33,881.56
494,871.14,1258.99,1135.62,12203.78,879.22
496,871.46,1263.20,1843.40,13554.44,877.89
498,871.78,1267.40,3121.79,16234.11,872.33
500,872.10,1271.59,5852.01,21635.67,873.33
502,872.41,1275.79,12490.54,31570.78,872.67
504,872.73,1279.98,22277.53,42401.89,873.89
506,873.05,1284.17,23093.55,43238.11,874.44
508,873.37,1288.35,13795.62,33193.44,867.00
510,873.69,1292.53,6829.48,23101.89,870.22
512,874.01,1296.71,3683.46,17355.22,873.56
514,874.33,1300.88,2059.88,14463.89,867.44
516,874.65,1305.06,1789.11,13877.67,875.44
518,874.97,1309.22,3294.63,15402.89,869.22
520,875.29,1313.39,4349.15,16154.89,874.33
522,875.60,1317.55,2453.69,14338.67,877.67
524,875.92,1321.71,985.53,12361.67,874.44
526,876.24,1325.87,491.65,11332.67,877.00
528,876.56,1330.02,260.91,10826.11,872.56
530,876.88,1334.17,62.91,10548.11,876.67
532,877.20,1338.32,0.68,10335.44,869.11
534,877.52,1342.46,0.00,10252.67,870.00
536,877.84,1346.60,0.00,10192.33,873.67
538,878.16,1350.73,0.74,10191.33,871.78
540,878.47,1354.87,32.47,10199.78,875.00
542,878.79,1359.00,141.92,10245.67,874.11
544,879.11,1363.13,148.79,10213.56,872.56
546,879.43,1367.25,53.90,10063.33,871.89
548,879.75,1371.37,36.29,9990.11,873.00
550,880.07,1375.49,62.07,9966.00,872.00
552,880.39,1379.60,136.00,9980.00,877.56
554,880.71,1383.71,124.95,9911.67,874.44
556,881.03,1387.82,37.41,9768.33,868.22
558,881.34,1391.93,3.83,9659.78,868.11
560,881.66,1396.03,0.00,9585.00,874.56
562,881.98,1400.13,0.00,9519.22,874.44
564,882.30,1404.22,0.00,9462.56,875.67
566,882.62,1408.31,0.00,9380.56,871.78
568,882.94,1412.40,0.00,9341.11,876.11
570,883.26,1416.49,0.00,9302.44,871.00
572,883.57,1420.57,0.00,9337.33,875.89
574,883.89,1424.65,35.35,9589.44,869.22
576,884.21,1428.73,465.98,10241.00,876.78
578,884.53,1432.80,1380.59,11166.22,877.89
580,884.85,1436.87,1715.06,11571.00,870.89
582,885.17,1440.93,1253.75,11259.22,869.44
584,885.49,1445.00,1082.57,11143.44,869.33
586,885.80,1449.06,1408.31,11521.33,867.22
588,886.12,1453.11,2034.08,12115.00,878.44
590,886.44,1457.17,2293.71,12280.11,876.67
592,886.76,1461.22,1598.08,11524.89,875.22
594,887.08,1465.26,798.20,10526.44,880.00
596,887.40,1469.31,396.91,9845.67,870.33
598,887.71,1473.35,210.57,9465.78,869.89
600,888.03,1477.38,126.49,9271.67,874.11
602,888.35,1481.42,36.43,9157.44,877.00
604,888.67,1485.45,0.18,9052.00,877.22
606,888.99,1489.48,0.00,8995.11,869.89
608,889.31,1493.50,0.00,8934.00,876.11
610,889.62,1497.52,0.00,8989.33,877.11
612,889.94,1501.54,0.02,8994.11,870.11
614,890.26,1505.56,12.31,9097.00,873.56
616,890.58,1509.57,159.76,9449.56,871.89
618,890.90,1513.57,774.97,10220.22,872.56
620,891.21,1517.58,1767.24,10953.67,873.22
622,891.53,1521.58,1063.13,10500.67,875.56
624,891.85,1525.58,137.55,9486.22,873.67
626,892.17,1529.57,5.04,9081.22,874.22
628,892.49,1533.57,0.00,8970.33,873.00
630,892.80,1537.56,0.00,8936.56,871.22
632,893.12,1541.54,0.00,8968.22,870.78
634,893.44,1545.52,0.00,8969.00,877.22
636,893.76,1549.50,0.00,8970.11,870.33
638,894.07,1553.48,0.00,9041.44,873.67
640,894.39,1557.45,0.00,9106.56,874.11
642,894.71,1561.42,12.76,9272.56,876.33
644,895.03,1565.39,172.25,9617.22,869.22
646,895.34,1569.35,632.71,10345.89,875.44
648,895.66,1573.31,1461.44,11783.89,874.33
650,895.98,1577.26,2719.90,14400.67,875.11
652,896.30,1581.22,6048.26,19915.11,868.78
654,896.61,1585.17,14629.09,29260.67,872.33
656,896.93,1589.11,20897.99,34603.11,873.78
658,897.25,1593.06,15247.21,30492.44,872.22
660,897.57,1597.00,8656.81,24283.22,873.33
662,897.88,1600.93,7337.89,22366.00,872.78
664,898.20,1604.87,11988.94,26258.11,872.89
666,898.52,1608.80,16310.90,28758.11,871.78
668,898.84,1612.72,10858.02,24007.44,869.67
670,899.15,1616.65,3960.07,16731.44,878.56
672,899.47,1620.57,1396.93,12428.00,866.78
674,899.79,1624.49,936.60,11062.11,875.89
676,900.10,1628.40,992.64,10710.33,869.00
678,900.42,1632.31,858.25,10457.22,874.00
680,900.74,1636.22,374.33,9985.22,868.78
682,901.05,1640.12,96.27,9607.78,878.11
684,901.37,1644.02,20.70,9413.33,871.56
686,901.69,1647.92,0.03,9243.78,875.78
688,902.00,1651.82,15.85,9294.44,872.00
690,902.32,1655.71,254.08,9649.67,871.89
692,902.64,1659.60,817.34,10360.78,869.56
694,902.95,1663.48,1606.32,11895.89,877.11
696,903.27,1667.36,3673.97,15179.67,874.11
698,903.59,1671.24,9601.58,21160.89,877.67
700,903.90,1675.11,13835.31,24940.00,872.56
702,904.22,1678.99,9265.23,22066.89,870.11
704,904.54,1682.85,8300.63,20871.00,883.11
706,904.85,1686.72,11621.30,22268.78,870.78
708,905.17,1690.58,8223.09,18730.89,871.78
710,905.49,1694.44,2744.79,13130.78,871.89
712,905.80,1698.29,914.02,10084.11,869.67
714,906.12,1702.15,442.39,8835.89,874.22
716,906.43,1706.00,264.35,8299.78,873.67
718,906.75,1709.84,114.26,8010.33,876.78
720,907.07,1713.68,8.37,7767.89,874.22
722,907.38,1717.52,0.02,7630.22,872.89
724,907.70,1721.36,0.00,7480.22,874.00
726,908.01,1725.19,0.00,7424.78,872.00
728,908.33,1729.02,0.00,7319.00,874.67
730,908.65,1732.85,0.00,7309.78,874.33
732,908.96,1736.67,18.62,7308.22,874.22
734,909.28,1740.49,131.53,7342.11,872.22
736,909.59,1744.30,182.75,7322.78,876.56
738,909.91,1748.12,152.08,7236.11,872.56
740,910.22,1751.93,77.44,7096.67,872.78
742,910.54,1755.73,14.07,7004.11,883.89
744,910.85,1759.54,0.00,6863.00,878.67
746,911.17,1763.34,0.00,6783.67,872.56
748,911.49,1767.13,0.00,6742.67,872.89
750,911.80,1770.93,0.00,6673.00,870.89
752,912.12,1774.72,0.00,6649.56,874.22
754,912.43,1778.50,0.00,6616.56,867.00
756,912.75,1782.29,2.22,6603.56,868.11
758,913.06,1786.07,37.26,6592.44,870.78
760,913.38,1789.84,48.55,6578.44,874.11
762,913.69,1793.62,33.11,6533.89,874.89
764,914.01,1797.39,28.27,6485.56,874.00
766,914.32,1801.15,54.06,6473.78,870.56
768,914.64,1804.92,29.59,6414.33,870.33
770,914.95,1808.68,25.31,6376.89,876.22
772,915.26,1812.44,24.95,6337.11,871.44
774,915.58,1816.19,0.00,6267.67,868.78
776,915.89,1819.94,0.00,6237.78,875.89
778,916.21,1823.69,0.00,6202.33,875.67
780,916.52,1827.43,2.72,6189.00,875.89
782,916.84,1831.17,5.43,6145.89,870.78
784,917.15,1834.91,42.04,6144.33,869.22
786,917.47,1838.64,24.47,6107.67,874.56
788,917.78,1842.38,10.06,6060.67,872.22
790,918.09,1846.10,19.25,6035.22,873.44
792,918.41,1849.83,23.65,6007.44,873.67
794,918.72,1853.55,0.98,5944.67,866.56
796,919.04,1857.27,15.12,5937.00,871.00
798,919.35,1860.98,0.00,5874.78,872.89
800,919.66,1864.69,14.06,5878.33,870.11
802,919.98,1868.40,23.37,5851.22,871.56
804,920.29,1872.11,46.01,5847.56,872.33
806,920.60,1875.81,70.69,5840.78,871.56
808,920.92,1879.51,47.76,5796.89,869.00
810,921.23,1883.20,46.98,5769.67,874.89
812,921.55,1886.90,61.68,5741.56,869.67
814,921.86,1890.58,54.77,5716.33,877.44
816,922.17,1894.27,52.21,5689.67,877.78
818,922.49,1897.95,85.00,5687.00,870.11
820,922.80,1901.63,70.63,5636.89,872.56
822,923.11,1905.31,79.22,5615.89,870.33
824,923.42,1908.98,80.20,5594.11,873.56
826,923.74,1912.65,67.21,5553.67,873.11
828,924.05,1916.31,62.20,5518.89,873.00
830,924.36,1919.98,84.97,5505.33,870.11
832,924.68,1923.64,110.75,5497.22,869.44
834,924.99,1927.29,78.09,5439.11,868.67
836,925.30,1930.94,63.17,5392.89,865.22
838,925.61,1934.59,58.88,5360.67,872.33
840,925.93,1938.24,38.70,5309.33,871.33
842,926.24,1941.88,30.48,5271.78,874.22
844,926.55,1945.52,20.53,5232.00,868.78
846,926.86,1949.16,3.09,5191.22,874.78
848,927.18,1952.79,3.09,5162.11,870.78
850,927.49,1956.42,2.79,5127.22,869.56
852,927.80,1960.05,19.39,5134.00,888.89
854,928.11,1963.67,47.64,5116.78,870.33
856,928.42,1967.29,38.59,5087.56,875.11
858,928.74,1970.91,66.86,5079.44,873.89
860,929.05,1974.52,35.32,5025.78,871.33
862,929.36,1978.13,55.04,5021.22,871.44
864,929.67,1981.74,53.35,4985.78,873.56
866,929.98,1985.35,30.22,4934.00,873.44
868,930.29,1988.95,30.12,4903.67,871.11
870,930.61,1992.54,6.30,4856.67,871.89
872,930.92,1996.14,2.40,4825.78,872.78
874,931.23,1999.73,0.00,4786.33,874.89
876,931.54,2003.32,2.89,4774.44,875.78
878,931.85,2006.90,36.45,4783.89,872.11
880,932.16,2010.48,75.48,4788.89,872.11
882,932.47,2014.06,76.87,4767.67,871.78
884,932.78,2017.63,71.05,4742.89,874.22
886,933.09,2021.21,93.93,4730.22,870.44
888,933.41,2024.77,88.87,4694.89,874.33
890,933.72,2028.34,59.26,4657.00,879.33
892,934.03,2031.90,9.93,4578.67,874.33
894,934.34,2035.46,3.53,4545.78,877.44
896,934.65,2039.01,3.34,4513.44,872.44
898,934.96,2042.57,2.72,4488.22,873.89
900,935.27,2046.11,0.00,4460.67,875.89
902,935.58,2049.66,1.16,4435.56,867.67
904,935.89,2053.20,18.69,4436.00,871.44
906,936.20,2056.74,28.16,4406.00,870.11
908,936.51,2060.28,15.89,4374.67,869.33
910,936.82,2063.81,30.72,4372.22,875.00
912,937.13,2067.34,39.75,4347.44,870.67
914,937.44,2070.86,26.50,4317.11,874.00
916,937.75,2074.39,21.84,4289.11,871.11
918,938.06,2077.91,23.34,4263.67,870.11
920,938.37,2081.42,44.43,4258.67,872.33
922,938.68,2084.94,32.13,4220.22,867.67
924,938.99,2088.45,14.51,4181.56,870.56
926,939.30,2091.95,13.46,4162.22,872.11
928,939.60,2095.46,1.27,4126.89,872.89
930,939.91,2098.96,3.14,4110.67,875.22
932,940.22,2102.45,12.28,4094.56,874.11
934,940.53,2105.95,8.99,4061.67,870.44
936,940.84,2109.44,28.55,4059.56,870.33
938,941.15,2112.92,28.75,4035.44,871.67
940,941.46,2116.41,33.55,4016.78,872.11
942,941.77,2119.89,13.27,3985.89,875.67
944,942.07,2123.37,18.33,3964.22,867.89
946,942.38,2126.84,29.52,3954.22,876.00
948,942.69,2130.31,28.88,3929.78,876.33
950,943.00,2133.78,32.51,3910.44,871.56
952,943.31,2137.24,19.15,3879.22,875.11
954,943.62,2140.70,27.81,3863.56,874.44
956,943.92,2144.16,0.00,3811.78,871.11
958,944.23,2147.62,13.01,3807.89,872.33
960,944.54,2151.07,18.96,3797.89,877.89
962,944.85,2154.52,15.30,3774.11,879.67
964,945.16,2157.96,26.85,3760.00,877.67
966,945.46,2161.40,30.43,3737.00,874.11
968,945.77,2164.84,35.80,3710.56,865.33
970,946.08,2168.28,15.16,3681.56,872.67
972,946.39,2171.71,5.46,3655.78,871.11
974,946.69,2175.14,0.00,3621.89,871.11
976,947.00,2178.57,10.12,3613.22,871.33
978,947.31,2181.99,0.00,3581.11,870.11
980,947.61,2185.41,0.00,3558.89,873.33
982,947.92,2188.82,0.36,3551.22,874.44
984,948.23,2192.24,0.00,3522.67,868.11
986,948.53,2195.65,0.00,3512.44,874.89
988,948.84,2199.05,48.87,3527.22,865.67
990,949.15,2202.46,42.91,3510.67,873.78
992,949.45,2205.86,56.11,3505.11,872.89
994,949.76,2209.25,44.87,3477.11,869.78
996,950.07,2212.65,38.93,3454.89,872.11
998,950.37,2216.04,53.47,3448.22,868.78
1000,950.68,2219.43,18.44,3407.00,874.44
1002,950.98,2222.81,62.26,3423.22,873.89
1004,951.29,2226.19,64.42,3396.89,869.56
1006,951.60,2229.57,57.29,3375.56,865.44
1008,951.90,2232.94,38.25,3348.44,868.56
1010,952.21,2236.32,46.82,3339.78,869.44
1012,952.51,2239.68,44.24,3321.11,873.78
1014,952.82,2243.05,51.84,3298.00,865.22
1016,953.12,2246.41,63.04,3303.78,877.89
1018,953.43,2249.77,49.71,3279.78,879.22
1020,953.73,2253.12,49.96,3253.00,873.22
1022,954.04,2256.48,71.81,3249.00,868.11
1024,954.34,2259.83,30.66,3208.67,874.89
1026,954.65,2263.17,47.79,3196.56,869.00
1028,954.95,2266.51,38.13,3170.78,870.11
1030,955.26,2269.85,28.21,3154.44,875.44
1032,955.56,2273.19,4.99,3116.89,873.44
1034,955.87,2276.52,15.40,3111.00,873.78
1036,956.17,2279.85,17.59,3096.00,875.89
1038,956.48,2283.18,17.10,3069.44,866.11
1040,956.78,2286.50,38.09,3068.44,867.44
1042,957.08,2289.82,22.80,3039.33,867.33
1044,957.39,2293.14,30.39,3036.89,873.78
1046,957.69,2296.45,38.39,3022.11,868.67
1048,957.99,2299.76,55.23,3025.67,878.11
1050,958.30,2303.07,50.64,2997.44,871.44
1052,958.60,2306.38,54.14,2985.89,872.11
1054,958.91,2309.68,33.05,2950.00,870.89
1056,959.21,2312.98,17.87,2928.00,872.11
1058,959.51,2316.27,2.06,2902.33,873.11
1060,959.82,2319.56,0.00,2877.78,875.56
1062,960.12,2322.85,11.78,2872.89,869.44
1064,960.42,2326.14,2.88,2850.11,869.89
1066,960.72,2329.42,4.91,2840.11,872.44
1068,961.03,2332.70,15.14,2834.33,873.67
1070,961.33,2335.97,32.25,2827.67,872.78
1072,961.63,2339.25,29.85,2806.33,868.33
1074,961.93,2342.52,29.53,2798.33,869.22
1076,962.24,2345.78,17.21,2776.00,871.22
1078,962.54,2349.05,26.75,2770.00,874.67
1080,962.84,2352.31,42.06,2762.67,872.67
1082,963.14,2355.56,27.80,2737.89,872.78
1084,963.45,2358.82,13.45,2713.56,871.22
1086,963.75,2362.07,17.77,2705.00,872.89
1088,964.05,2365.32,21.44,2697.44,878.89
1090,964.35,2368.56,0.00,2661.56,873.22
1092,964.65,2371.80,1.04,2653.44,874.22
1094,964.95,2375.04,5.09,2646.22,872.11
1096,965.25,2378.27,25.66,2641.67,870.78
1098,965.56,2381.51,20.46,2625.56,874.56
1100,965.86,2384.73,36.07,2627.22,871.89
1102,966.16,2387.96,25.67,2602.67,869.00
1104,966.46,2391.18,37.50,2604.22,877.56
1106,966.76,2394.40,34.60,2581.33,867.78
1108,967.06,2397.62,42.06,2579.56,875.44
1110,967.36,2400.83,38.97,2558.67,871.11
1112,967.66,2404.04,17.05,2547.44,878.67
1114,967.96,2407.25,0.05,2508.00,867.89
1116,968.26,2410.45,19.19,2514.22,872.11
1118,968.56,2413.65,0.00,2484.56,871.56
1120,968.86,2416.85,0.63,2483.11,878.33
1122,969.16,2420.04,2.02,2470.11,875.11
1124,969.46,2423.23,0.00,2453.89,873.33
1126,969.76,2426.42,7.98,2446.78,872.11
1128,970.06,2429.60,0.13,2424.33,866.11
1130,970.36,2432.79,9.04,2427.67,872.11
1132,970.66,2435.96,24.20,2422.78,871.44
1134,970.96,2439.14,26.27,2410.11,871.56
1136,971.26,2442.31,22.32,2402.00,873.89
1138,971.56,2445.48,23.88,2390.33,870.89
1140,971.86,2448.65,16.61,2368.44,867.22
1142,972.16,2451.81,20.11,2365.56,873.67
1144,972.45,2454.97,17.87,2354.78,873.44
1146,972.75,2458.13,27.39,2350.67,871.56
1148,973.05,2461.28,34.46,2340.44,870.56
1150,973.35,2464.43,59.03,2341.22,870.56
1152,973.65,2467.58,41.87,2323.11,872.33
1154,973.95,2470.72,47.34,2316.78,872.56
1156,974.24,2473.86,47.75,2307.11,874.56
1158,974.54,2477.00,51.56,2292.00,868.33
1160,974.84,2480.13,52.09,2287.44,873.44
1162,975.14,2483.27,51.99,2277.00,874.56
1164,975.43,2486.40,52.93,2258.33,868.11
1166,975.73,2489.52,23.20,2235.89,870.89
1168,976.03,2492.64,14.43,2224.78,873.44
1170,976.33,2495.76,13.25,2211.22,872.11
1172,976.62,2498.88,1.59,2189.44,868.78
1174,976.92,2501.99,9.20,2193.33,875.78
1176,977.22,2505.10,1.69,2174.78,873.00
1178,977.51,2508.21,12.07,2171.11,871.11
1180,977.81,2511.31,22.38,2165.33,869.67
1182,978.11,2514.41,52.13,2172.00,870.22
1184,978.40,2517.51,54.66,2166.11,872.67
1186,978.70,2520.61,87.86,2170.67,869.44
1188,979.00,2523.70,74.89,2158.00,875.00
1190,979.29,2526.79,79.53,2150.44,871.44
1192,979.59,2529.87,77.23,2139.00,871.67
1194,979.88,2532.95,94.94,2131.11,867.00
1196,980.18,2536.03,59.76,2114.89,875.44
1198,980.48,2539.11,45.32,2098.56,876.00
1200,980.77,2542.18,85.03,2103.11,872.33
1202,981.07,2545.25,62.43,2087.33,877.44
1204,981.36,2548.32,51.79,2070.00,871.44
1206,981.66,2551.38,59.53,2065.33,873.56
1208,981.95,2554.44,72.93,2055.22,869.89
1210,982.25,2557.50,47.73,2041.00,876.33
1212,982.54,2560.56,58.22,2040.33,876.33
1214,982.84,2563.61,42.05,2023.78,879.56
1216,983.13,2566.66,52.09,2016.78,878.11
1218,983.43,2569.70,59.23,2010.89,876.89
1220,983.72,2572.74,26.57,1989.56,879.56
1222,984.01,2575.78,39.99,1983.44,873.44
1224,984.31,2578.82,49.27,1973.56,870.22
1226,984.60,2581.85,72.86,1982.33,875.67
1228,984.90,2584.88,58.57,1959.00,869.11
1230,985.19,2587.91,99.17,1971.78,872.11
1232,985.48,2590.93,98.82,1964.00,873.00
1234,985.78,2593.96,117.98,1968.78,875.89
1236,986.07,2596.97,103.75,1946.00,871.33
1238,986.36,2599.99,100.44,1942.33,878.00
1240,986.66,2603.00,79.73,1926.67,877.22
1242,986.95,2606.01,59.94,1912.56,879.56
1244,987.24,2609.01,67.57,1904.44,877.22
1246,987.54,2612.02,82.51,1889.11,867.00
1248,987.83,2615.02,93.25,1892.89,875.00
1250,988.12,2618.01,72.26,1877.67,876.44
1252,988.41,2621.01,84.02,1871.33,873.56
1254,988.71,2624.00,75.89,1856.56,872.33
1256,989.00,2626.99,72.90,1850.56,875.44
1258,989.29,2629.97,39.46,1830.11,876.67
1260,989.58,2632.95,24.18,1815.11,876.00
1262,989.87,2635.93,26.29,1804.78,874.22
1264,990.16,2638.91,22.15,1789.67,871.33
1266,990.46,2641.88,22.95,1787.44,875.22
1268,990.75,2644.85,0.00,1771.78,878.89
1270,991.04,2647.81,6.45,1766.00,875.89
1272,991.33,2650.78,6.37,1760.44,877.33
1274,991.62,2653.74,0.00,1743.89,875.56
1276,991.91,2656.70,1.83,1735.78,870.78
1278,992.20,2659.65,11.01,1735.67,873.22
1280,992.49,2662.60,40.31,1735.56,869.56
1282,992.78,2665.55,62.93,1742.00,875.44
1284,993.07,2668.50,72.50,1742.67,877.89
1286,993.36,2671.44,64.02,1730.11,875.44
1288,993.65,2674.38,58.56,1723.56,878.00
1290,993.94,2677.31,64.35,1716.67,876.00
1292,994.23,2680.25,52.66,1703.67,875.22
1294,994.52,2683.18,40.43,1689.22,872.44
1296,994.81,2686.10,52.74,1691.11,877.44
1298,995.10,2689.03,34.84,1673.56,875.11
1300,995.39,2691.95,31.19,1665.33,873.00
1302,995.68,2694.87,9.54,1656.33,878.89
1304,995.97,2697.78,4.87,1646.33,878.00
1306,996.26,2700.70,0.00,1626.78,871.44
1308,996.55,2703.61,23.24,1637.11,874.89
1310,996.84,2706.51,0.00,1621.56,876.67
1312,997.13,2709.42,29.66,1627.67,875.78
1314,997.41,2712.32,41.65,1623.56,873.67
1316,997.70,2715.21,42.02,1618.33,875.67
1318,997.99,2718.11,82.15,1623.89,872.56
1320,998.28,2721.00,70.01,1611.67,870.56
1322,998.57,2723.89,55.44,1611.89,882.44
1324,998.86,2726.77,84.12,1605.00,871.78
1326,999.14,2729.66,98.85,1605.00,871.89
1328,999.43,2732.54,68.91,1591.11,874.33
1330,999.72,2735.41,72.00,1585.22,874.56
1332,1000.01,2738.29,83.68,1586.44,878.22
1334,1000.29,2741.16,60.14,1570.89,875.89
1336,1000.58,2744.03,75.23,1564.78,870.11
1338,1000.87,2746.89,75.30,1567.33,880.22
1340,1001.15,2749.75,56.73,1549.33,874.56
1342,1001.44,2752.61,48.12,1540.44,874.56
1344,1001.73,2755.47,61.51,1541.00,875.56
1346,1002.01,2758.32,54.93,1531.44,874.22
1348,1002.30,2761.17,50.13,1528.33,879.56
1350,1002.59,2764.02,39.90,1518.67,879.00
1352,1002.87,2766.86,57.23,1514.22,874.11
1354,1003.16,2769.70,75.64,1509.44,871.67
1356,1003.44,2772.54,47.53,1494.44,872.00
1358,1003.73,2775.38,46.99,1494.44,875.22
1360,1004.01,2778.21,17.15,1476.11,870.56
1362,1004.30,2781.04,2.61,1469.33,876.33
1364,1004.58,2783.87,19.77,1467.78,874.11
1366,1004.87,2786.69,12.38,1453.00,867.44
1368,1005.15,2789.51,3.27,1456.44,878.44
1370,1005.44,2792.33,0.00,1446.44,878.56
1372,1005.72,2795.14,7.07,1449.00,878.67
1374,1006.01,2797.95,0.00,1438.22,877.56
1376,1006.29,2800.76,0.00,1433.33,874.56
1378,1006.58,2803.57,10.14,1436.78,877.56
1380,1006.86,2806.37,29.33,1432.67,872.89
1382,1007.14,2809.17,18.46,1431.33,875.33
1384,1007.43,2811.97,12.15,1420.33,869.89
1386,1007.71,2814.77,16.38,1416.22,869.11
1388,1008.00,2817.56,0.00,1406.67,869.67
1390,1008.28,2820.35,17.79,1417.00,875.89
1392,1008.56,2823.13,30.96,1416.78,872.67
1394,1008.85,2825.91,10.00,1411.22,876.00
1396,1009.13,2828.69,15.93,1410.00,874.78
1398,1009.41,2831.47,25.88,1411.44,877.22
1400,1009.69,2834.24,50.71,1412.56,871.56
1402,1009.98,2837.02,67.14,1424.00,874.00
1404,1010.26,2839.78,134.48,1452.44,875.33
1406,1010.54,2842.55,278.93,1484.33,872.89
1408,1010.82,2845.31,654.30,1560.78,876.44
1410,1011.11,2848.07,837.70,1579.78,877.11
1412,1011.39,2850.83,694.20,1553.89,876.00
1414,1011.67,2853.58,406.94,1502.11,874.89
1416,1011.95,2856.33,167.18,1439.22,874.56
1418,1012.23,2859.08,77.10,1404.11,872.00
1420,1012.51,2861.83,36.92,1383.56,871.44
1422,1012.80,2864.57,18.93,1380.56,880.56
1424,1013.08,2867.31,30.13,1379.67,880.44
1426,1013.36,2870.04,27.28,1368.56,875.11
1428,1013.64,2872.78,40.86,1366.22,873.22
1430,1013.92,2875.51,50.12,1373.22,879.89
1432,1014.20,2878.24,32.26,1361.56,872.44
1434,1014.48,2880.96,10.07,1355.89,875.67
1436,1014.76,2883.68,0.00,1344.00,873.33
1438,1015.04,2886.40,0.46,1342.22,871.67
1440,1015.32,2889.12,31.14,1354.67,877.33
1442,1015.60,2891.83,1.56,1341.89,875.67
1444,1015.88,2894.54,44.20,1355.89,877.89
1446,1016.16,2897.25,50.57,1345.11,872.11
1448,1016.44,2899.96,118.67,1360.89,876.78
1450,1016.72,2902.66,82.25,1348.89,875.56
1452,1017.00,2905.36,90.85,1352.56,879.33
1454,1017.28,2908.06,61.46,1337.33,870.22
1456,1017.55,2910.75,13.20,1329.78,877.22
1458,1017.83,2913.44,10.73,1321.56,872.22
1460,1018.11,2916.13,7.36,1326.00,878.33
1462,1018.39,2918.81,0.00,1316.22,877.89
1464,1018.67,2921.49,0.00,1309.89,875.44
1466,1018.95,2924.17,0.00,1313.44,876.67
1468,1019.22,2926.85,0.00,1308.44,879.11
1470,1019.50,2929.52,0.16,1308.11,868.11
1472,1019.78,2932.20,1.07,1311.78,870.11
1474,1020.06,2934.86,5.14,1315.00,871.00
1476,1020.33,2937.53,44.14,1337.33,880.11
1478,1020.61,2940.19,104.93,1346.00,877.22
1480,1020.89,2942.85,249.73,1376.44,876.67
1482,1021.17,2945.51,413.33,1405.78,873.89
1484,1021.44,2948.16,587.68,1442.33,871.33
1486,1021.72,2950.81,761.82,1492.11,873.11
1488,1022.00,2953.46,997.05,1568.22,880.67
1490,1022.27,2956.11,1380.94,1662.11,876.00
1492,1022.55,2958.75,2228.28,1839.89,882.11
1494,1022.82,2961.39,3650.81,2050.00,873.11
1496,1023.10,2964.03,5033.79,2220.89,881.78
1498,1023.38,2966.66,5294.20,2233.56,874.89
1500,1023.65,2969.29,4094.69,2084.11,878.00
1502,1023.93,2971.92,2570.20,1863.11,880.00
1504,1024.20,2974.55,1524.90,1668.22,878.67
1506,1024.48,2977.17,962.33,1532.00,875.33
1508,1024.75,2979.79,648.72,1438.78,871.22
1510,1025.03,2982.41,456.61,1388.78,875.33
1512,1025.30,2985.02,271.47,1345.33,870.89
1514,1025.58,2987.63,112.00,1317.89,876.22
1516,1025.85,2990.24,32.81,1292.89,873.11
1518,1026.13,2992.85,6.43,1285.89,877.22
1520,1026.40,2995.45,0.54,1276.33,874.22
1522,1026.68,2998.05,0.00,1263.22,873.44
1524,1026.95,3000.65,0.00,1266.11,878.67
1526,1027.22,3003.25,0.00,1258.11,877.33
1528,1027.50,3005.84,0.00,1265.44,873.22
1530,1027.77,3008.43,0.00,1274.00,875.56
1532,1028.04,3011.02,11.44,1297.00,879.00
1534,1028.32,3013.60,128.75,1322.00,871.89
1536,1028.59,3016.18,420.82,1364.22,876.67
1538,1028.86,3018.76,931.75,1416.33,868.44
1540,1029.14,3021.34,1240.87,1453.00,874.33
1542,1029.41,3023.91,1331.50,1470.78,874.33
1544,1029.68,3026.48,1170.67,1455.78,870.56
1546,1029.95,3029.05,1091.29,1454.00,874.11
1548,1030.22,3031.61,1093.03,1450.56,875.22
1550,1030.50,3034.17,1219.16,1454.00,869.11
1552,1030.77,3036.73,1316.55,1463.89,874.89
1554,1031.04,3039.29,1430.48,1477.78,877.67
1556,1031.31,3041.84,1448.40,1469.22,867.67
1558,1031.58,3044.39,1404.16,1478.00,881.22
1560,1031.85,3046.94,1439.96,1487.00,879.44
1562,1032.13,3049.49,1471.52,1491.67,873.56
1564,1032.40,3052.03,1711.27,1539.44,880.33
1566,1032.67,3054.57,2144.62,1588.67,873.56
1568,1032.94,3057.11,2989.44,1687.22,878.67
1570,1033.21,3059.64,3876.29,1766.67,871.78
1572,1033.48,3062.18,4171.49,1814.11,874.11
1574,1033.75,3064.70,3642.59,1802.00,879.33
1576,1034.02,3067.23,3323.22,1815.44,878.22
1578,1034.29,3069.75,3908.56,1924.00,872.67
1580,1034.56,3072.28,5852.20,2157.67,878.33
1582,1034.83,3074.79,9247.69,2441.89,871.78
1584,1035.10,3077.31,11896.00,2614.33,878.67
1586,1035.37,3079.82,10635.93,2492.78,872.67
1588,1035.64,3082.33,6489.33,2146.78,881.22
1590,1035.91,3084.84,3218.05,1778.00,877.56
1592,1036.17,3087.34,1711.78,1538.00,876.11
1594,1036.44,3089.85,1142.00,1410.11,878.67
1596,1036.71,3092.35,882.15,1328.78,872.33
1598,1036.98,3094.84,661.04,1278.78,871.33
1600,1037.25,3097.34,373.91,1235.33,871.33
1602,1037.52,3099.83,221.38,1215.33,872.33
1604,1037.78,3102.32,87.98,1193.67,874.67
1606,1038.05,3104.80,49.57,1184.22,877.56
1608,1038.32,3107.29,11.20,1162.33,873.44
1610,1038.59,3109.77,6.23,1152.00,873.89
1612,1038.85,3112.24,0.00,1135.56,874.11
1614,1039.12,3114.72,0.00,1131.67,875.78
1616,1039.39,3117.19,0.00,1115.33,870.00
1618,1039.66,3119.66,0.00,1121.22,880.00
1620,1039.92,3122.13,0.00,1112.00,877.89
1622,1040.19,3124.59,0.00,1101.22,877.00
1624,1040.45,3127.05,23.93,1099.11,870.89
1626,1040.72,3129.51,0.00,1096.78,876.67
1628,1040.99,3131.97,0.00,1089.78,879.00
1630,1041.25,3134.42,0.00,1087.00,880.44
1632,1041.52,3136.87,0.00,1079.78,872.33
1634,1041.78,3139.32,0.00,1078.00,874.44
1636,1042.05,3141.77,0.00,1087.22,886.89
1638,1042.32,3144.21,0.00,1069.22,873.56
1640,1042.58,3146.65,1.75,1077.67,879.44
1642,1042.85,3149.09,0.00,1070.33,876.89
1644,1043.11,3151.52,4.89,1069.44,875.11
1646,1043.38,3153.96,0.00,1072.00,879.33
1648,1043.64,3156.39,0.00,1068.11,878.11
1650,1043.90,3158.81,0.00,1062.89,872.33
1652,1044.17,3161.24,16.06,1070.11,878.22
1654,1044.43,3163.66,0.00,1060.56,871.78
1656,1044.70,3166.08,58.84,1075.56,881.67
1658,1044.96,3168.49,0.00,1059.33,874.33
1660,1045.22,3170.91,22.80,1066.11,875.78
1662,1045.49,3173.32,39.47,1066.33,875.22
1664,1045.75,3175.73,61.19,1069.00,877.33
1666,1046.01,3178.13,71.84,1062.22,870.89
1668,1046.28,3180.54,64.59,1070.44,880.22
1670,1046.54,3182.94,99.08,1071.89,878.22
1672,1046.80,3185.34,72.67,1070.33,879.56
1674,1047.07,3187.73,79.03,1065.44,874.78
1676,1047.33,3190.12,94.25,1068.11,877.67
1678,1047.59,3192.51,148.61,1073.22,879.89
1680,1047.85,3194.90,201.74,1079.11,882.11
1682,1048.11,3197.29,150.68,1076.78,884.11
1684,1048.38,3199.67,162.82,1073.56,880.22
1686,1048.64,3202.05,147.40,1071.67,880.78
1688,1048.90,3204.43,177.67,1067.78,875.11
1690,1049.16,3206.80,168.52,1065.78,874.56
1692,1049.42,3209.17,173.45,1071.67,880.67
1694,1049.68,3211.54,147.98,1060.56,873.00
1696,1049.94,3213.91,191.84,1067.11,877.33
1698,1050.20,3216.27,176.93,1065.44,878.11
1700,1050.46,3218.63,187.29,1071.00,883.11
1702,1050.72,3220.99,142.72,1063.56,879.33
1704,1050.98,3223.35,119.58,1060.33,878.67
1706,1051.24,3225.70,121.99,1055.33,875.00
1708,1051.50,3228.05,221.34,1057.56,871.33
1710,1051.76,3230.40,138.85,1060.78,882.00
1712,1052.02,3232.75,113.23,1055.33,878.67
1714,1052.28,3235.09,161.49,1062.22,882.44
1716,1052.54,3237.43,205.84,1058.33,876.33
1718,1052.80,3239.77,205.94,1055.00,875.33
1720,1053.06,3242.11,306.05,1061.11,876.33
1722,1053.32,3244.44,291.32,1054.11,873.78
1724,1053.58,3246.77,480.13,1071.11,879.44
1726,1053.84,3249.10,356.80,1059.00,877.22
1728,1054.10,3251.42,412.74,1061.78,876.89
1730,1054.35,3253.75,466.55,1061.33,873.78
1732,1054.61,3256.07,434.71,1064.56,881.00
1734,1054.87,3258.39,546.06,1064.67,875.11
1736,1055.13,3260.70,561.05,1065.00,877.44
1738,1055.38,3263.01,672.02,1068.67,876.22
1740,1055.64,3265.32,686.65,1067.89,876.00
1742,1055.90,3267.63,646.75,1064.33,876.22
1744,1056.16,3269.94,785.87,1076.89,881.00
1746,1056.41,3272.24,821.63,1078.78,882.44
1748,1056.67,3274.54,762.94,1071.78,880.78
1750,1056.93,3276.84,842.01,1073.89,879.78
1752,1057.18,3279.13,1023.84,1077.44,875.33
1754,1057.44,3281.42,1071.08,1076.44,874.78
1756,1057.69,3283.71,1026.43,1072.44,875.00
1758,1057.95,3286.00,1029.25,1079.22,882.56
1760,1058.21,3288.28,934.39,1064.56,875.33
1762,1058.46,3290.57,1055.25,1076.22,880.56
1764,1058.72,3292.85,946.44,1066.89,879.33
1766,1058.97,3295.12,1033.73,1063.78,873.44
1768,1059.23,3297.40,1048.04,1061.67,874.00
1770,1059.48,3299.67,1083.12,1065.33,877.78
1772,1059.74,3301.94,955.80,1053.33,874.33
1774,1059.99,3304.21,1025.41,1062.78,881.11
1776,1060.25,3306.47,1040.14,1062.33,881.89
1778,1060.50,3308.73,1043.99,1052.78,874.11
1780,1060.76,3310.99,1055.08,1053.67,876.33
1782,1061.01,3313.25,984.64,1049.56,878.44
1784,1061.26,3315.50,1073.15,1049.44,875.67
1786,1061.52,3317.76,1059.65,1050.89,879.44
1788,1061.77,3320.01,908.46,1044.89,882.78
1790,1062.02,3322.25,883.13,1035.00,875.78
1792,1062.28,3324.50,940.18,1037.11,877.00
1794,1062.53,3326.74,877.72,1028.44,873.56
1796,1062.78,3328.98,785.49,1026.67,877.56
1798,1063.04,3331.22,687.91,1020.67,877.33
1800,1063.29,3333.45,687.87,1020.22,878.33
1802,1063.54,3335.68,688.53,1015.89,876.67
1804,1063.79,3337.91,665.01,1014.56,879.00
1806,1064.05,3340.14,698.94,1016.89,880.22
1808,1064.30,3342.36,546.42,1003.89,874.33
1810,1064.55,3344.59,422.21,1001.56,879.44
1812,1064.80,3346.81,552.99,1000.00,874.00
1814,1065.05,3349.02,572.55,1001.67,877.56
1816,1065.30,3351.24,569.96,1001.22,878.44
1818,1065.55,3353.45,451.63,993.44,876.56
1820,1065.81,3355.66,490.72,1000.67,882.44
1822,1066.06,3357.87,369.76,986.67,875.33
1824,1066.31,3360.07,427.41,987.33,874.89
1826,1066.56,3362.27,488.28,990.56,877.00
1828,1066.81,3364.47,376.28,983.33,876.00
1830,1067.06,3366.67,389.30,981.56,874.78
1832,1067.31,3368.87,366.58,984.22,879.67
1834,1067.56,3371.06,328.71,973.11,871.33
1836,1067.81,3373.25,355.96,972.67,870.56
1838,1068.06,3375.44,289.37,970.00,871.11
1840,1068.31,3377.62,248.88,969.78,873.22
1842,1068.56,3379.81,198.99,967.00,874.22
1844,1068.80,3381.99,303.46,974.22,879.44
1846,1069.05,3384.16,403.69,973.33,876.78
1848,1069.30,3386.34,249.98,964.56,873.67
1850,1069.55,3388.51,87.52,961.44,876.89
1852,1069.80,3390.68,45.03,959.33,877.22
1854,1070.05,3392.85,117.02,970.44,885.56
1856,1070.30,3395.02,150.24,960.11,875.89
1858,1070.54,3397.18,112.06,952.89,872.56
1860,1070.79,3399.34,253.53,957.44,873.67
1862,1071.04,3401.50,96.51,953.33,876.22
1864,1071.29,3403.66,153.58,947.78,869.89
1866,1071.53,3405.81,253.88,954.67,874.89
1868,1071.78,3407.96,196.28,950.89,874.11
1870,1072.03,3410.11,0.00,947.44,879.00
1872,1072.27,3412.26,185.46,949.44,873.78
1874,1072.52,3414.40,12.99,943.78,876.56
1876,1072.77,3416.54,201.81,945.44,872.33
1878,1073.01,3418.68,21.77,946.33,881.00
1880,1073.26,3420.82,127.06,937.44,869.44
1882,1073.51,3422.96,77.57,942.67,877.33
1884,1073.75,3425.09,148.50,943.89,877.33
1886,1074.00,3427.22,175.96,937.00,871.11
1888,1074.24,3429.35,165.20,943.00,878.44
1890,1074.49,3431.47,138.82,938.22,874.67
1892,1074.73,3433.59,98.07,932.78,871.00
1894,1074.98,3435.71,180.26,942.56,879.00
1896,1075.22,3437.83,233.90,937.44,874.78
1898,1075.47,3439.95,164.25,937.67,878.33
1900,1075.71,3442.06,148.43,937.11,878.44
1902,1075.96,3444.17,127.64,933.33,875.56
1904,1076.20,3446.28,129.57,924.11,867.22
1906,1076.44,3448.38,195.97,939.44,881.22
1908,1076.69,3450.49,107.99,934.00,879.33
1910,1076.93,3452.59,131.44,934.89,880.11
1912,1077.17,3454.69,111.69,927.89,875.44
1914,1077.42,3456.79,243.01,930.33,876.00
1916,1077.66,3458.88,206.39,923.11,871.00
1918,1077.90,3460.97,177.21,926.78,876.11
1920,1078.15,3463.06,281.03,929.78,876.89
1922,1078.39,3465.15,189.28,927.00,876.56
1924,1078.63,3467.23,96.37,918.44,871.00
1926,1078.87,3469.32,64.98,924.56,878.78
1928,1079.12,3471.40,193.58,921.22,871.78
1930,1079.36,3473.47,121.74,930.67,885.33
1932,1079.60,3475.55,230.30,917.56,870.89
1934,1079.84,3477.62,394.03,923.56,874.11
1936,1080.08,3479.69,236.58,918.56,873.00
1938,1080.33,3481.76,143.86,914.78,871.78
1940,1080.57,3483.83,90.69,918.22,877.00
1942,1080.81,3485.89,200.87,919.33,875.33
1944,1081.05,3487.95,107.82,918.67,877.89
1946,1081.29,3490.01,65.77,915.00,876.22
1948,1081.53,3492.07,106.43,911.22,872.33
1950,1081.77,3494.12,269.28,913.56,871.67
1952,1082.01,3496.18,184.77,918.11,878.00
1954,1082.25,3498.23,30.61,910.56,874.89
1956,1082.49,3500.27,182.58,913.78,875.00
1958,1082.73,3502.32,217.50,912.00,873.78
1960,1082.97,3504.36,301.35,913.89,874.33
1962,1083.21,3506.40,187.33,911.67,874.22
1964,1083.45,3508.44,65.83,905.78,871.78
1966,1083.69,3510.48,124.18,915.33,880.56
1968,1083.93,3512.51,0.00,908.00,877.33
1970,1084.16,3514.54,390.15,909.89,872.00
1972,1084.40,3516.57,141.11,908.11,875.11
1974,1084.64,3518.60,91.89,903.89,872.11
1976,1084.88,3520.62,72.02,913.33,882.44
1978,1085.12,3522.65,315.45,914.22,878.56
1980,1085.36,3524.67,122.56,906.33,875.33
1982,1085.59,3526.68,178.68,905.22,873.11
1984,1085.83,3528.70,13.60,909.00,881.11
1986,1086.07,3530.71,75.82,902.56,873.78
1988,1086.31,3532.72,272.24,909.44,877.89
1990,1086.54,3534.73,332.56,903.67,871.56
1992,1086.78,3536.74,206.64,910.78,880.56
1994,1087.02,3538.74,28.39,903.78,877.44
1996,1087.25,3540.74,290.19,901.89,870.11
1998,1087.49,3542.74,125.97,905.11,877.44
2000,1087.73,3544.74,109.25,902.33,875.22
2002,1087.96,3546.74,88.46,900.56,874.22
2004,1088.20,3548.73,112.41,908.22,882.00
2006,1088.43,3550.72,347.58,903.56,874.00
2008,1088.67,3552.71,244.51,900.56,873.44
2010,1088.90,3554.69,231.78,894.78,868.11
2012,1089.14,3556.68,278.16,902.56,875.22
2014,1089.38,3558.66,113.59,894.89,870.67
2016,1089.61,3560.64,292.21,898.56,871.56
2018,1089.84,3562.62,373.27,903.11,874.78
2020,1090.08,3564.59,99.54,895.33,872.11
2022,1090.31,3566.56,153.66,897.22,873.22
2024,1090.55,3568.53,158.79,897.33,873.78
2026,1090.78,3570.50,36.42,892.22,871.22
2028,1091.02,3572.47,430.47,897.11,869.67
2030,1091.25,3574.43,85.44,893.44,872.00
2032,1091.48,3576.39,141.43,889.78,867.56
2034,1091.72,3578.35,140.94,891.11,869.67
2036,1091.95,3580.31,458.98,895.89,871.00
2038,1092.18,3582.26,305.81,889.11,866.33
2040,1092.42,3584.22,252.42,888.00,865.44
2042,1092.65,3586.17,155.12,888.00,866.78
2044,1092.88,3588.12,93.29,887.22,867.00
2046,1093.11,3590.06,25.60,883.44,864.44
2047,1093.23,3591.03,20.87,883.44,864.00