File: src/enlighten/plugins/Raman/MatchingLibrary/785X/sodium hydrogen carbonate.csv
ENLIGHTEN Version,4.1.22
Measurement ID,20250220-204159-163183-WP-01977
Serial Number,WP-01977
Model,WP-785X-F13-R-ILC
Detector,S16011-1106
Label,sodium hydrogen carbonate
Declared Match,
Declared Score,0
Scan Averaging,3
Boxcar,0
Technique,Raman
Baseline Correction Algo,AirPLS
ROI Pixel Start,47
ROI Pixel End,2047
ROI Start Line,0
ROI Stop Line,63
CCD C4,1.38617e-12
Slit Width,25
Cropped,True
Interpolated,False
Wavenumber Correction,-0.100481
Raman Intensity Corrected,True
Deconvolved,True
Region,
High Gain Mode,False
Laser Power mW,
Electrical Dark Correction,False
Battery %,
Device ID,<DeviceID USB:0x24aa:0x1000:0:1>
FW Version,10.0.0.10
FPGA Version,035-001
BLE Version,
Prefix,enlighten
Suffix,
Preset,
Auto-Raman,True
Session Count,0
Plugin Name,
Integration Time,464
Timestamp,2025-02-20 20:41:59.1632
Note,
Temperature,0
CCD C0,793.274
CCD C1,0.153259
CCD C2,1.40788e-05
CCD C3,-1.132e-08
CCD Offset,0
CCD Gain,1.9
CCD Offset Odd,0
CCD Gain Odd,1.9
Laser Wavelength,785.032
Laser Enable,False
Laser Power %,0
Laser Temperature,0
Pixel Count,2048

Pixel,Wavelength,Wavenumber,Processed,Raw,Dark
0,793.27,132.25,NA,970.33,943.33
2,793.58,137.12,NA,980.33,966.33
4,793.89,141.99,NA,973.00,959.33
6,794.19,146.86,NA,974.33,950.33
8,794.50,151.72,NA,984.67,975.67
10,794.81,156.58,NA,984.00,974.00
12,795.12,161.44,NA,972.67,953.00
14,795.42,166.30,NA,971.67,953.33
16,795.73,171.16,NA,973.33,950.67
18,796.04,176.01,NA,998.67,978.00
20,796.35,180.86,NA,986.00,978.33
22,796.65,185.71,NA,1015.67,1001.33
24,796.96,190.56,NA,986.67,971.00
26,797.27,195.41,NA,1008.00,985.33
28,797.58,200.25,NA,1005.67,988.67
30,797.88,205.09,NA,986.67,963.00
32,798.19,209.93,NA,991.67,966.67
34,798.50,214.77,NA,1000.00,971.33
36,798.81,219.60,NA,1006.33,971.00
38,799.12,224.43,NA,1057.00,971.67
40,799.43,229.27,NA,1277.33,990.67
42,799.74,234.09,NA,1990.67,982.00
44,800.04,238.92,NA,2803.67,1006.33
46,800.35,243.75,NA,2775.00,971.00
48,800.66,248.57,350.81,2557.00,988.67
50,800.97,253.39,61.34,2364.33,988.67
52,801.28,258.21,0.17,2225.67,997.67
54,801.59,263.02,0.00,2162.33,991.00
56,801.90,267.83,0.00,2150.33,985.67
58,802.21,272.65,0.00,2112.33,986.33
60,802.52,277.46,0.00,2091.00,990.00
62,802.83,282.26,0.00,2091.67,1001.33
64,803.14,287.07,0.00,2060.00,998.33
66,803.45,291.87,0.00,2073.00,998.00
68,803.76,296.67,3.37,2087.00,998.00
70,804.07,301.47,17.59,2087.00,991.67
72,804.38,306.26,8.06,2071.33,980.33
74,804.69,311.06,25.26,2094.67,980.33
76,805.00,315.85,95.55,2175.00,979.00
78,805.31,320.64,153.73,2241.67,988.00
80,805.62,325.42,200.24,2288.33,990.33
82,805.93,330.21,129.59,2223.33,996.67
84,806.24,334.99,91.50,2137.00,962.67
86,806.55,339.77,61.92,2116.67,981.67
88,806.86,344.55,49.76,2111.33,1004.33
90,807.17,349.32,71.73,2098.33,976.00
92,807.48,354.10,44.79,2082.67,984.00
94,807.80,358.87,99.98,2142.33,993.00
96,808.11,363.63,87.55,2114.00,982.33
98,808.42,368.40,85.37,2112.33,979.00
100,808.73,373.16,98.72,2119.67,974.33
102,809.04,377.93,124.85,2136.67,967.67
104,809.35,382.68,116.01,2125.67,972.33
106,809.66,387.44,126.44,2147.00,981.00
108,809.98,392.19,133.92,2133.33,963.00
110,810.29,396.95,133.93,2154.33,989.33
112,810.60,401.70,145.36,2150.67,973.67
114,810.91,406.44,147.45,2154.33,979.67
116,811.22,411.19,162.98,2180.00,990.33
118,811.54,415.93,176.63,2184.67,983.00
120,811.85,420.67,167.82,2160.67,973.00
122,812.16,425.41,186.99,2181.67,971.00
124,812.47,430.14,205.69,2220.00,991.33
126,812.79,434.87,215.42,2208.00,973.67
128,813.10,439.60,212.13,2195.00,965.33
130,813.41,444.33,227.79,2216.33,974.33
132,813.72,449.06,221.49,2198.00,968.00
134,814.04,453.78,221.95,2209.33,984.33
136,814.35,458.50,227.22,2192.67,966.00
138,814.66,463.22,221.47,2174.67,962.00
140,814.98,467.93,243.88,2197.33,967.33
142,815.29,472.65,237.79,2196.33,971.67
144,815.60,477.36,230.30,2193.33,983.00
146,815.92,482.06,254.10,2179.67,955.00
148,816.23,486.77,235.00,2175.00,981.00
150,816.54,491.47,223.50,2174.33,1004.33
152,816.86,496.17,181.75,2062.33,959.67
154,817.17,500.87,160.66,2031.67,974.33
156,817.48,505.57,126.90,1968.67,963.33
158,817.80,510.26,97.10,1912.67,961.33
160,818.11,514.95,64.36,1872.67,979.00
162,818.42,519.64,36.84,1821.67,979.67
164,818.74,524.32,20.33,1783.33,972.33
166,819.05,529.00,2.41,1759.67,988.00
168,819.37,533.68,13.21,1748.67,974.00
170,819.68,538.36,13.61,1740.00,973.00
172,819.99,543.04,0.00,1730.00,995.00
174,820.31,547.71,1.02,1701.33,968.00
176,820.62,552.38,0.98,1679.67,956.33
178,820.94,557.05,0.00,1683.33,972.00
180,821.25,561.71,0.47,1656.33,951.00
182,821.57,566.37,0.00,1645.00,961.33
184,821.88,571.03,0.00,1657.67,967.67
186,822.20,575.69,0.00,1656.00,975.00
188,822.51,580.34,0.00,1636.00,975.00
190,822.83,584.99,0.00,1649.33,974.67
192,823.14,589.64,0.00,1644.00,966.33
194,823.46,594.29,3.16,1662.67,970.00
196,823.77,598.93,6.05,1665.00,973.00
198,824.09,603.57,11.39,1658.00,952.00
200,824.40,608.21,0.00,1659.67,971.33
202,824.72,612.85,0.00,1662.00,978.33
204,825.03,617.48,0.00,1656.33,974.00
206,825.35,622.11,0.00,1680.67,988.00
208,825.66,626.74,0.45,1684.00,982.00
210,825.98,631.36,7.46,1700.67,964.00
212,826.29,635.99,31.36,1776.67,968.67
214,826.61,640.61,219.83,2135.00,974.33
216,826.92,645.22,719.78,2641.33,964.00
218,827.24,649.84,561.94,2625.33,949.33
220,827.56,654.45,589.09,2782.67,980.67
222,827.87,659.06,1176.30,3301.00,977.00
224,828.19,663.67,793.98,2938.33,973.33
226,828.50,668.27,375.89,2545.67,1002.67
228,828.82,672.87,512.91,2972.33,987.00
230,829.13,677.47,1469.55,4854.33,958.00
232,829.45,682.06,4654.00,8868.33,987.00
234,829.77,686.66,6647.89,10870.67,1020.67
236,830.08,691.25,3603.80,7910.00,972.33
238,830.40,695.83,1908.97,5218.67,964.00
240,830.72,700.42,1253.74,3807.00,971.00
242,831.03,705.00,390.49,2486.00,939.33
244,831.35,709.58,113.52,1925.33,967.67
246,831.66,714.15,61.34,1743.00,938.67
248,831.98,718.73,10.10,1675.33,973.67
250,832.30,723.30,2.58,1619.00,951.33
252,832.61,727.87,1.86,1630.33,978.33
254,832.93,732.43,0.00,1564.00,931.67
256,833.25,736.99,0.00,1585.67,979.00
258,833.56,741.55,0.00,1563.33,966.67
260,833.88,746.11,0.00,1559.33,964.67
262,834.20,750.66,0.00,1568.33,965.33
264,834.51,755.22,0.00,1577.00,972.67
266,834.83,759.76,7.44,1593.00,976.67
268,835.15,764.31,1.03,1587.00,974.67
270,835.47,768.85,0.86,1563.33,952.67
272,835.78,773.39,18.41,1589.33,957.33
274,836.10,777.93,17.28,1599.00,961.33
276,836.42,782.46,24.59,1606.67,956.00
278,836.73,787.00,29.58,1608.67,955.00
280,837.05,791.52,42.17,1623.33,949.00
282,837.37,796.05,40.42,1647.67,974.00
284,837.69,800.57,45.58,1636.00,955.33
286,838.00,805.09,45.85,1644.67,961.33
288,838.32,809.61,50.90,1647.00,959.33
290,838.64,814.13,48.24,1668.67,987.33
292,838.95,818.64,38.79,1646.67,968.33
294,839.27,823.15,61.83,1692.00,954.67
296,839.59,827.65,127.60,1812.67,970.33
298,839.91,832.15,285.73,1964.67,958.00
300,840.22,836.65,236.77,1952.33,994.00
302,840.54,841.15,89.71,1741.67,957.00
304,840.86,845.65,19.96,1636.67,983.00
306,841.18,850.14,3.74,1593.00,974.00
308,841.50,854.63,0.00,1612.00,1015.67
310,841.81,859.11,0.00,1552.67,970.00
312,842.13,863.60,0.00,1565.00,971.33
314,842.45,868.07,0.00,1545.33,957.33
316,842.77,872.55,0.00,1567.33,972.67
318,843.08,877.03,0.00,1596.00,993.67
320,843.40,881.50,5.13,1558.33,941.67
322,843.72,885.97,0.00,1589.67,982.67
324,844.04,890.43,11.99,1586.67,948.67
326,844.36,894.89,0.00,1583.33,957.67
328,844.67,899.35,0.02,1613.67,980.67
330,844.99,903.81,4.05,1598.67,953.67
332,845.31,908.26,0.19,1618.33,973.00
334,845.63,912.71,2.40,1633.33,977.33
336,845.95,917.16,1.94,1632.33,971.00
338,846.27,921.61,0.00,1822.00,1162.00
340,846.58,926.05,0.00,1626.00,960.67
342,846.90,930.49,4.48,1660.67,973.00
344,847.22,934.92,0.00,1636.67,967.33
346,847.54,939.36,0.00,1636.67,941.67
348,847.86,943.79,0.00,1651.00,948.00
350,848.18,948.21,0.00,1661.67,953.67
352,848.49,952.64,3.72,1695.33,961.33
354,848.81,957.06,0.00,1665.67,944.00
356,849.13,961.48,0.00,1725.67,994.33
358,849.45,965.89,0.00,1725.00,979.33
360,849.77,970.31,0.00,1728.67,958.00
362,850.09,974.71,0.00,1767.00,964.00
364,850.40,979.12,0.70,1888.33,984.00
366,850.72,983.52,42.21,2033.67,984.67
368,851.04,987.92,214.71,2245.67,947.00
370,851.36,992.32,309.15,2392.00,951.33
372,851.68,996.72,224.66,2361.33,966.67
374,852.00,1001.11,96.45,2220.00,952.00
376,852.32,1005.50,20.82,2128.67,945.67
378,852.63,1009.88,5.57,2163.67,986.00
380,852.95,1014.26,15.80,2210.33,975.33
382,853.27,1018.64,92.18,2351.00,976.00
384,853.59,1023.02,226.40,2542.33,952.00
386,853.91,1027.39,382.05,2925.33,953.33
388,854.23,1031.76,698.63,4052.67,954.67
390,854.55,1036.13,1709.84,7833.33,964.00
392,854.87,1040.49,8411.88,20827.33,956.67
394,855.18,1044.86,28673.10,40158.33,973.67
396,855.50,1049.21,21231.10,34534.67,972.00
398,855.82,1053.57,4019.47,13913.00,974.00
400,856.14,1057.92,992.11,5582.67,962.00
402,856.46,1062.27,615.06,3556.67,956.67
404,856.78,1066.62,364.84,2857.33,948.33
406,857.10,1070.96,182.42,2549.00,955.00
408,857.42,1075.30,68.94,2394.00,977.33
410,857.74,1079.64,2.53,2261.33,955.67
412,858.06,1083.97,0.00,2206.33,957.33
414,858.37,1088.30,0.00,2179.00,951.33
416,858.69,1092.63,0.00,2185.33,942.33
418,859.01,1096.95,0.00,2169.33,939.00
420,859.33,1101.27,0.00,2198.00,964.67
422,859.65,1105.59,0.00,2220.00,956.67
424,859.97,1109.91,0.00,2213.67,954.33
426,860.29,1114.22,1.01,2247.33,954.67
428,860.61,1118.53,12.72,2265.33,947.33
430,860.93,1122.84,11.96,2277.67,953.00
432,861.25,1127.14,1.16,2310.00,983.00
434,861.56,1131.44,0.00,2273.00,951.67
436,861.88,1135.74,32.16,2340.33,954.33
438,862.20,1140.03,0.00,2298.33,955.00
440,862.52,1144.32,1.54,2335.33,963.33
442,862.84,1148.61,3.72,2354.67,963.33
444,863.16,1152.89,0.00,2332.67,946.33
446,863.48,1157.17,0.00,2364.00,960.00
448,863.80,1161.45,0.00,2348.67,956.33
450,864.12,1165.73,0.00,2394.67,964.00
452,864.44,1170.00,0.00,2422.00,949.33
454,864.76,1174.27,0.00,2475.33,962.67
456,865.07,1178.53,0.00,2495.33,938.67
458,865.39,1182.80,0.00,2557.00,966.67
460,865.71,1187.06,0.00,2629.00,960.67
462,866.03,1191.31,0.00,2720.67,966.00
464,866.35,1195.57,0.00,2785.33,956.00
466,866.67,1199.82,0.00,2891.00,968.33
468,866.99,1204.06,0.00,2949.67,960.00
470,867.31,1208.31,1.70,3106.67,967.67
472,867.63,1212.55,28.90,3245.33,972.00
474,867.95,1216.79,93.57,3391.33,943.67
476,868.27,1221.02,185.51,3607.67,967.67
478,868.58,1225.25,327.49,3859.67,942.33
480,868.90,1229.48,431.44,4151.33,972.00
482,869.22,1233.71,632.20,4567.67,973.33
484,869.54,1237.93,1011.20,5230.33,982.33
486,869.86,1242.15,1469.34,6004.00,964.00
488,870.18,1246.36,2051.08,7003.33,944.33
490,870.50,1250.58,2736.61,8250.67,962.67
492,870.82,1254.79,3618.75,9893.33,996.67
494,871.14,1258.99,4953.73,12028.00,974.33
496,871.46,1263.20,6713.44,14415.00,972.67
498,871.78,1267.40,7840.39,15756.00,961.00
500,872.10,1271.59,7152.27,14881.33,962.00
502,872.41,1275.79,5145.26,12314.00,952.67
504,872.73,1279.98,3199.15,9505.00,968.67
506,873.05,1284.17,1975.34,7508.67,970.00
508,873.37,1288.35,1201.61,6148.00,934.67
510,873.69,1292.53,775.87,5434.33,948.00
512,874.01,1296.71,473.90,4959.00,955.00
514,874.33,1300.88,301.83,4687.67,944.33
516,874.65,1305.06,171.40,4526.00,953.67
518,874.97,1309.22,60.64,4394.33,953.67
520,875.29,1313.39,33.92,4377.67,971.00
522,875.60,1317.55,42.48,4379.67,966.67
524,875.92,1321.71,29.17,4341.33,952.33
526,876.24,1325.87,9.37,4332.00,971.33
528,876.56,1330.02,0.00,4255.00,954.33
530,876.88,1334.17,0.00,4248.00,969.33
532,877.20,1338.32,2.55,4235.67,941.67
534,877.52,1342.46,9.02,4226.67,942.33
536,877.84,1346.60,5.23,4243.00,965.33
538,878.16,1350.73,22.70,4249.00,954.33
540,878.47,1354.87,59.88,4265.67,957.67
542,878.79,1359.00,41.11,4239.67,955.67
544,879.11,1363.13,27.14,4224.67,964.67
546,879.43,1367.25,12.50,4165.00,950.67
548,879.75,1371.37,33.52,4181.33,951.67
550,880.07,1375.49,7.67,4135.33,953.33
552,880.39,1379.60,15.13,4149.67,959.00
554,880.71,1383.71,0.00,4084.67,955.67
556,881.03,1387.82,2.91,4088.67,948.67
558,881.34,1391.93,0.00,4032.00,931.67
560,881.66,1396.03,2.20,4076.33,952.00
562,881.98,1400.13,1.90,4079.33,962.67
564,882.30,1404.22,13.48,4089.33,960.67
566,882.62,1408.31,0.00,4041.67,955.00
568,882.94,1412.40,0.00,4061.00,960.00
570,883.26,1416.49,4.18,4076.67,959.33
572,883.57,1420.57,35.31,4170.33,971.67
574,883.89,1424.65,103.64,4364.00,950.00
576,884.21,1428.73,446.81,5033.00,967.67
578,884.53,1432.80,1616.46,6214.33,979.00
580,884.85,1436.87,1907.66,6415.00,952.00
582,885.17,1440.93,801.21,5456.33,939.33
584,885.49,1445.00,361.75,4837.00,948.33
586,885.80,1449.06,434.57,4848.00,947.33
588,886.12,1453.11,802.62,5249.33,977.00
590,886.44,1457.17,1112.92,5510.00,964.00
592,886.76,1461.22,967.92,5371.67,969.00
594,887.08,1465.26,508.35,4860.33,970.00
596,887.40,1469.31,256.41,4465.33,949.67
598,887.71,1473.35,162.92,4280.00,947.00
600,888.03,1477.38,96.70,4171.67,963.00
602,888.35,1481.42,66.96,4122.33,975.33
604,888.67,1485.45,81.44,4123.00,967.33
606,888.99,1489.48,89.56,4101.00,945.00
608,889.31,1493.50,71.04,4098.00,969.67
610,889.62,1497.52,78.83,4092.67,963.33
612,889.94,1501.54,52.40,4047.00,945.67
614,890.26,1505.56,61.24,4064.00,951.67
616,890.58,1509.57,87.09,4075.00,958.67
618,890.90,1513.57,79.12,4048.33,950.00
620,891.21,1517.58,63.62,4034.67,960.67
622,891.53,1521.58,89.60,4063.67,962.00
624,891.85,1525.58,83.89,4034.33,954.00
626,892.17,1529.57,91.74,4039.33,969.67
628,892.49,1533.57,75.78,4004.00,963.00
630,892.80,1537.56,31.03,3929.00,952.00
632,893.12,1541.54,54.98,3944.33,947.00
634,893.44,1545.52,54.82,3937.33,961.33
636,893.76,1549.50,28.98,3877.33,940.33
638,894.07,1553.48,5.53,3865.33,964.67
640,894.39,1557.45,3.85,3832.33,950.67
642,894.71,1561.42,10.76,3841.67,963.33
644,895.03,1565.39,2.18,3798.00,938.67
646,895.34,1569.35,21.78,3838.00,964.67
648,895.66,1573.31,13.52,3801.33,950.00
650,895.98,1577.26,7.54,3783.67,945.67
652,896.30,1581.22,36.54,3801.33,945.67
654,896.61,1585.17,38.06,3796.67,952.33
656,896.93,1589.11,34.68,3802.67,967.67
658,897.25,1593.06,63.80,3811.67,946.33
660,897.57,1597.00,43.53,3784.33,963.33
662,897.88,1600.93,99.29,3842.00,960.67
664,898.20,1604.87,130.85,3878.00,957.00
666,898.52,1608.80,194.42,3973.00,954.00
668,898.84,1612.72,376.73,4210.00,943.67
670,899.15,1616.65,624.28,4511.00,964.33
672,899.47,1620.57,902.04,4747.33,952.00
674,899.79,1624.49,881.50,4718.00,957.67
676,900.10,1628.40,574.18,4385.67,943.67
678,900.42,1632.31,346.90,4114.33,967.00
680,900.74,1636.22,204.41,3845.00,937.67
682,901.05,1640.12,162.33,3786.67,978.00
684,901.37,1644.02,124.90,3690.67,955.00
686,901.69,1647.92,112.57,3661.00,962.00
688,902.00,1651.82,112.23,3631.00,954.00
690,902.32,1655.71,161.95,3668.33,944.33
692,902.64,1659.60,170.09,3679.67,946.33
694,902.95,1663.48,195.49,3722.00,967.33
696,903.27,1667.36,316.26,3820.67,946.67
698,903.59,1671.24,340.73,3856.33,970.67
700,903.90,1675.11,353.57,3861.67,963.00
702,904.22,1678.99,346.72,3828.67,947.00
704,904.54,1682.85,369.02,3881.33,989.67
706,904.85,1686.72,359.00,3799.00,944.33
708,905.17,1690.58,366.88,3799.33,961.00
710,905.49,1694.44,303.33,3686.33,943.67
712,905.80,1698.29,264.67,3622.67,947.67
714,906.12,1702.15,177.38,3513.00,958.00
716,906.43,1706.00,138.11,3444.33,959.00
718,906.75,1709.84,107.62,3392.67,971.67
720,907.07,1713.68,82.61,3325.00,950.67
722,907.38,1717.52,69.86,3296.67,961.33
724,907.70,1721.36,55.91,3249.33,953.67
726,908.01,1725.19,44.04,3229.33,961.33
728,908.33,1729.02,30.56,3192.67,957.00
730,908.65,1732.85,13.29,3150.67,957.00
732,908.96,1736.67,26.22,3157.33,963.33
734,909.28,1740.49,10.64,3103.00,949.00
736,909.59,1744.30,6.05,3102.67,969.67
738,909.91,1748.12,0.08,3058.33,957.33
740,910.22,1751.93,21.53,3071.33,963.33
742,910.54,1755.73,0.00,3055.33,1003.00
744,910.85,1759.54,2.55,3004.33,960.33
746,911.17,1763.34,9.25,2991.33,951.33
748,911.49,1767.13,0.00,2939.00,958.67
750,911.80,1770.93,0.00,2926.67,939.00
752,912.12,1774.72,0.00,2925.33,961.00
754,912.43,1778.50,4.43,2919.33,943.33
756,912.75,1782.29,0.00,2894.00,938.33
758,913.06,1786.07,28.83,2924.33,939.00
760,913.38,1789.84,14.03,2908.00,951.67
762,913.69,1793.62,21.78,2922.00,963.00
764,914.01,1797.39,28.15,2902.67,949.00
766,914.32,1801.15,30.34,2901.67,953.67
768,914.64,1804.92,14.98,2873.00,951.33
770,914.95,1808.68,15.04,2874.33,962.67
772,915.26,1812.44,49.65,2913.00,969.33
774,915.58,1816.19,81.52,2908.67,940.00
776,915.89,1819.94,102.99,2940.67,960.67
778,916.21,1823.69,127.00,2946.67,957.00
780,916.52,1827.43,171.39,3006.67,979.00
782,916.84,1831.17,149.63,2939.67,945.00
784,917.15,1834.91,177.73,2958.67,942.33
786,917.47,1838.64,165.99,2946.00,961.00
788,917.78,1842.38,167.31,2925.67,952.00
790,918.09,1846.10,178.62,2924.33,951.67
792,918.41,1849.83,162.43,2900.67,958.00
794,918.72,1853.55,176.23,2875.00,933.67
796,919.04,1857.27,171.11,2875.67,957.00
798,919.35,1860.98,143.75,2833.67,952.00
800,919.66,1864.69,159.80,2837.33,950.67
802,919.98,1868.40,132.13,2803.33,963.33
804,920.29,1872.11,167.63,2816.00,947.00
806,920.60,1875.81,186.03,2824.67,951.33
808,920.92,1879.51,211.96,2837.00,945.00
810,921.23,1883.20,242.77,2877.67,963.33
812,921.55,1886.90,260.79,2865.00,940.33
814,921.86,1890.58,287.71,2909.33,965.67
816,922.17,1894.27,343.25,2956.67,967.33
818,922.49,1897.95,352.98,2965.33,965.33
820,922.80,1901.63,414.93,3020.00,954.00
822,923.11,1905.31,509.84,3087.00,948.00
824,923.42,1908.98,555.19,3128.00,955.00
826,923.74,1912.65,538.54,3116.67,963.33
828,924.05,1916.31,564.30,3111.33,952.00
830,924.36,1919.98,546.60,3074.67,951.33
832,924.68,1923.64,516.72,3027.00,946.33
834,924.99,1927.29,463.41,2948.33,947.00
836,925.30,1930.94,386.04,2837.67,935.33
838,925.61,1934.59,297.91,2746.00,952.00
840,925.93,1938.24,261.03,2686.00,950.00
842,926.24,1941.88,181.37,2592.33,957.67
844,926.55,1945.52,152.91,2530.33,944.67
846,926.86,1949.16,132.79,2496.67,954.33
848,927.18,1952.79,90.58,2430.67,944.33
850,927.49,1956.42,49.99,2377.67,948.67
852,927.80,1960.05,49.81,2383.33,969.00
854,928.11,1963.67,34.46,2337.67,952.67
856,928.42,1967.29,30.07,2325.33,962.67
858,928.74,1970.91,30.55,2296.00,951.33
860,929.05,1974.52,19.17,2270.33,951.67
862,929.36,1978.13,3.37,2230.67,942.33
864,929.67,1981.74,0.00,2213.67,954.00
866,929.98,1985.35,3.45,2195.33,945.67
868,930.29,1988.95,0.00,2183.33,958.33
870,930.61,1992.54,0.30,2157.67,944.00
872,930.92,1996.14,0.00,2138.00,947.00
874,931.23,1999.73,0.00,2129.33,958.00
876,931.54,2003.32,0.85,2122.33,960.00
878,931.85,2006.90,14.67,2115.00,957.67
880,932.16,2010.48,3.94,2078.67,943.67
882,932.47,2014.06,14.34,2079.67,943.00
884,932.78,2017.63,25.14,2084.00,959.00
886,933.09,2021.21,33.18,2055.00,943.67
888,933.41,2024.77,23.84,2051.33,960.67
890,933.72,2028.34,24.34,2050.33,973.67
892,934.03,2031.90,21.83,2015.67,955.00
894,934.34,2035.46,0.00,1982.67,965.00
896,934.65,2039.01,13.70,1963.67,946.33
898,934.96,2042.57,8.21,1961.33,963.67
900,935.27,2046.11,20.91,1972.67,976.00
902,935.58,2049.66,2.75,1900.33,934.00
904,935.89,2053.20,0.00,1900.67,957.00
906,936.20,2056.74,16.52,1900.00,953.67
908,936.51,2060.28,22.34,1884.67,948.00
910,936.82,2063.81,19.16,1887.33,964.67
912,937.13,2067.34,12.03,1854.33,952.33
914,937.44,2070.86,35.51,1861.67,952.00
916,937.75,2074.39,5.95,1813.67,944.00
918,938.06,2077.91,2.39,1806.33,951.33
920,938.37,2081.42,0.00,1791.67,962.00
922,938.68,2084.94,21.74,1792.67,947.67
924,938.99,2088.45,0.00,1749.00,948.67
926,939.30,2091.95,0.00,1758.33,962.67
928,939.60,2095.46,12.36,1749.33,945.00
930,939.91,2098.96,31.01,1765.67,964.00
932,940.22,2102.45,10.54,1734.67,954.67
934,940.53,2105.95,0.00,1690.00,942.00
936,940.84,2109.44,11.80,1706.67,946.33
938,941.15,2112.92,29.39,1721.33,959.00
940,941.46,2116.41,3.50,1683.00,946.33
942,941.77,2119.89,3.90,1683.00,953.33
944,942.07,2123.37,11.38,1670.67,945.00
946,942.38,2126.84,1.08,1667.33,960.00
948,942.69,2130.31,16.26,1672.67,960.67
950,943.00,2133.78,0.00,1637.67,956.00
952,943.31,2137.24,1.77,1649.33,958.67
954,943.62,2140.70,0.00,1635.00,962.67
956,943.92,2144.16,0.00,1620.00,950.67
958,944.23,2147.62,3.93,1630.67,955.00
960,944.54,2151.07,0.00,1641.00,975.33
962,944.85,2154.52,6.44,1653.67,983.00
964,945.16,2157.96,1.90,1626.00,964.00
966,945.46,2161.40,2.94,1628.33,967.00
968,945.77,2164.84,0.26,1592.33,936.33
970,946.08,2168.28,0.00,1606.67,955.67
972,946.39,2171.71,26.64,1616.33,948.67
974,946.69,2175.14,5.88,1601.67,946.67
976,947.00,2178.57,0.00,1586.67,954.00
978,947.31,2181.99,9.35,1596.67,941.00
980,947.61,2185.41,0.00,1602.00,956.33
982,947.92,2188.82,16.47,1622.67,959.33
984,948.23,2192.24,0.00,1591.00,941.00
986,948.53,2195.65,5.94,1612.00,950.67
988,948.84,2199.05,14.52,1588.67,922.00
990,949.15,2202.46,0.00,1611.33,953.33
992,949.45,2205.86,10.53,1619.00,947.33
994,949.76,2209.25,12.20,1610.67,937.67
996,950.07,2212.65,26.42,1631.33,944.33
998,950.37,2216.04,2.76,1613.00,935.33
1000,950.68,2219.43,0.00,1624.00,953.33
1002,950.98,2222.81,8.06,1642.33,953.67
1004,951.29,2226.19,38.53,1644.67,942.00
1006,951.60,2229.57,15.18,1633.33,938.00
1008,951.90,2232.94,14.26,1641.33,940.67
1010,952.21,2236.32,32.40,1658.00,943.67
1012,952.51,2239.68,17.55,1664.33,960.00
1014,952.82,2243.05,23.90,1644.67,933.67
1016,953.12,2246.41,32.25,1694.00,973.33
1018,953.43,2249.77,20.37,1709.33,991.00
1020,953.73,2253.12,56.70,1719.00,969.00
1022,954.04,2256.48,97.84,1704.00,932.67
1024,954.34,2259.83,63.40,1724.00,966.67
1026,954.65,2263.17,33.19,1687.33,947.67
1028,954.95,2266.51,73.90,1725.00,953.00
1030,955.26,2269.85,72.88,1737.33,974.00
1032,955.56,2273.19,71.20,1725.67,958.00
1034,955.87,2276.52,46.19,1720.67,963.33
1036,956.17,2279.85,44.09,1719.67,960.00
1038,956.48,2283.18,32.64,1685.33,939.33
1040,956.78,2286.50,28.63,1683.67,941.33
1042,957.08,2289.82,9.69,1666.33,934.00
1044,957.39,2293.14,5.42,1687.67,956.67
1046,957.69,2296.45,0.00,1666.00,941.00
1048,957.99,2299.76,3.87,1703.67,972.33
1050,958.30,2303.07,27.97,1716.00,958.67
1052,958.60,2306.38,0.36,1683.33,949.67
1054,958.91,2309.68,31.57,1712.67,948.67
1056,959.21,2312.98,0.57,1681.00,941.67
1058,959.51,2316.27,26.44,1707.33,943.67
1060,959.82,2319.56,0.00,1715.00,972.00
1062,960.12,2322.85,1.37,1700.00,948.33
1064,960.42,2326.14,14.37,1702.67,938.67
1066,960.72,2329.42,0.00,1714.33,961.33
1068,961.03,2332.70,13.76,1729.67,961.33
1070,961.33,2335.97,3.85,1730.67,964.00
1072,961.63,2339.25,4.87,1721.33,947.00
1074,961.93,2342.52,4.63,1727.33,950.67
1076,962.24,2345.78,3.30,1727.67,952.33
1078,962.54,2349.05,59.97,1759.33,945.67
1080,962.84,2352.31,51.84,1765.67,951.33
1082,963.14,2355.56,30.40,1748.33,945.00
1084,963.45,2358.82,54.20,1765.00,943.67
1086,963.75,2362.07,46.11,1780.67,965.00
1088,964.05,2365.32,58.17,1798.67,977.00
1090,964.35,2368.56,77.64,1787.67,953.00
1092,964.65,2371.80,86.72,1812.33,970.67
1094,964.95,2375.04,134.53,1825.67,953.00
1096,965.25,2378.27,144.31,1827.00,950.67
1098,965.56,2381.51,180.06,1851.33,948.00
1100,965.86,2384.73,165.23,1846.67,953.67
1102,966.16,2387.96,230.77,1885.33,949.67
1104,966.46,2391.18,246.83,1912.00,970.33
1106,966.76,2394.40,275.90,1913.00,954.00
1108,967.06,2397.62,307.88,1948.67,968.67
1110,967.36,2400.83,292.75,1910.00,938.67
1112,967.66,2404.04,289.14,1944.67,976.67
1114,967.96,2407.25,324.07,1930.33,940.33
1116,968.26,2410.45,307.90,1930.33,952.67
1118,968.56,2413.65,347.25,1937.00,939.00
1120,968.86,2416.85,404.13,2000.00,972.33
1122,969.16,2420.04,369.93,1959.00,952.33
1124,969.46,2423.23,371.15,1963.00,947.33
1126,969.76,2426.42,354.23,1960.00,959.33
1128,970.06,2429.60,449.72,1983.00,933.33
1130,970.36,2432.79,465.62,2003.67,946.00
1132,970.66,2435.96,441.43,1993.33,948.33
1134,970.96,2439.14,475.69,2015.00,954.33
1136,971.26,2442.31,465.54,2011.67,960.67
1138,971.56,2445.48,498.56,2027.00,953.67
1140,971.86,2448.65,467.85,1989.33,940.33
1142,972.16,2451.81,463.82,2001.67,960.00
1144,972.45,2454.97,453.52,1984.00,949.33
1146,972.75,2458.13,436.07,1978.33,957.33
1148,973.05,2461.28,465.56,1976.33,945.00
1150,973.35,2464.43,481.04,1991.00,955.00
1152,973.65,2467.58,443.56,1967.33,951.33
1154,973.95,2470.72,428.81,1956.33,948.33
1156,974.24,2473.86,453.25,1961.67,943.67
1158,974.54,2477.00,441.05,1943.33,942.33
1160,974.84,2480.13,479.33,1967.67,952.00
1162,975.14,2483.27,440.47,1944.00,950.67
1164,975.43,2486.40,413.46,1920.33,939.67
1166,975.73,2489.52,437.35,1932.33,943.00
1168,976.03,2492.64,447.57,1925.00,939.00
1170,976.33,2495.76,411.29,1916.67,955.00
1172,976.62,2498.88,385.38,1893.00,943.00
1174,976.92,2501.99,343.96,1879.00,955.67
1176,977.22,2505.10,381.15,1901.33,966.33
1178,977.51,2508.21,387.70,1888.00,953.67
1180,977.81,2511.31,321.77,1848.00,948.00
1182,978.11,2514.41,354.39,1869.00,952.00
1184,978.40,2517.51,350.39,1863.00,956.33
1186,978.70,2520.61,373.82,1870.00,953.33
1188,979.00,2523.70,375.08,1882.67,968.33
1190,979.29,2526.79,373.76,1863.00,953.00
1192,979.59,2529.87,357.33,1855.33,957.00
1194,979.88,2532.95,374.98,1851.33,946.33
1196,980.18,2536.03,396.41,1872.67,962.00
1198,980.48,2539.11,368.75,1868.33,976.00
1200,980.77,2542.18,354.17,1838.33,953.33
1202,981.07,2545.25,296.03,1822.33,972.67
1204,981.36,2548.32,355.77,1830.33,953.33
1206,981.66,2551.38,317.68,1824.00,971.00
1208,981.95,2554.44,274.24,1781.00,953.00
1210,982.25,2557.50,261.23,1793.33,976.33
1212,982.54,2560.56,240.11,1781.00,977.67
1214,982.84,2563.61,203.75,1759.67,977.67
1216,983.13,2566.66,205.88,1751.67,972.33
1218,983.43,2569.70,190.24,1728.33,962.00
1220,983.72,2572.74,176.73,1730.67,975.33
1222,984.01,2575.78,160.07,1708.67,964.00
1224,984.31,2578.82,137.61,1681.33,949.67
1226,984.60,2581.85,134.33,1687.33,958.67
1228,984.90,2584.88,101.36,1656.33,949.00
1230,985.19,2587.91,111.96,1665.67,957.00
1232,985.48,2590.93,92.99,1670.67,971.00
1234,985.78,2593.96,76.27,1656.33,969.00
1236,986.07,2596.97,105.87,1652.33,960.00
1238,986.36,2599.99,82.61,1662.67,988.33
1240,986.66,2603.00,81.97,1646.67,976.67
1242,986.95,2606.01,100.52,1643.00,969.67
1244,987.24,2609.01,104.34,1643.00,975.67
1246,987.54,2612.02,115.58,1599.00,935.33
1248,987.83,2615.02,118.96,1628.00,969.33
1250,988.12,2618.01,113.59,1622.67,970.33
1252,988.41,2621.01,103.29,1612.00,969.67
1254,988.71,2624.00,97.96,1588.00,953.00
1256,989.00,2626.99,89.89,1595.33,969.00
1258,989.29,2629.97,107.80,1591.67,966.33
1260,989.58,2632.95,132.54,1591.33,965.33
1262,989.87,2635.93,102.20,1579.00,970.33
1264,990.16,2638.91,95.10,1549.67,949.33
1266,990.46,2641.88,91.82,1567.33,973.33
1268,990.75,2644.85,51.79,1565.00,990.33
1270,991.04,2647.81,50.58,1533.33,964.00
1272,991.33,2650.78,49.82,1528.33,972.00
1274,991.62,2653.74,64.80,1514.67,959.67
1276,991.91,2656.70,33.91,1496.67,961.67
1278,992.20,2659.65,75.14,1511.33,966.00
1280,992.49,2662.60,73.41,1497.00,960.67
1282,992.78,2665.55,109.97,1526.33,981.00
1284,993.07,2668.50,72.16,1510.00,981.67
1286,993.36,2671.44,51.43,1489.33,974.00
1288,993.65,2674.38,55.50,1486.33,978.33
1290,993.94,2677.31,69.17,1473.33,969.33
1292,994.23,2680.25,88.13,1472.33,970.33
1294,994.52,2683.18,91.13,1464.33,969.33
1296,994.81,2686.10,35.45,1442.33,969.00
1298,995.10,2689.03,9.55,1428.33,971.67
1300,995.39,2691.95,26.89,1423.33,962.67
1302,995.68,2694.87,25.17,1428.00,979.67
1304,995.97,2697.78,73.87,1429.33,974.00
1306,996.26,2700.70,34.30,1394.33,955.33
1308,996.55,2703.61,0.00,1386.67,970.33
1310,996.84,2706.51,4.27,1401.00,982.33
1312,997.13,2709.42,22.18,1390.33,971.00
1314,997.41,2712.32,28.30,1391.67,976.67
1316,997.70,2715.21,20.11,1368.67,959.67
1318,997.99,2718.11,0.00,1363.00,967.33
1320,998.28,2721.00,33.13,1361.33,955.67
1322,998.57,2723.89,0.00,1376.33,990.33
1324,998.86,2726.77,9.83,1346.67,954.67
1326,999.14,2729.66,36.60,1358.67,963.67
1328,999.43,2732.54,0.00,1340.67,968.00
1330,999.72,2735.41,46.02,1347.67,959.33
1332,1000.01,2738.29,0.00,1356.00,987.00
1334,1000.29,2741.16,20.89,1344.67,968.33
1336,1000.58,2744.03,44.83,1332.00,952.67
1338,1000.87,2746.89,21.06,1354.67,987.33
1340,1001.15,2749.75,0.00,1321.33,965.33
1342,1001.44,2752.61,9.43,1329.00,970.33
1344,1001.73,2755.47,20.60,1315.67,956.33
1346,1002.01,2758.32,32.22,1318.33,959.33
1348,1002.30,2761.17,13.37,1334.00,984.00
1350,1002.59,2764.02,41.75,1339.33,983.00
1352,1002.87,2766.86,17.86,1311.00,965.33
1354,1003.16,2769.70,25.13,1310.67,963.67
1356,1003.44,2772.54,15.14,1293.67,954.33
1358,1003.73,2775.38,35.65,1307.67,964.00
1360,1004.01,2778.21,0.00,1280.33,952.33
1362,1004.30,2781.04,0.00,1288.67,964.33
1364,1004.58,2783.87,12.13,1297.00,968.33
1366,1004.87,2786.69,22.66,1271.33,942.67
1368,1005.15,2789.51,0.00,1289.00,969.67
1370,1005.44,2792.33,0.00,1292.33,975.67
1372,1005.72,2795.14,9.19,1304.33,980.00
1374,1006.01,2797.95,12.07,1298.67,977.33
1376,1006.29,2800.76,59.70,1287.67,958.00
1378,1006.58,2803.57,0.00,1310.67,998.00
1380,1006.86,2806.37,7.74,1271.67,956.33
1382,1007.14,2809.17,3.11,1280.33,968.33
1384,1007.43,2811.97,16.58,1272.67,956.33
1386,1007.71,2814.77,37.64,1264.67,946.33
1388,1008.00,2817.56,33.93,1268.33,953.67
1390,1008.28,2820.35,14.53,1277.00,969.67
1392,1008.56,2823.13,83.40,1278.00,953.33
1394,1008.85,2825.91,32.98,1279.67,969.67
1396,1009.13,2828.69,38.55,1277.00,964.33
1398,1009.41,2831.47,24.72,1285.00,978.00
1400,1009.69,2834.24,45.56,1260.67,950.00
1402,1009.98,2837.02,70.08,1270.33,959.33
1404,1010.26,2839.78,145.48,1297.33,969.67
1406,1010.54,2842.55,44.01,1261.00,955.33
1408,1010.82,2845.31,15.19,1265.67,969.67
1410,1011.11,2848.07,24.35,1271.67,974.67
1412,1011.39,2850.83,39.19,1267.67,971.33
1414,1011.67,2853.58,72.42,1272.00,970.67
1416,1011.95,2856.33,72.14,1268.33,967.67
1418,1012.23,2859.08,73.30,1260.67,961.33
1420,1012.51,2861.83,100.90,1260.33,957.00
1422,1012.80,2864.57,118.71,1291.00,986.00
1424,1013.08,2867.31,152.64,1296.67,983.67
1426,1013.36,2870.04,99.76,1281.33,984.67
1428,1013.64,2872.78,104.14,1265.00,970.67
1430,1013.92,2875.51,175.35,1301.67,991.00
1432,1014.20,2878.24,116.32,1262.33,967.33
1434,1014.48,2880.96,165.22,1272.67,966.00
1436,1014.76,2883.68,191.31,1262.00,955.00
1438,1015.04,2886.40,210.42,1267.67,960.00
1440,1015.32,2889.12,149.37,1274.00,980.33
1442,1015.60,2891.83,123.95,1251.00,963.33
1444,1015.88,2894.54,170.88,1274.67,977.67
1446,1016.16,2897.25,223.95,1253.33,949.67
1448,1016.44,2899.96,274.65,1276.67,965.33
1450,1016.72,2902.66,262.58,1274.67,968.00
1452,1017.00,2905.36,262.00,1297.33,991.67
1454,1017.28,2908.06,248.22,1262.33,960.67
1456,1017.55,2910.75,226.36,1277.00,981.67
1458,1017.83,2913.44,228.21,1249.33,956.33
1460,1018.11,2916.13,252.13,1270.33,976.33
1462,1018.39,2918.81,284.86,1272.67,975.00
1464,1018.67,2921.49,243.98,1254.33,968.67
1466,1018.95,2924.17,271.57,1258.33,968.00
1468,1019.22,2926.85,227.67,1253.33,974.33
1470,1019.50,2929.52,237.31,1228.33,948.67
1472,1019.78,2932.20,216.47,1222.00,950.67
1474,1020.06,2934.86,263.90,1232.67,954.67
1476,1020.33,2937.53,168.16,1245.33,990.33
1478,1020.61,2940.19,165.04,1219.67,964.67
1480,1020.89,2942.85,104.88,1217.67,978.00
1482,1021.17,2945.51,152.08,1208.33,962.67
1484,1021.44,2948.16,158.38,1210.33,968.00
1486,1021.72,2950.81,116.07,1202.00,966.67
1488,1022.00,2953.46,19.60,1201.33,989.67
1490,1022.27,2956.11,88.30,1189.00,964.00
1492,1022.55,2958.75,186.77,1214.67,977.00
1494,1022.82,2961.39,138.31,1186.67,958.67
1496,1023.10,2964.03,55.36,1194.33,981.67
1498,1023.38,2966.66,83.21,1180.00,961.00
1500,1023.65,2969.29,61.87,1186.00,977.00
1502,1023.93,2971.92,144.76,1195.33,975.67
1504,1024.20,2974.55,92.27,1181.00,972.67
1506,1024.48,2977.17,116.37,1182.00,968.67
1508,1024.75,2979.79,14.94,1148.00,955.00
1510,1025.03,2982.41,0.00,1148.67,961.67
1512,1025.30,2985.02,9.70,1143.33,953.00
1514,1025.58,2987.63,10.69,1160.67,974.00
1516,1025.85,2990.24,23.70,1142.33,956.33
1518,1026.13,2992.85,37.41,1163.33,977.00
1520,1026.40,2995.45,29.09,1152.67,968.33
1522,1026.68,2998.05,28.46,1151.33,967.67
1524,1026.95,3000.65,0.00,1155.33,979.67
1526,1027.22,3003.25,7.38,1143.67,968.00
1528,1027.50,3005.84,0.00,1129.67,960.00
1530,1027.77,3008.43,20.85,1154.33,978.67
1532,1028.04,3011.02,80.33,1159.33,973.67
1534,1028.32,3013.60,0.00,1140.33,971.67
1536,1028.59,3016.18,81.82,1152.33,971.00
1538,1028.86,3018.76,10.81,1115.67,945.00
1540,1029.14,3021.34,3.10,1139.00,970.33
1542,1029.41,3023.91,51.38,1130.67,952.67
1544,1029.68,3026.48,67.52,1130.33,954.33
1546,1029.95,3029.05,67.43,1145.67,969.67
1548,1030.22,3031.61,81.85,1140.33,958.00
1550,1030.50,3034.17,4.72,1124.33,957.67
1552,1030.77,3036.73,2.03,1131.67,966.33
1554,1031.04,3039.29,50.67,1148.00,976.00
1556,1031.31,3041.84,36.62,1121.00,952.00
1558,1031.58,3044.39,34.08,1158.67,989.33
1560,1031.85,3046.94,75.56,1160.33,983.00
1562,1032.13,3049.49,84.15,1135.33,959.67
1564,1032.40,3052.03,197.69,1162.00,973.67
1566,1032.67,3054.57,68.29,1132.33,961.33
1568,1032.94,3057.11,85.41,1158.67,983.00
1570,1033.21,3059.64,85.20,1127.67,952.00
1572,1033.48,3062.18,146.89,1167.00,983.33
1574,1033.75,3064.70,173.28,1155.33,972.33
1576,1034.02,3067.23,261.35,1170.33,979.67
1578,1034.29,3069.75,184.33,1130.33,948.33
1580,1034.56,3072.28,85.11,1146.00,974.67
1582,1034.83,3074.79,52.94,1123.67,957.33
1584,1035.10,3077.31,24.87,1138.67,979.33
1586,1035.37,3079.82,135.54,1130.00,958.00
1588,1035.64,3082.33,93.12,1156.33,989.33
1590,1035.91,3084.84,24.49,1138.00,980.33
1592,1036.17,3087.34,2.37,1121.00,967.67
1594,1036.44,3089.85,88.08,1156.00,990.33
1596,1036.71,3092.35,22.21,1118.33,964.00
1598,1036.98,3094.84,121.81,1119.67,954.33
1600,1037.25,3097.34,107.29,1118.33,954.00
1602,1037.52,3099.83,21.14,1126.00,973.33
1604,1037.78,3102.32,44.51,1125.67,969.67
1606,1038.05,3104.80,8.42,1129.00,979.67
1608,1038.32,3107.29,64.97,1120.00,965.33
1610,1038.59,3109.77,90.43,1132.33,973.33
1612,1038.85,3112.24,0.00,1108.33,963.33
1614,1039.12,3114.72,32.58,1135.33,983.00
1616,1039.39,3117.19,41.16,1097.33,947.00
1618,1039.66,3119.66,42.79,1133.33,983.67
1620,1039.92,3122.13,0.00,1125.67,984.67
1622,1040.19,3124.59,96.45,1122.00,965.33
1624,1040.45,3127.05,20.12,1109.00,962.00
1626,1040.72,3129.51,124.99,1132.33,973.67
1628,1040.99,3131.97,0.00,1126.00,982.33
1630,1041.25,3134.42,28.58,1138.67,989.00
1632,1041.52,3136.87,35.44,1109.67,959.33
1634,1041.78,3139.32,111.04,1129.33,971.67
1636,1042.05,3141.77,48.84,1173.33,1019.33
1638,1042.32,3144.21,0.48,1115.67,968.33
1640,1042.58,3146.65,0.00,1134.00,988.67
1642,1042.85,3149.09,105.09,1134.33,971.67
1644,1043.11,3151.52,176.07,1132.33,966.67
1646,1043.38,3153.96,114.96,1136.67,976.67
1648,1043.64,3156.39,206.29,1130.33,959.33
1650,1043.90,3158.81,0.00,1118.67,972.67
1652,1044.17,3161.24,83.21,1141.00,978.00
1654,1044.43,3163.66,157.51,1129.00,958.00
1656,1044.70,3166.08,74.57,1158.00,995.67
1658,1044.96,3168.49,79.31,1139.33,975.67
1660,1045.22,3170.91,171.16,1139.33,964.67
1662,1045.49,3173.32,45.19,1133.67,969.67
1664,1045.75,3175.73,73.43,1150.67,981.67
1666,1046.01,3178.13,49.06,1131.67,965.33
1668,1046.28,3180.54,79.30,1154.00,984.33
1670,1046.54,3182.94,151.43,1164.67,987.33
1672,1046.80,3185.34,158.20,1159.33,980.33
1674,1047.07,3187.73,136.85,1139.33,962.67
1676,1047.33,3190.12,287.69,1162.00,972.33
1678,1047.59,3192.51,158.66,1156.00,974.00
1680,1047.85,3194.90,108.23,1180.33,1000.67
1682,1048.11,3197.29,71.97,1166.33,991.00
1684,1048.38,3199.67,221.36,1174.33,986.00
1686,1048.64,3202.05,165.97,1172.00,991.33
1688,1048.90,3204.43,261.03,1158.00,970.67
1690,1049.16,3206.80,363.74,1163.33,968.67
1692,1049.42,3209.17,389.25,1186.00,989.00
1694,1049.68,3211.54,297.82,1155.33,965.33
1696,1049.94,3213.91,287.81,1172.00,982.67
1698,1050.20,3216.27,306.87,1173.67,983.00
1700,1050.46,3218.63,473.70,1204.33,1000.00
1702,1050.72,3220.99,431.73,1174.67,976.67
1704,1050.98,3223.35,552.36,1190.33,984.33
1706,1051.24,3225.70,488.28,1175.00,976.00
1708,1051.50,3228.05,651.31,1172.00,962.67
1710,1051.76,3230.40,816.29,1206.00,985.33
1712,1052.02,3232.75,663.31,1191.00,979.67
1714,1052.28,3235.09,419.48,1192.33,999.33
1716,1052.54,3237.43,621.25,1184.67,976.33
1718,1052.80,3239.77,904.78,1191.00,964.33
1720,1053.06,3242.11,744.68,1190.67,979.33
1722,1053.32,3244.44,813.87,1180.33,965.33
1724,1053.58,3246.77,801.12,1214.33,1000.67
1726,1053.84,3249.10,806.71,1189.67,975.00
1728,1054.10,3251.42,860.28,1202.00,984.33
1730,1054.35,3253.75,919.25,1186.00,967.33
1732,1054.61,3256.07,1108.66,1209.00,979.00
1734,1054.87,3258.39,954.81,1194.33,975.33
1736,1055.13,3260.70,856.63,1184.67,974.00
1738,1055.38,3263.01,1045.37,1191.33,970.33
1740,1055.64,3265.32,1067.89,1200.00,978.67
1742,1055.90,3267.63,832.12,1168.33,962.67
1744,1056.16,3269.94,1003.29,1213.67,996.00
1746,1056.41,3272.24,704.30,1205.33,1010.00
1748,1056.67,3274.54,920.81,1188.00,980.33
1750,1056.93,3276.84,1000.98,1199.00,989.00
1752,1057.18,3279.13,971.23,1175.67,969.33
1754,1057.44,3281.42,1007.53,1168.33,960.00
1756,1057.69,3283.71,999.98,1180.33,972.33
1758,1057.95,3286.00,903.61,1199.33,998.00
1760,1058.21,3288.28,854.31,1173.67,977.00
1762,1058.46,3290.57,872.21,1190.00,995.00
1764,1058.72,3292.85,1015.41,1183.00,982.33
1766,1058.97,3295.12,1006.94,1165.00,965.67
1768,1059.23,3297.40,990.01,1166.33,967.00
1770,1059.48,3299.67,736.67,1177.67,994.33
1772,1059.74,3301.94,894.20,1153.00,962.33
1774,1059.99,3304.21,1061.97,1176.00,978.33
1776,1060.25,3306.47,723.70,1176.67,1000.00
1778,1060.50,3308.73,916.77,1156.67,969.00
1780,1060.76,3310.99,549.68,1149.67,983.00
1782,1061.01,3313.25,670.30,1153.33,981.00
1784,1061.26,3315.50,888.06,1151.33,969.00
1786,1061.52,3317.76,810.88,1166.33,988.67
1788,1061.77,3320.01,551.31,1155.67,992.67
1790,1062.02,3322.25,657.96,1135.00,967.67
1792,1062.28,3324.50,756.54,1144.33,974.33
1794,1062.53,3326.74,587.80,1129.67,970.33
1796,1062.78,3328.98,757.67,1147.33,980.33
1798,1063.04,3331.22,676.69,1135.33,972.00
1800,1063.29,3333.45,495.69,1126.00,971.67
1802,1063.54,3335.68,497.24,1128.33,975.00
1804,1063.79,3337.91,531.70,1138.33,985.67
1806,1064.05,3340.14,748.46,1163.67,1002.67
1808,1064.30,3342.36,614.89,1116.67,963.33
1810,1064.55,3344.59,525.39,1134.00,985.33
1812,1064.80,3346.81,550.59,1119.00,968.67
1814,1065.05,3349.02,311.98,1115.00,976.67
1816,1065.30,3351.24,303.83,1131.33,995.00
1818,1065.55,3353.45,504.85,1115.00,972.00
1820,1065.81,3355.66,526.33,1143.33,999.33
1822,1066.06,3357.87,408.87,1117.00,975.33
1824,1066.31,3360.07,290.33,1098.00,962.00
1826,1066.56,3362.27,28.75,1113.67,994.67
1828,1066.81,3364.47,382.49,1098.67,966.33
1830,1067.06,3366.67,334.21,1102.00,974.00
1832,1067.31,3368.87,323.38,1104.33,976.67
1834,1067.56,3371.06,485.85,1086.00,950.00
1836,1067.81,3373.25,458.49,1093.67,960.33
1838,1068.06,3375.44,312.73,1084.33,960.67
1840,1068.31,3377.62,427.68,1089.00,963.33
1842,1068.56,3379.81,750.85,1083.67,947.00
1844,1068.80,3381.99,304.44,1118.33,998.67
1846,1069.05,3384.16,380.60,1100.67,976.67
1848,1069.30,3386.34,206.90,1090.00,974.67
1850,1069.55,3388.51,462.63,1085.00,960.33
1852,1069.80,3390.68,459.16,1093.67,974.67
1854,1070.05,3392.85,681.16,1123.00,1000.33
1856,1070.30,3395.02,536.45,1090.33,970.67
1858,1070.54,3397.18,212.60,1070.00,959.67
1860,1070.79,3399.34,37.51,1081.00,980.00
1862,1071.04,3401.50,121.53,1074.00,969.00
1864,1071.29,3403.66,354.07,1065.33,951.33
1866,1071.53,3405.81,362.91,1082.67,973.33
1868,1071.78,3407.96,599.29,1077.67,964.00
1870,1072.03,3410.11,594.28,1089.67,979.00
1872,1072.27,3412.26,740.92,1085.00,970.33
1874,1072.52,3414.40,615.49,1075.33,964.33
1876,1072.77,3416.54,245.65,1068.33,971.00
1878,1073.01,3418.68,541.25,1083.33,977.00
1880,1073.26,3420.82,352.76,1039.33,939.33
1882,1073.51,3422.96,297.80,1077.33,978.67
1884,1073.75,3425.09,278.54,1066.33,969.67
1886,1074.00,3427.22,417.94,1056.00,957.33
1888,1074.24,3429.35,507.38,1087.67,990.33
1890,1074.49,3431.47,477.18,1057.67,964.33
1892,1074.73,3433.59,753.61,1055.67,956.33
1894,1074.98,3435.71,400.47,1079.33,988.00
1896,1075.22,3437.83,177.60,1058.33,973.00
1898,1075.47,3439.95,26.11,1056.67,979.33
1900,1075.71,3442.06,336.85,1070.67,982.33
1902,1075.96,3444.17,696.03,1059.33,965.33
1904,1076.20,3446.28,596.66,1018.00,929.67
1906,1076.44,3448.38,358.96,1073.00,991.67
1908,1076.69,3450.49,546.42,1072.00,985.67
1910,1076.93,3452.59,371.20,1050.67,970.67
1912,1077.17,3454.69,468.25,1050.67,969.00
1914,1077.42,3456.79,731.29,1058.33,970.67
1916,1077.66,3458.88,386.74,1042.00,966.00
1918,1077.90,3460.97,206.44,1034.33,964.67
1920,1078.15,3463.06,456.24,1061.00,986.00
1922,1078.39,3465.15,765.22,1052.33,969.67
1924,1078.63,3467.23,263.56,1019.67,951.00
1926,1078.87,3469.32,338.67,1054.33,984.00
1928,1079.12,3471.40,328.41,1034.67,966.00
1930,1079.36,3473.47,420.71,1078.00,1008.33
1932,1079.60,3475.55,156.14,1017.67,956.67
1934,1079.84,3477.62,472.55,1046.33,978.67
1936,1080.08,3479.69,439.20,1028.33,963.00
1938,1080.33,3481.76,230.12,1019.33,959.67
1940,1080.57,3483.83,690.69,1040.67,968.00
1942,1080.81,3485.89,0.00,1032.67,981.33
1944,1081.05,3487.95,173.16,1040.67,984.67
1946,1081.29,3490.01,607.67,1037.33,972.33
1948,1081.53,3492.07,389.56,1019.67,961.33
1950,1081.77,3494.12,540.38,1026.00,965.33
1952,1082.01,3496.18,485.14,1041.33,982.33
1954,1082.25,3498.23,172.56,1013.67,962.00
1956,1082.49,3500.27,188.39,1028.00,976.00
1958,1082.73,3502.32,413.32,1013.00,955.33
1960,1082.97,3504.36,163.21,1029.00,980.00
1962,1083.21,3506.40,683.75,1022.67,964.00
1964,1083.45,3508.44,566.81,1001.33,946.33
1966,1083.69,3510.48,746.40,1053.33,995.00
1968,1083.93,3512.51,398.42,1026.67,976.33
1970,1084.16,3514.54,625.43,1021.00,967.00
1972,1084.40,3516.57,1017.73,1019.00,956.00
1974,1084.64,3518.60,311.59,1006.00,957.67
1976,1084.88,3520.62,211.05,1029.00,983.33
1978,1085.12,3522.65,292.45,1041.00,994.33
1980,1085.36,3524.67,117.15,1016.33,975.33
1982,1085.59,3526.68,378.60,1008.67,963.33
1984,1085.83,3528.70,576.13,1031.33,982.67
1986,1086.07,3530.71,37.19,1002.33,964.67
1988,1086.31,3532.72,526.22,1024.00,976.67
1990,1086.54,3534.73,292.36,994.67,953.00
1992,1086.78,3536.74,623.14,1041.33,994.33
1994,1087.02,3538.74,536.94,1017.67,973.33
1996,1087.25,3540.74,1001.62,1000.67,948.00
1998,1087.49,3542.74,501.70,1015.67,971.67
2000,1087.73,3544.74,291.48,1008.67,969.00
2002,1087.96,3546.74,548.42,1012.00,967.67
2004,1088.20,3548.73,759.90,1032.33,986.00
2006,1088.43,3550.72,218.00,1010.67,975.33
2008,1088.67,3552.71,532.99,1003.67,963.33
2010,1088.90,3554.69,0.00,985.33,955.33
2012,1089.14,3556.68,873.49,1012.33,967.67
2014,1089.38,3558.66,239.34,994.33,960.67
2016,1089.61,3560.64,627.13,994.00,953.33
2018,1089.84,3562.62,329.85,1013.33,977.67
2020,1090.08,3564.59,310.63,990.33,955.33
2022,1090.31,3566.56,228.41,993.67,961.33
2024,1090.55,3568.53,996.72,998.67,955.00
2026,1090.78,3570.50,640.04,981.00,944.33
2028,1091.02,3572.47,433.93,985.33,952.33
2030,1091.25,3574.43,885.37,985.67,946.33
2032,1091.48,3576.39,414.80,966.00,932.33
2034,1091.72,3578.35,387.00,968.33,932.00
2036,1091.95,3580.31,0.00,983.67,960.67
2038,1092.18,3582.26,160.65,964.67,934.67
2040,1092.42,3584.22,312.17,962.67,932.00
2042,1092.65,3586.17,127.54,969.00,941.33
2044,1092.88,3588.12,625.64,972.33,937.00
2046,1093.11,3590.06,14.72,957.33,930.00
2047,1093.23,3591.03,56.29,958.33,926.67