File: src/enlighten/plugins/Raman/MatchingLibrary/785X/toluene.csv
ENLIGHTEN Version,4.1.22
Measurement ID,20250220-195313-501946-WP-01977
Serial Number,WP-01977
Model,WP-785X-F13-R-ILC
Detector,S16011-1106
Label,toluene
Declared Match,
Declared Score,0
Scan Averaging,10
Boxcar,0
Technique,Raman
Baseline Correction Algo,AirPLS
ROI Pixel Start,47
ROI Pixel End,2047
ROI Start Line,0
ROI Stop Line,63
CCD C4,1.38617e-12
Slit Width,25
Cropped,True
Interpolated,False
Wavenumber Correction,-0.100481
Raman Intensity Corrected,True
Deconvolved,True
Region,
High Gain Mode,False
Laser Power mW,
Electrical Dark Correction,False
Battery %,
Device ID,<DeviceID USB:0x24aa:0x1000:0:1>
FW Version,10.0.0.10
FPGA Version,035-001
BLE Version,
Prefix,enlighten
Suffix,
Preset,
Auto-Raman,True
Session Count,0
Plugin Name,
Integration Time,80
Timestamp,2025-02-20 19:53:13.5019
Note,
Temperature,0
CCD C0,793.274
CCD C1,0.153259
CCD C2,1.40788e-05
CCD C3,-1.132e-08
CCD Offset,0
CCD Gain,1.9
CCD Offset Odd,0
CCD Gain Odd,1.9
Laser Wavelength,785.032
Laser Enable,False
Laser Power %,0
Laser Temperature,0
Pixel Count,2048

Pixel,Wavelength,Wavenumber,Processed,Raw,Dark
0,793.27,132.25,NA,868.60,861.70
2,793.58,137.12,NA,868.40,864.30
4,793.89,141.99,NA,869.60,861.00
6,794.19,146.86,NA,865.60,861.20
8,794.50,151.72,NA,868.00,864.70
10,794.81,156.58,NA,870.00,862.20
12,795.12,161.44,NA,869.50,861.50
14,795.42,166.30,NA,867.20,859.00
16,795.73,171.16,NA,869.20,860.60
18,796.04,176.01,NA,871.70,867.20
20,796.35,180.86,NA,872.70,866.00
22,796.65,185.71,NA,876.10,870.80
24,796.96,190.56,NA,872.90,864.80
26,797.27,195.41,NA,876.70,864.60
28,797.58,200.25,NA,876.00,865.00
30,797.88,205.09,NA,872.40,865.00
32,798.19,209.93,NA,873.00,865.80
34,798.50,214.77,NA,877.40,860.30
36,798.81,219.60,NA,882.40,862.10
38,799.12,224.43,NA,908.90,865.40
40,799.43,229.27,NA,1032.30,868.60
42,799.74,234.09,NA,1457.60,863.60
44,800.04,238.92,NA,1970.70,871.40
46,800.35,243.75,NA,2000.30,866.60
48,800.66,248.57,331.39,1818.00,867.30
50,800.97,253.39,118.76,1660.10,870.60
52,801.28,258.21,53.97,1547.10,868.40
54,801.59,263.02,17.88,1458.20,869.00
56,801.90,267.83,0.84,1396.40,862.70
58,802.21,272.65,0.00,1348.50,868.10
60,802.52,277.46,0.00,1303.00,868.20
62,802.83,282.26,0.00,1276.50,870.00
64,803.14,287.07,0.00,1251.40,868.60
66,803.45,291.87,0.00,1229.80,868.80
68,803.76,296.67,0.00,1214.50,870.20
70,804.07,301.47,0.00,1206.90,866.00
72,804.38,306.26,0.00,1198.00,865.80
74,804.69,311.06,0.00,1193.00,864.50
76,805.00,315.85,0.00,1196.60,866.60
78,805.31,320.64,1.15,1209.20,865.90
80,805.62,325.42,26.64,1239.10,869.80
82,805.93,330.21,62.80,1298.30,870.40
84,806.24,334.99,150.86,1433.90,862.70
86,806.55,339.77,355.17,1696.00,868.00
88,806.86,344.55,646.47,1966.70,866.70
90,807.17,349.32,589.64,1914.60,863.40
92,807.48,354.10,288.74,1611.60,864.60
94,807.80,358.87,123.71,1380.60,868.20
96,808.11,363.63,47.03,1251.10,869.00
98,808.42,368.40,15.03,1187.60,865.00
100,808.73,373.16,2.94,1163.40,862.50
102,809.04,377.93,0.00,1143.80,862.10
104,809.35,382.68,0.00,1145.10,864.10
106,809.66,387.44,0.01,1150.90,865.70
108,809.98,392.19,5.13,1162.10,863.50
110,810.29,396.95,27.18,1192.70,866.00
112,810.60,401.70,63.01,1228.60,863.30
114,810.91,406.44,80.07,1250.40,865.30
116,811.22,411.19,76.26,1248.20,864.40
118,811.54,415.93,47.47,1217.40,868.40
120,811.85,420.67,40.22,1199.60,863.40
122,812.16,425.41,33.30,1187.20,864.00
124,812.47,430.14,31.06,1186.40,868.00
126,812.79,434.87,26.74,1177.40,865.40
128,813.10,439.60,30.77,1175.90,861.90
130,813.41,444.33,31.19,1178.40,863.40
132,813.72,449.06,33.16,1191.20,866.50
134,814.04,453.78,61.48,1244.20,862.80
136,814.35,458.50,152.15,1383.60,864.40
138,814.66,463.22,344.45,1581.70,862.60
140,814.98,467.93,359.76,1599.50,864.60
142,815.29,472.65,179.69,1417.70,863.50
144,815.60,477.36,90.03,1285.60,866.20
146,815.92,482.06,68.33,1232.20,862.60
148,816.23,486.77,71.72,1231.90,866.00
150,816.54,491.47,76.13,1245.80,871.00
152,816.86,496.17,109.69,1288.90,861.70
154,817.17,500.87,171.41,1395.60,864.20
156,817.48,505.57,276.36,1644.50,861.50
158,817.80,510.26,546.84,2395.00,864.40
160,818.11,514.95,1876.54,4755.70,864.90
162,818.42,519.64,5803.89,8648.90,868.20
164,818.74,524.32,5397.27,8329.80,866.20
166,819.05,529.00,1583.18,4376.70,868.20
168,819.37,533.68,461.46,2223.20,867.20
170,819.68,538.36,237.00,1559.30,866.00
172,819.99,543.04,138.29,1328.80,864.70
174,820.31,547.71,70.43,1213.90,862.90
176,820.62,552.38,39.49,1156.60,863.40
178,820.94,557.05,19.38,1121.40,862.30
180,821.25,561.71,4.29,1091.40,859.90
182,821.57,566.37,0.60,1084.50,860.40
184,821.88,571.03,0.00,1078.90,864.00
186,822.20,575.69,0.00,1073.10,864.30
188,822.51,580.34,0.13,1079.60,862.70
190,822.83,584.99,7.32,1091.60,861.40
192,823.14,589.64,24.04,1118.00,865.40
194,823.46,594.29,49.45,1161.50,862.50
196,823.77,598.93,93.60,1236.70,862.80
198,824.09,603.57,165.94,1373.00,861.10
200,824.40,608.21,304.89,1672.70,863.10
202,824.72,612.85,664.51,2344.20,866.20
204,825.03,617.48,1550.68,3547.30,863.60
206,825.35,622.11,2422.11,4441.40,864.80
208,825.66,626.74,1837.98,3870.70,870.10
210,825.98,631.36,811.74,2585.70,861.30
212,826.29,635.99,342.85,1765.00,865.20
214,826.61,640.61,171.00,1396.30,864.80
216,826.92,645.22,96.31,1235.30,862.30
218,827.24,649.84,50.62,1152.10,860.80
220,827.56,654.45,20.95,1101.70,865.10
222,827.87,659.06,4.57,1075.90,862.70
224,828.19,663.67,0.00,1057.70,861.20
226,828.50,668.27,0.00,1060.70,871.40
228,828.82,672.87,0.00,1054.00,867.20
230,829.13,677.47,0.00,1052.20,862.50
232,829.45,682.06,0.02,1067.60,864.50
234,829.77,686.66,2.84,1085.40,868.40
236,830.08,691.25,25.10,1109.60,864.40
238,830.40,695.83,29.24,1113.50,861.40
240,830.72,700.42,17.83,1107.90,862.90
242,831.03,705.00,5.96,1091.40,857.10
244,831.35,709.58,4.88,1097.00,860.50
246,831.66,714.15,18.64,1122.00,857.30
248,831.98,718.73,43.93,1185.10,864.50
250,832.30,723.30,128.58,1326.10,860.80
252,832.61,727.87,282.09,1517.50,867.20
254,832.93,732.43,318.12,1546.90,858.60
256,833.25,736.99,188.16,1418.40,866.40
258,833.56,741.55,78.38,1253.80,864.00
260,833.88,746.11,46.24,1184.70,860.40
262,834.20,750.66,42.52,1173.50,861.90
264,834.51,755.22,56.23,1198.10,864.20
266,834.83,759.76,85.94,1254.10,866.20
268,835.15,764.31,144.67,1365.00,864.80
270,835.47,768.85,241.90,1646.60,862.50
272,835.78,773.39,508.30,2709.40,862.50
274,836.10,777.93,1886.89,6820.80,863.20
276,836.42,782.46,10176.83,18546.20,866.40
278,836.73,787.00,20197.12,26831.10,862.80
280,837.05,791.52,7305.68,15621.10,862.90
282,837.37,796.05,1265.57,5360.70,863.20
284,837.69,800.57,628.96,2788.30,863.00
286,838.00,805.09,762.68,2448.40,863.00
288,838.32,809.61,928.22,2506.90,863.30
290,838.64,814.13,733.78,2274.30,866.30
292,838.95,818.64,341.70,1763.60,862.30
294,839.27,823.15,140.81,1417.70,861.20
296,839.59,827.65,84.36,1295.10,863.50
298,839.91,832.15,97.20,1301.40,863.10
300,840.22,836.65,156.85,1389.30,870.60
302,840.54,841.15,228.34,1462.70,861.80
304,840.86,845.65,213.61,1445.90,868.70
306,841.18,850.14,108.02,1317.10,863.90
308,841.50,854.63,36.68,1208.30,871.70
310,841.81,859.11,14.52,1149.00,863.10
312,842.13,863.60,2.70,1129.70,862.90
314,842.45,868.07,0.01,1116.80,860.30
316,842.77,872.55,0.00,1113.30,866.00
318,843.08,877.03,0.00,1117.30,866.20
320,843.40,881.50,0.03,1118.90,858.00
322,843.72,885.97,11.32,1163.70,862.70
324,844.04,890.43,64.75,1234.30,860.90
326,844.36,894.89,132.17,1312.30,862.50
328,844.67,899.35,110.91,1300.50,867.60
330,844.99,903.81,43.58,1211.00,857.60
332,845.31,908.26,4.26,1156.60,865.10
334,845.63,912.71,0.00,1131.10,863.90
336,845.95,917.16,0.00,1130.40,863.20
338,846.27,921.61,0.00,1168.70,904.00
340,846.58,926.05,0.00,1143.00,863.30
342,846.90,930.49,10.11,1162.70,862.10
344,847.22,934.92,9.29,1169.20,864.00
346,847.54,939.36,1.13,1160.30,858.60
348,847.86,943.79,0.00,1160.70,860.60
350,848.18,948.21,11.89,1192.40,860.00
352,848.49,952.64,33.85,1230.80,860.80
354,848.81,957.06,65.46,1298.90,861.20
356,849.13,961.48,133.69,1424.40,868.80
358,849.45,965.89,237.61,1578.60,864.90
360,849.77,970.31,324.83,1718.60,862.30
362,850.09,974.71,372.30,1825.90,863.90
364,850.40,979.12,426.86,1986.70,866.30
366,850.72,983.52,621.55,2365.70,867.40
368,851.04,987.92,1182.14,3459.70,859.10
370,851.36,992.32,1636.08,5769.70,859.70
372,851.68,996.72,4447.86,13975.00,865.00
374,852.00,1001.11,23994.85,37310.20,861.90
376,852.32,1005.50,30693.11,42254.00,861.30
378,852.63,1009.88,5986.89,17487.60,868.60
380,852.95,1014.26,1001.43,5466.90,867.20
382,853.27,1018.64,625.22,3403.70,865.20
384,853.59,1023.02,1321.58,4846.00,863.40
386,853.91,1027.39,5995.30,10821.60,861.50
388,854.23,1031.76,9848.32,13919.90,862.90
390,854.55,1036.13,2551.96,7171.10,863.50
392,854.87,1040.49,450.52,2863.20,862.70
394,855.18,1044.86,257.08,1847.60,861.80
396,855.50,1049.21,189.32,1546.80,860.80
398,855.82,1053.57,105.85,1408.90,865.70
400,856.14,1057.92,64.84,1339.70,861.50
402,856.46,1062.27,37.11,1294.50,862.40
404,856.78,1066.62,33.31,1284.00,858.40
406,857.10,1070.96,36.38,1297.90,861.20
408,857.42,1075.30,63.59,1350.80,865.50
410,857.74,1079.64,126.34,1419.60,862.80
412,858.06,1083.97,143.61,1431.60,863.20
414,858.37,1088.30,49.48,1329.30,860.10
416,858.69,1092.63,3.78,1259.70,858.40
418,859.01,1096.95,0.00,1232.60,857.90
420,859.33,1101.27,0.00,1237.30,863.30
422,859.65,1105.59,3.24,1243.00,861.30
424,859.97,1109.91,0.37,1241.50,862.10
426,860.29,1114.22,0.00,1230.30,860.50
428,860.61,1118.53,0.00,1233.50,860.50
430,860.93,1122.84,0.60,1261.70,862.90
432,861.25,1127.14,17.37,1302.00,865.70
434,861.56,1131.44,68.15,1372.40,860.20
436,861.88,1135.74,123.34,1473.90,859.20
438,862.20,1140.03,192.60,1634.10,864.00
440,862.52,1144.32,323.86,1944.80,862.80
442,862.84,1148.61,686.29,2612.80,863.90
444,863.16,1152.89,1543.01,3681.50,861.40
446,863.48,1157.17,2022.91,4168.70,863.00
448,863.80,1161.45,1328.82,3513.50,863.70
450,864.12,1165.73,742.11,2789.60,862.80
452,864.44,1170.00,672.02,2682.60,860.90
454,864.76,1174.27,1123.90,3248.90,861.00
456,865.07,1178.53,1814.32,3927.30,860.80
458,865.39,1182.80,1544.26,3678.00,863.80
460,865.71,1187.06,861.16,2887.20,864.80
462,866.03,1191.31,598.76,2447.40,862.90
464,866.35,1195.57,585.42,2495.00,862.60
466,866.67,1199.82,729.12,3159.10,863.20
468,866.99,1204.06,1942.90,5672.50,863.50
470,867.31,1208.31,6695.77,10660.60,866.60
472,867.63,1212.55,7185.06,11003.80,861.60
474,867.95,1216.79,1742.57,5528.30,860.80
476,868.27,1221.02,361.50,2579.50,861.80
478,868.58,1225.25,177.82,1782.10,861.10
480,868.90,1229.48,114.50,1554.30,862.40
482,869.22,1233.71,68.10,1475.20,864.30
484,869.54,1237.93,50.90,1451.00,866.80
486,869.86,1242.15,68.38,1464.40,861.70
488,870.18,1246.36,77.45,1463.10,858.00
490,870.50,1250.58,54.04,1442.90,863.60
492,870.82,1254.79,8.75,1400.20,865.10
494,871.14,1258.99,0.01,1370.20,862.60
496,871.46,1263.20,0.00,1358.30,865.30
498,871.78,1267.40,0.00,1372.40,861.40
500,872.10,1271.59,0.00,1383.80,861.10
502,872.41,1275.79,6.83,1406.20,860.30
504,872.73,1279.98,26.40,1432.00,862.60
506,873.05,1284.17,24.36,1439.10,862.90
508,873.37,1288.35,26.64,1444.70,856.60
510,873.69,1292.53,33.05,1459.20,858.30
512,874.01,1296.71,52.44,1495.80,860.20
514,874.33,1300.88,90.05,1556.50,858.70
516,874.65,1305.06,138.08,1640.40,862.00
518,874.97,1309.22,220.92,1747.60,862.50
520,875.29,1313.39,279.54,1817.20,862.30
522,875.60,1317.55,237.82,1796.20,863.10
524,875.92,1321.71,208.17,1778.80,861.50
526,876.24,1325.87,254.13,1843.20,863.20
528,876.56,1330.02,370.49,1959.10,859.90
530,876.88,1334.17,390.77,1982.70,864.20
532,877.20,1338.32,268.45,1850.70,859.70
534,877.52,1342.46,208.24,1772.20,859.80
536,877.84,1346.60,203.94,1760.00,865.30
538,878.16,1350.73,231.33,1790.20,862.30
540,878.47,1354.87,273.58,1853.40,859.20
542,878.79,1359.00,329.25,1947.20,860.40
544,879.11,1363.13,412.67,2110.00,861.50
546,879.43,1367.25,538.79,2418.10,860.50
548,879.75,1371.37,870.66,3078.90,859.50
550,880.07,1375.49,1917.85,4388.20,862.00
552,880.39,1379.60,3063.55,5404.50,864.30
554,880.71,1383.71,2008.90,4480.50,863.50
556,881.03,1387.82,926.54,3157.00,858.50
558,881.34,1391.93,604.99,2514.50,858.10
560,881.66,1396.03,471.38,2203.80,860.70
562,881.98,1400.13,384.96,2048.30,863.90
564,882.30,1404.22,353.13,1990.60,862.70
566,882.62,1408.31,356.20,1988.10,860.80
568,882.94,1412.40,380.12,2023.90,864.40
570,883.26,1416.49,422.48,2089.70,862.30
572,883.57,1420.57,479.04,2181.40,863.30
574,883.89,1424.65,561.26,2299.70,859.60
576,884.21,1428.73,656.55,2442.90,865.60
578,884.53,1432.80,756.60,2584.30,866.10
580,884.85,1436.87,829.09,2678.30,860.40
582,885.17,1440.93,849.60,2707.00,860.70
584,885.49,1445.00,817.45,2666.10,861.20
586,885.80,1449.06,760.71,2590.40,861.40
588,886.12,1453.11,682.69,2485.20,866.10
590,886.44,1457.17,634.42,2400.20,861.40
592,886.76,1461.22,579.70,2315.00,862.50
594,887.08,1465.26,538.65,2252.40,862.60
596,887.40,1469.31,487.47,2170.50,858.90
598,887.71,1473.35,459.93,2124.80,859.00
600,888.03,1477.38,420.61,2070.10,863.20
602,888.35,1481.42,391.37,2033.10,863.30
604,888.67,1485.45,376.90,2024.30,863.20
606,888.99,1489.48,422.21,2083.50,860.40
608,889.31,1493.50,501.78,2157.10,864.00
610,889.62,1497.52,536.61,2178.70,863.20
612,889.94,1501.54,415.56,2052.30,860.70
614,890.26,1505.56,329.54,1947.90,860.20
616,890.58,1509.57,291.13,1877.70,862.50
618,890.90,1513.57,271.92,1838.10,861.00
620,891.21,1517.58,258.03,1818.70,862.40
622,891.53,1521.58,263.11,1818.70,860.60
624,891.85,1525.58,251.67,1802.40,862.40
626,892.17,1529.57,247.22,1794.80,861.30
628,892.49,1533.57,244.61,1788.20,860.30
630,892.80,1537.56,227.07,1767.10,859.60
632,893.12,1541.54,224.51,1766.30,859.90
634,893.44,1545.52,238.32,1785.10,863.20
636,893.76,1549.50,249.92,1797.70,859.90
638,894.07,1553.48,267.78,1830.70,863.40
640,894.39,1557.45,298.15,1873.50,857.90
642,894.71,1561.42,341.14,1948.20,861.40
644,895.03,1565.39,420.41,2068.40,856.60
646,895.34,1569.35,566.29,2308.40,864.70
648,895.66,1573.31,752.70,2650.10,862.00
650,895.98,1577.26,1124.38,3271.50,860.80
652,896.30,1581.22,1987.18,4296.00,861.60
654,896.61,1585.17,3021.55,5235.80,862.50
656,896.93,1589.11,2598.53,5007.30,864.30
658,897.25,1593.06,1688.17,4317.60,858.70
660,897.57,1597.00,1810.42,4636.10,862.20
662,897.88,1600.93,3251.24,6101.20,862.50
664,898.20,1604.87,4932.66,7394.30,861.40
666,898.52,1608.80,3745.83,6426.40,862.00
668,898.84,1612.72,1868.50,4501.30,860.00
670,899.15,1616.65,1158.09,3386.60,862.30
672,899.47,1620.57,977.18,2896.50,858.80
674,899.79,1624.49,850.44,2614.20,861.60
676,900.10,1628.40,655.46,2349.70,860.30
678,900.42,1632.31,433.58,2072.00,861.80
680,900.74,1636.22,283.92,1858.30,858.40
682,901.05,1640.12,192.53,1728.60,865.00
684,901.37,1644.02,138.26,1638.10,861.60
686,901.69,1647.92,109.21,1586.90,862.70
688,902.00,1651.82,83.58,1545.00,859.80
690,902.32,1655.71,50.29,1496.90,857.30
692,902.64,1659.60,30.61,1474.40,859.70
694,902.95,1663.48,12.31,1450.30,861.30
696,903.27,1667.36,7.79,1436.00,861.00
698,903.59,1671.24,11.89,1437.10,866.40
700,903.90,1675.11,23.27,1435.50,863.10
702,904.22,1678.99,48.41,1442.30,855.20
704,904.54,1682.85,35.08,1429.50,868.00
706,904.85,1686.72,28.98,1405.80,859.20
708,905.17,1690.58,18.37,1384.20,862.20
710,905.49,1694.44,15.24,1365.70,860.40
712,905.80,1698.29,2.62,1350.20,861.20
714,906.12,1702.15,0.00,1328.90,864.10
716,906.43,1706.00,0.00,1319.60,864.20
718,906.75,1709.84,1.57,1307.40,859.90
720,907.07,1713.68,0.00,1291.10,858.70
722,907.38,1717.52,0.00,1277.20,862.40
724,907.70,1721.36,0.00,1273.50,860.70
726,908.01,1725.19,0.00,1273.00,862.80
728,908.33,1729.02,0.01,1268.90,864.00
730,908.65,1732.85,8.58,1272.40,863.90
732,908.96,1736.67,4.66,1259.10,862.80
734,909.28,1740.49,3.85,1248.00,859.20
736,909.59,1744.30,2.09,1245.80,862.20
738,909.91,1748.12,0.00,1230.90,860.80
740,910.22,1751.93,0.00,1225.60,863.20
742,910.54,1755.73,0.00,1219.80,864.30
744,910.85,1759.54,0.00,1212.10,863.10
746,911.17,1763.34,0.00,1205.20,859.70
748,911.49,1767.13,0.00,1206.20,861.40
750,911.80,1770.93,0.01,1201.30,859.90
752,912.12,1774.72,2.30,1208.30,862.80
754,912.43,1778.50,15.15,1214.50,857.50
756,912.75,1782.29,23.11,1222.60,858.80
758,913.06,1786.07,54.54,1250.60,857.80
760,913.38,1789.84,69.42,1258.30,860.50
762,913.69,1793.62,45.91,1242.90,865.00
764,914.01,1797.39,23.03,1211.50,861.30
766,914.32,1801.15,18.64,1197.20,858.70
768,914.64,1804.92,7.60,1181.30,858.70
770,914.95,1808.68,5.26,1178.10,862.60
772,915.26,1812.44,14.16,1180.30,862.10
774,915.58,1816.19,9.25,1168.80,859.10
776,915.89,1819.94,6.06,1165.40,860.60
778,916.21,1823.69,4.63,1163.60,863.70
780,916.52,1827.43,6.37,1164.40,866.80
782,916.84,1831.17,10.59,1157.40,859.90
784,917.15,1834.91,10.63,1154.10,859.10
786,917.47,1838.64,8.08,1150.60,862.10
788,917.78,1842.38,10.36,1147.60,859.80
790,918.09,1846.10,7.24,1141.70,858.70
792,918.41,1849.83,10.21,1142.00,860.30
794,918.72,1853.55,8.81,1132.00,856.90
796,919.04,1857.27,8.82,1135.40,861.70
798,919.35,1860.98,10.69,1130.70,857.50
800,919.66,1864.69,11.75,1132.70,861.80
802,919.98,1868.40,17.21,1135.30,862.30
804,920.29,1872.11,20.35,1132.70,860.90
806,920.60,1875.81,16.76,1126.20,860.80
808,920.92,1879.51,16.59,1123.00,859.10
810,921.23,1883.20,17.38,1124.00,862.70
812,921.55,1886.90,20.72,1120.00,859.00
814,921.86,1890.58,23.98,1122.30,860.10
816,922.17,1894.27,22.92,1121.10,863.70
818,922.49,1897.95,32.10,1123.50,860.70
820,922.80,1901.63,26.06,1116.50,861.30
822,923.11,1905.31,24.25,1110.90,860.00
824,923.42,1908.98,32.71,1113.10,857.80
826,923.74,1912.65,30.67,1111.10,860.30
828,924.05,1916.31,32.08,1113.30,861.00
830,924.36,1919.98,41.73,1123.00,861.70
832,924.68,1923.64,63.08,1134.00,857.30
834,924.99,1927.29,78.70,1142.20,857.50
836,925.30,1930.94,68.38,1130.80,856.50
838,925.61,1934.59,53.49,1117.50,858.50
840,925.93,1938.24,37.48,1100.80,861.90
842,926.24,1941.88,35.87,1095.80,861.10
844,926.55,1945.52,37.16,1092.60,860.00
846,926.86,1949.16,44.03,1098.10,863.30
848,927.18,1952.79,47.24,1092.80,858.10
850,927.49,1956.42,50.94,1097.70,862.20
852,927.80,1960.05,58.13,1107.50,870.20
854,928.11,1963.67,49.47,1087.00,860.90
856,928.42,1967.29,43.46,1082.30,864.10
858,928.74,1970.91,34.55,1067.90,862.70
860,929.05,1974.52,26.61,1052.80,857.60
862,929.36,1978.13,20.01,1046.90,860.40
864,929.67,1981.74,20.96,1044.80,860.30
866,929.98,1985.35,25.50,1049.50,864.30
868,930.29,1988.95,43.27,1059.80,861.60
870,930.61,1992.54,56.43,1063.80,859.70
872,930.92,1996.14,43.03,1052.30,861.80
874,931.23,1999.73,27.02,1038.00,862.70
876,931.54,2003.32,20.88,1028.70,863.30
878,931.85,2006.90,19.06,1018.20,857.70
880,932.16,2010.48,11.85,1009.60,860.40
882,932.47,2014.06,13.09,1006.60,859.30
884,932.78,2017.63,16.24,1005.10,859.40
886,933.09,2021.21,14.91,1001.10,858.50
888,933.41,2024.77,4.68,994.40,862.30
890,933.72,2028.34,9.92,997.70,862.60
892,934.03,2031.90,25.71,1002.40,862.10
894,934.34,2035.46,11.88,992.30,864.60
896,934.65,2039.01,4.95,981.30,859.80
898,934.96,2042.57,0.00,973.10,863.70
900,935.27,2046.11,1.90,975.60,864.90
902,935.58,2049.66,2.09,966.80,857.70
904,935.89,2053.20,5.43,972.00,862.00
906,936.20,2056.74,7.25,970.60,862.20
908,936.51,2060.28,6.13,966.30,861.00
910,936.82,2063.81,3.90,962.70,862.30
912,937.13,2067.34,3.42,959.50,861.50
914,937.44,2070.86,2.38,955.70,861.20
916,937.75,2074.39,3.09,951.30,857.20
918,938.06,2077.91,0.07,948.80,861.10
920,938.37,2081.42,3.44,948.30,860.30
922,938.68,2084.94,1.32,946.80,861.20
924,938.99,2088.45,0.00,941.10,860.10
926,939.30,2091.95,0.00,939.70,861.60
928,939.60,2095.46,1.59,938.10,859.60
930,939.91,2098.96,1.85,939.60,862.70
932,940.22,2102.45,0.00,933.20,862.50
934,940.53,2105.95,0.06,932.90,859.90
936,940.84,2109.44,0.88,933.80,860.50
938,941.15,2112.92,4.05,936.20,860.80
940,941.46,2116.41,11.69,939.80,858.30
942,941.77,2119.89,12.39,943.80,863.10
944,942.07,2123.37,18.40,945.40,861.90
946,942.38,2126.84,15.58,944.40,862.80
948,942.69,2130.31,3.55,934.00,863.30
950,943.00,2133.78,7.26,933.90,860.30
952,943.31,2137.24,7.69,931.90,859.80
954,943.62,2140.70,3.78,930.40,862.80
956,943.92,2144.16,4.93,927.30,858.80
958,944.23,2147.62,2.82,927.50,862.10
960,944.54,2151.07,6.48,929.40,861.70
962,944.85,2154.52,0.21,926.80,865.80
964,945.16,2157.96,2.78,927.60,863.40
966,945.46,2161.40,10.30,930.30,862.00
968,945.77,2164.84,9.36,924.00,859.20
970,946.08,2168.28,9.88,925.60,859.60
972,946.39,2171.71,1.90,922.40,860.30
974,946.69,2175.14,0.00,916.70,862.90
976,947.00,2178.57,0.29,920.40,863.70
978,947.31,2181.99,3.18,918.40,860.20
980,947.61,2185.41,0.00,917.30,863.20
982,947.92,2188.82,2.62,920.80,862.20
984,948.23,2192.24,1.57,915.60,858.40
986,948.53,2195.65,4.78,922.60,862.40
988,948.84,2199.05,11.59,921.90,855.10
990,949.15,2202.46,25.72,938.50,860.60
992,949.45,2205.86,39.06,944.70,860.60
994,949.76,2209.25,39.77,943.70,859.40
996,950.07,2212.65,22.40,933.80,858.90
998,950.37,2216.04,7.56,923.80,860.90
1000,950.68,2219.43,7.04,920.00,857.30
1002,950.98,2222.81,5.42,918.20,858.60
1004,951.29,2226.19,4.66,918.30,860.00
1006,951.60,2229.57,5.88,916.70,857.20
1008,951.90,2232.94,12.78,925.10,859.70
1010,952.21,2236.32,18.49,928.50,859.40
1012,952.51,2239.68,24.81,932.70,861.30
1014,952.82,2243.05,23.90,929.80,857.80
1016,953.12,2246.41,9.55,927.30,864.80
1018,953.43,2249.77,12.00,931.30,866.30
1020,953.73,2253.12,15.02,930.50,864.40
1022,954.04,2256.48,16.99,923.60,857.50
1024,954.34,2259.83,15.75,929.40,864.70
1026,954.65,2263.17,15.31,926.40,862.30
1028,954.95,2266.51,12.03,922.10,860.00
1030,955.26,2269.85,5.40,921.40,864.00
1032,955.56,2273.19,5.18,918.80,862.00
1034,955.87,2276.52,3.16,917.70,863.20
1036,956.17,2279.85,0.90,915.10,862.80
1038,956.48,2283.18,2.44,911.00,857.80
1040,956.78,2286.50,2.23,910.40,856.20
1042,957.08,2289.82,0.00,907.90,856.60
1044,957.39,2293.14,0.01,912.90,861.40
1046,957.69,2296.45,0.38,909.50,857.10
1048,957.99,2299.76,1.48,917.70,864.60
1050,958.30,2303.07,5.41,920.30,862.40
1052,958.60,2306.38,15.30,928.90,860.90
1054,958.91,2309.68,35.74,938.50,858.80
1056,959.21,2312.98,60.21,950.70,859.80
1058,959.51,2316.27,57.70,951.30,859.50
1060,959.82,2319.56,26.83,937.90,862.10
1062,960.12,2322.85,10.84,923.30,859.20
1064,960.42,2326.14,7.75,919.00,857.90
1066,960.72,2329.42,5.83,920.10,862.20
1068,961.03,2332.70,8.63,920.40,861.40
1070,961.33,2335.97,7.65,920.70,862.40
1072,961.63,2339.25,10.28,922.30,861.40
1074,961.93,2342.52,7.71,921.40,862.10
1076,962.24,2345.78,8.99,922.80,862.10
1078,962.54,2349.05,11.96,923.40,859.50
1080,962.84,2352.31,20.14,930.60,861.00
1082,963.14,2355.56,35.12,936.40,859.40
1084,963.45,2358.82,35.12,938.70,861.90
1086,963.75,2362.07,31.02,937.60,861.20
1088,964.05,2365.32,18.04,934.00,865.80
1090,964.35,2368.56,17.61,929.50,861.20
1092,964.65,2371.80,22.07,931.10,860.90
1094,964.95,2375.04,31.35,935.50,860.10
1096,965.25,2378.27,23.60,933.60,860.90
1098,965.56,2381.51,25.03,939.70,863.60
1100,965.86,2384.73,37.97,944.40,860.90
1102,966.16,2387.96,60.29,953.70,860.70
1104,966.46,2391.18,69.34,961.80,863.90
1106,966.76,2394.40,49.59,949.00,859.40
1108,967.06,2397.62,41.78,948.20,861.40
1110,967.36,2400.83,39.40,943.60,858.50
1112,967.66,2404.04,38.46,947.00,862.70
1114,967.96,2407.25,52.32,950.20,856.60
1116,968.26,2410.45,69.21,963.70,861.90
1118,968.56,2413.65,81.04,967.70,860.50
1120,968.86,2416.85,86.22,977.00,865.80
1122,969.16,2420.04,82.09,973.40,861.70
1124,969.46,2423.23,71.63,970.30,861.30
1126,969.76,2426.42,80.40,977.30,861.80
1128,970.06,2429.60,109.80,981.50,854.70
1130,970.36,2432.79,142.31,998.50,861.20
1132,970.66,2435.96,117.89,985.70,860.10
1134,970.96,2439.14,69.84,965.90,860.90
1136,971.26,2442.31,33.22,947.20,863.90
1138,971.56,2445.48,19.32,934.40,863.00
1140,971.86,2448.65,17.21,928.10,859.80
1142,972.16,2451.81,17.02,929.60,862.50
1144,972.45,2454.97,26.41,934.30,862.00
1146,972.75,2458.13,23.53,934.10,863.40
1148,973.05,2461.28,30.59,939.30,863.10
1150,973.35,2464.43,40.98,943.20,863.20
1152,973.65,2467.58,55.96,946.80,861.80
1154,973.95,2470.72,49.62,943.20,859.70
1156,974.24,2473.86,31.17,939.20,861.30
1158,974.54,2477.00,14.59,928.90,861.60
1160,974.84,2480.13,23.88,933.40,860.90
1162,975.14,2483.27,35.52,935.50,859.80
1164,975.43,2486.40,41.53,935.80,859.00
1166,975.73,2489.52,41.57,935.80,858.40
1168,976.03,2492.64,22.93,930.30,862.10
1170,976.33,2495.76,12.52,926.00,861.90
1172,976.62,2498.88,5.64,919.10,857.70
1174,976.92,2501.99,2.62,921.60,864.10
1176,977.22,2505.10,11.65,922.60,860.70
1178,977.51,2508.21,16.50,923.00,860.80
1180,977.81,2511.31,10.32,922.40,862.30
1182,978.11,2514.41,11.31,924.70,861.60
1184,978.40,2517.51,8.29,925.00,864.60
1186,978.70,2520.61,33.20,931.90,858.30
1188,979.00,2523.70,43.14,940.50,862.20
1190,979.29,2526.79,37.57,937.50,860.90
1192,979.59,2529.87,54.85,947.60,861.40
1194,979.88,2532.95,63.82,950.00,859.40
1196,980.18,2536.03,84.73,965.20,860.80
1198,980.48,2539.11,95.34,977.80,866.70
1200,980.77,2542.18,134.32,991.60,859.70
1202,981.07,2545.25,171.32,1014.90,864.00
1204,981.36,2548.32,197.42,1023.30,861.90
1206,981.66,2551.38,241.36,1041.00,863.50
1208,981.95,2554.44,238.11,1034.80,859.80
1210,982.25,2557.50,195.17,1023.80,863.70
1212,982.54,2560.56,147.22,1000.60,861.70
1214,982.84,2563.61,131.44,995.20,865.20
1216,983.13,2566.66,130.11,992.10,864.80
1218,983.43,2569.70,143.88,996.10,863.10
1220,983.72,2572.74,157.03,1001.80,861.30
1222,984.01,2575.78,172.06,1012.10,861.90
1224,984.31,2578.82,214.52,1031.00,860.10
1226,984.60,2581.85,277.36,1054.90,859.90
1228,984.90,2584.88,325.61,1068.80,862.30
1230,985.19,2587.91,335.54,1072.40,864.00
1232,985.48,2590.93,246.14,1041.80,863.20
1234,985.78,2593.96,161.11,1012.00,864.30
1236,986.07,2596.97,130.97,997.10,861.20
1238,986.36,2599.99,147.09,1008.50,866.80
1240,986.66,2603.00,220.18,1030.90,863.90
1242,986.95,2606.01,317.49,1059.00,866.80
1244,987.24,2609.01,343.49,1060.80,864.40
1246,987.54,2612.02,234.86,1022.90,859.70
1248,987.83,2615.02,133.39,989.40,861.70
1250,988.12,2618.01,77.72,961.00,862.30
1252,988.41,2621.01,66.81,947.80,860.80
1254,988.71,2624.00,58.48,937.20,859.80
1256,989.00,2626.99,33.73,929.40,862.90
1258,989.29,2629.97,15.07,922.60,861.70
1260,989.58,2632.95,0.00,917.20,867.80
1262,989.87,2635.93,5.25,918.30,864.10
1264,990.16,2638.91,6.73,913.50,861.00
1266,990.46,2641.88,15.79,919.70,864.50
1268,990.75,2644.85,3.59,919.00,867.60
1270,991.04,2647.81,1.80,916.10,865.30
1272,991.33,2650.78,12.62,920.70,861.80
1274,991.62,2653.74,30.03,929.40,862.80
1276,991.91,2656.70,50.89,937.00,863.30
1278,992.20,2659.65,91.20,949.50,864.20
1280,992.49,2662.60,116.39,954.00,863.90
1282,992.78,2665.55,90.37,951.20,867.60
1284,993.07,2668.50,33.94,935.00,866.10
1286,993.36,2671.44,4.79,921.00,862.50
1288,993.65,2674.38,0.00,913.30,867.00
1290,993.94,2677.31,0.00,909.80,861.50
1292,994.23,2680.25,0.00,913.00,864.60
1294,994.52,2683.18,1.27,912.60,862.20
1296,994.81,2686.10,0.00,912.30,864.90
1298,995.10,2689.03,0.00,914.10,865.40
1300,995.39,2691.95,0.00,915.20,861.90
1302,995.68,2694.87,1.03,921.30,863.60
1304,995.97,2697.78,5.67,929.00,865.80
1306,996.26,2700.70,16.10,932.30,863.80
1308,996.55,2703.61,60.28,948.80,865.30
1310,996.84,2706.51,57.82,950.70,866.80
1312,997.13,2709.42,50.41,948.90,862.70
1314,997.41,2712.32,34.06,949.20,865.00
1316,997.70,2715.21,39.99,954.10,863.60
1318,997.99,2718.11,65.34,966.10,862.50
1320,998.28,2721.00,107.01,987.40,862.70
1322,998.57,2723.89,160.18,1024.30,866.80
1324,998.86,2726.77,264.71,1075.20,863.40
1326,999.14,2729.66,528.67,1170.60,863.20
1328,999.43,2732.54,938.13,1279.00,866.60
1330,999.72,2735.41,1255.91,1347.70,863.20
1332,1000.01,2738.29,1064.36,1311.30,868.30
1334,1000.29,2741.16,695.08,1219.10,862.80
1336,1000.58,2744.03,408.12,1127.50,860.90
1338,1000.87,2746.89,252.62,1069.30,866.20
1340,1001.15,2749.75,172.42,1028.50,863.20
1342,1001.44,2752.61,125.33,1008.10,865.10
1344,1001.73,2755.47,115.68,998.10,860.40
1346,1002.01,2758.32,83.01,988.90,862.90
1348,1002.30,2761.17,53.42,983.30,867.40
1350,1002.59,2764.02,67.07,986.80,866.00
1352,1002.87,2766.86,69.08,984.50,861.90
1354,1003.16,2769.70,38.58,978.50,863.70
1356,1003.44,2772.54,41.69,978.80,861.20
1358,1003.73,2775.38,73.74,987.90,862.40
1360,1004.01,2778.21,96.67,990.40,862.70
1362,1004.30,2781.04,61.34,987.80,864.20
1364,1004.58,2783.87,13.35,981.20,861.90
1366,1004.87,2786.69,0.03,966.00,859.20
1368,1005.15,2789.51,0.00,973.10,866.00
1370,1005.44,2792.33,0.00,969.20,863.80
1372,1005.72,2795.14,0.00,971.00,864.40
1374,1006.01,2797.95,0.00,979.50,867.40
1376,1006.29,2800.76,0.00,973.00,863.90
1378,1006.58,2803.57,0.00,982.10,868.10
1380,1006.86,2806.37,0.00,988.90,861.60
1382,1007.14,2809.17,1.55,1000.60,864.80
1384,1007.43,2811.97,0.00,1002.90,861.70
1386,1007.71,2814.77,0.00,1002.90,863.70
1388,1008.00,2817.56,0.00,1010.20,861.50
1390,1008.28,2820.35,0.00,1019.30,864.40
1392,1008.56,2823.13,0.00,1028.50,859.20
1394,1008.85,2825.91,0.00,1042.50,863.40
1396,1009.13,2828.69,0.00,1055.00,863.50
1398,1009.41,2831.47,0.00,1071.60,863.90
1400,1009.69,2834.24,2.57,1088.10,860.20
1402,1009.98,2837.02,22.76,1111.70,863.60
1404,1010.26,2839.78,101.52,1151.40,865.10
1406,1010.54,2842.55,203.35,1189.00,862.20
1408,1010.82,2845.31,368.86,1254.80,865.40
1410,1011.11,2848.07,577.79,1330.80,866.40
1412,1011.39,2850.83,902.36,1431.20,864.50
1414,1011.67,2853.58,1323.19,1548.00,863.90
1416,1011.95,2856.33,1727.93,1653.70,864.40
1418,1012.23,2859.08,2087.20,1750.50,864.70
1420,1012.51,2861.83,2256.28,1803.80,862.30
1422,1012.80,2864.57,2337.72,1849.80,870.80
1424,1013.08,2867.31,2381.14,1869.60,867.50
1426,1013.36,2870.04,2383.90,1871.30,864.20
1428,1013.64,2872.78,2351.71,1864.60,864.90
1430,1013.92,2875.51,2203.49,1831.60,868.00
1432,1014.20,2878.24,2059.13,1796.70,864.60
1434,1014.48,2880.96,1875.51,1756.30,863.00
1436,1014.76,2883.68,1664.09,1709.30,859.80
1438,1015.04,2886.40,1484.61,1675.90,861.30
1440,1015.32,2889.12,1341.33,1653.20,865.20
1442,1015.60,2891.83,1334.33,1658.10,861.80
1444,1015.88,2894.54,1445.81,1698.90,864.30
1446,1016.16,2897.25,1679.88,1764.20,859.60
1448,1016.44,2899.96,2087.33,1885.80,864.70
1450,1016.72,2902.66,2656.07,2045.30,864.70
1452,1017.00,2905.36,3515.33,2279.40,865.30
1454,1017.28,2908.06,4649.41,2569.20,864.80
1456,1017.55,2910.75,6266.78,2943.00,865.20
1458,1017.83,2913.44,8240.01,3331.60,860.90
1460,1018.11,2916.13,10241.06,3690.30,866.30
1462,1018.39,2918.81,11255.86,3851.50,866.20
1464,1018.67,2921.49,10818.27,3773.10,864.20
1466,1018.95,2924.17,9319.58,3514.70,867.20
1468,1019.22,2926.85,7408.05,3144.60,868.00
1470,1019.50,2929.52,5850.05,2811.60,865.30
1472,1019.78,2932.20,4552.53,2507.70,862.60
1474,1020.06,2934.86,3540.32,2260.70,863.50
1476,1020.33,2937.53,2905.63,2107.50,868.20
1478,1020.61,2940.19,2336.86,1962.40,862.80
1480,1020.89,2942.85,1964.30,1874.60,867.70
1482,1021.17,2945.51,1666.30,1795.80,863.50
1484,1021.44,2948.16,1461.93,1747.60,863.50
1486,1021.72,2950.81,1168.81,1686.50,864.30
1488,1022.00,2953.46,946.41,1642.80,865.60
1490,1022.27,2956.11,737.42,1597.30,863.20
1492,1022.55,2958.75,553.39,1562.30,864.10
1494,1022.82,2961.39,356.19,1527.50,865.60
1496,1023.10,2964.03,245.72,1510.40,864.60
1498,1023.38,2966.66,149.26,1495.00,863.10
1500,1023.65,2969.29,123.38,1497.90,866.40
1502,1023.93,2971.92,170.94,1513.60,868.20
1504,1024.20,2974.55,403.71,1563.30,864.60
1506,1024.48,2977.17,987.56,1647.90,865.20
1508,1024.75,2979.79,2030.15,1750.00,860.10
1510,1025.03,2982.41,2361.35,1770.30,863.80
1512,1025.30,2985.02,1674.39,1702.40,861.30
1514,1025.58,2987.63,783.39,1581.70,866.90
1516,1025.85,2990.24,486.24,1514.50,860.90
1518,1026.13,2992.85,517.75,1513.10,866.10
1520,1026.40,2995.45,682.75,1517.60,862.90
1522,1026.68,2998.05,1146.08,1570.60,861.90
1524,1026.95,3000.65,1590.01,1616.60,866.60
1526,1027.22,3003.25,1840.63,1642.20,865.20
1528,1027.50,3005.84,1655.61,1620.70,865.60
1530,1027.77,3008.43,1421.51,1593.40,867.20
1532,1028.04,3011.02,1326.25,1575.30,866.20
1534,1028.32,3013.60,1492.77,1596.00,865.70
1536,1028.59,3016.18,1736.45,1627.40,866.50
1538,1028.86,3018.76,2109.49,1677.10,860.10
1540,1029.14,3021.34,2584.07,1757.20,864.20
1542,1029.41,3023.91,3185.66,1852.30,865.00
1544,1029.68,3026.48,4022.05,1974.60,863.30
1546,1029.95,3029.05,5023.10,2114.50,863.20
1548,1030.22,3031.61,5961.32,2237.60,860.30
1550,1030.50,3034.17,6806.52,2359.40,864.20
1552,1030.77,3036.73,7310.30,2439.20,863.50
1554,1031.04,3039.29,7741.13,2535.40,864.60
1556,1031.31,3041.84,8151.07,2641.30,860.70
1558,1031.58,3044.39,9133.54,2844.80,866.70
1560,1031.85,3046.94,11117.97,3154.40,869.40
1562,1032.13,3049.49,14640.46,3584.80,862.80
1564,1032.40,3052.03,19231.23,4068.10,867.20
1566,1032.67,3054.57,22348.89,4356.90,863.50
1568,1032.94,3057.11,21652.01,4298.00,869.40
1570,1033.21,3059.64,18328.20,3939.20,861.90
1572,1033.48,3062.18,15596.61,3599.70,867.00
1574,1033.75,3064.70,13828.54,3298.90,867.60
1576,1034.02,3067.23,12344.50,3016.30,868.80
1578,1034.29,3069.75,10381.37,2689.60,862.60
1580,1034.56,3072.28,8350.47,2397.40,866.10
1582,1034.83,3074.79,6397.10,2114.20,861.70
1584,1035.10,3077.31,4885.32,1889.80,865.80
1586,1035.37,3079.82,3867.09,1718.70,863.90
1588,1035.64,3082.33,3196.83,1603.90,868.60
1590,1035.91,3084.84,2545.94,1490.60,867.20
1592,1036.17,3087.34,2127.63,1413.40,863.40
1594,1036.44,3089.85,1796.18,1358.50,867.00
1596,1036.71,3092.35,1456.08,1298.00,862.70
1598,1036.98,3094.84,1203.76,1255.40,860.90
1600,1037.25,3097.34,911.55,1209.60,862.00
1602,1037.52,3099.83,792.64,1186.30,863.20
1604,1037.78,3102.32,672.57,1161.50,864.20
1606,1038.05,3104.80,586.79,1144.60,866.50
1608,1038.32,3107.29,471.03,1119.20,860.10
1610,1038.59,3109.77,257.20,1090.60,862.50
1612,1038.85,3112.24,123.69,1069.30,863.20
1614,1039.12,3114.72,73.67,1061.50,866.80
1616,1039.39,3117.19,26.78,1037.90,856.70
1618,1039.66,3119.66,0.00,1028.00,867.80
1620,1039.92,3122.13,0.26,1015.80,863.50
1622,1040.19,3124.59,0.00,1005.70,864.90
1624,1040.45,3127.05,0.00,991.00,863.70
1626,1040.72,3129.51,0.00,986.40,867.10
1628,1040.99,3131.97,0.00,978.30,867.00
1630,1041.25,3134.42,0.00,978.00,868.00
1632,1041.52,3136.87,0.00,965.90,862.50
1634,1041.78,3139.32,0.00,963.10,863.20
1636,1042.05,3141.77,0.00,970.60,873.40
1638,1042.32,3144.21,0.00,955.50,863.00
1640,1042.58,3146.65,0.00,958.90,870.20
1642,1042.85,3149.09,0.00,952.10,866.00
1644,1043.11,3151.52,2.87,953.60,865.70
1646,1043.38,3153.96,8.98,952.50,865.20
1648,1043.64,3156.39,8.10,948.90,863.20
1650,1043.90,3158.81,19.21,950.10,863.60
1652,1044.17,3161.24,85.58,961.00,867.20
1654,1044.43,3163.66,210.48,963.50,862.10
1656,1044.70,3166.08,354.13,976.80,869.00
1658,1044.96,3168.49,570.00,986.20,865.90
1660,1045.22,3170.91,382.26,969.70,864.40
1662,1045.49,3173.32,222.03,963.20,867.20
1664,1045.75,3175.73,83.22,951.50,867.20
1666,1046.01,3178.13,21.33,939.70,865.80
1668,1046.28,3180.54,12.51,937.10,866.60
1670,1046.54,3182.94,0.00,933.30,868.60
1672,1046.80,3185.34,0.00,929.10,867.70
1674,1047.07,3187.73,9.00,928.30,864.00
1676,1047.33,3190.12,0.13,930.00,867.80
1678,1047.59,3192.51,10.06,930.80,868.00
1680,1047.85,3194.90,13.90,934.00,871.40
1682,1048.11,3197.29,105.57,941.90,869.40
1684,1048.38,3199.67,204.35,943.20,866.80
1686,1048.64,3202.05,319.41,949.00,867.20
1688,1048.90,3204.43,323.07,945.50,864.40
1690,1049.16,3206.80,299.98,942.80,863.50
1692,1049.42,3209.17,308.39,946.40,866.40
1694,1049.68,3211.54,177.63,931.70,862.50
1696,1049.94,3213.91,127.63,930.30,865.30
1698,1050.20,3216.27,79.24,926.80,867.10
1700,1050.46,3218.63,108.82,931.70,870.50
1702,1050.72,3220.99,115.62,926.80,867.00
1704,1050.98,3223.35,143.67,925.80,865.80
1706,1051.24,3225.70,111.09,920.10,864.30
1708,1051.50,3228.05,122.76,918.60,862.80
1710,1051.76,3230.40,99.63,921.60,866.20
1712,1052.02,3232.75,30.86,915.50,865.40
1714,1052.28,3235.09,0.00,916.40,872.90
1716,1052.54,3237.43,25.39,913.10,865.40
1718,1052.80,3239.77,89.50,914.60,863.90
1720,1053.06,3242.11,109.96,915.70,866.20
1722,1053.32,3244.44,128.10,912.40,861.40
1724,1053.58,3246.77,46.29,915.80,870.20
1726,1053.84,3249.10,70.38,910.20,863.10
1728,1054.10,3251.42,126.90,913.20,863.70
1730,1054.35,3253.75,102.51,911.70,865.20
1732,1054.61,3256.07,92.33,912.90,867.40
1734,1054.87,3258.39,75.33,910.00,866.20
1736,1055.13,3260.70,140.24,910.40,862.80
1738,1055.38,3263.01,144.52,910.80,863.30
1740,1055.64,3265.32,57.68,907.20,866.30
1742,1055.90,3267.63,87.99,905.90,863.50
1744,1056.16,3269.94,165.00,914.30,867.40
1746,1056.41,3272.24,124.13,911.40,867.90
1748,1056.67,3274.54,132.67,909.10,865.60
1750,1056.93,3276.84,125.05,908.50,866.40
1752,1057.18,3279.13,202.53,909.80,864.00
1754,1057.44,3281.42,152.78,902.40,860.50
1756,1057.69,3283.71,141.34,906.50,865.30
1758,1057.95,3286.00,136.65,909.50,868.20
1760,1058.21,3288.28,107.44,903.10,864.20
1762,1058.46,3290.57,158.77,909.90,868.80
1764,1058.72,3292.85,155.72,906.60,866.90
1766,1058.97,3295.12,82.91,899.80,865.00
1768,1059.23,3297.40,159.00,904.30,865.50
1770,1059.48,3299.67,190.32,905.90,866.20
1772,1059.74,3301.94,138.56,899.30,862.90
1774,1059.99,3304.21,135.61,901.10,864.60
1776,1060.25,3306.47,142.11,905.60,868.80
1778,1060.50,3308.73,174.61,901.20,863.80
1780,1060.76,3310.99,273.29,903.80,863.20
1782,1061.01,3313.25,247.00,901.50,863.10
1784,1061.26,3315.50,115.84,899.20,867.00
1786,1061.52,3317.76,106.89,901.30,869.20
1788,1061.77,3320.01,114.08,900.10,868.00
1790,1062.02,3322.25,118.46,896.90,865.50
1792,1062.28,3324.50,141.24,896.70,864.70
1794,1062.53,3326.74,137.08,892.90,861.80
1796,1062.78,3328.98,159.99,897.70,866.50
1798,1063.04,3331.22,172.46,896.20,865.40
1800,1063.29,3333.45,167.78,896.60,866.10
1802,1063.54,3335.68,128.34,894.20,865.20
1804,1063.79,3337.91,70.75,894.90,869.10
1806,1064.05,3340.14,155.55,902.00,871.90
1808,1064.30,3342.36,150.83,890.40,861.60
1810,1064.55,3344.59,192.59,895.90,866.20
1812,1064.80,3346.81,249.75,895.50,864.20
1814,1065.05,3349.02,198.42,892.30,863.50
1816,1065.30,3351.24,103.04,894.20,869.60
1818,1065.55,3353.45,141.03,891.50,864.80
1820,1065.81,3355.66,91.79,895.10,871.40
1822,1066.06,3357.87,192.99,892.00,864.20
1824,1066.31,3360.07,206.07,891.20,863.70
1826,1066.56,3362.27,184.83,891.40,865.20
1828,1066.81,3364.47,195.20,890.00,863.90
1830,1067.06,3366.67,228.18,892.00,865.50
1832,1067.31,3368.87,238.86,890.60,864.00
1834,1067.56,3371.06,230.98,888.40,861.00
1836,1067.81,3373.25,115.25,884.90,862.30
1838,1068.06,3375.44,91.87,884.80,864.00
1840,1068.31,3377.62,260.65,890.20,863.60
1842,1068.56,3379.81,260.11,885.00,860.00
1844,1068.80,3381.99,277.15,893.90,868.00
1846,1069.05,3384.16,136.81,888.20,867.50
1848,1069.30,3386.34,233.62,890.10,865.60
1850,1069.55,3388.51,168.01,885.00,863.60
1852,1069.80,3390.68,215.87,889.10,865.60
1854,1070.05,3392.85,130.45,892.40,872.90
1856,1070.30,3395.02,227.77,888.00,865.60
1858,1070.54,3397.18,104.96,881.60,864.60
1860,1070.79,3399.34,270.87,887.40,864.70
1862,1071.04,3401.50,218.07,886.00,864.20
1864,1071.29,3403.66,197.58,881.50,859.80
1866,1071.53,3405.81,172.93,886.00,866.20
1868,1071.78,3407.96,328.45,887.80,863.90
1870,1072.03,3410.11,288.69,886.60,865.40
1872,1072.27,3412.26,266.73,884.60,864.20
1874,1072.52,3414.40,242.72,885.00,865.00
1876,1072.77,3416.54,270.47,884.50,862.90
1878,1073.01,3418.68,172.37,886.50,868.60
1880,1073.26,3420.82,160.54,879.10,862.30
1882,1073.51,3422.96,327.50,883.90,862.60
1884,1073.75,3425.09,345.53,883.50,862.70
1886,1074.00,3427.22,325.86,881.50,861.30
1888,1074.24,3429.35,211.11,884.40,867.40
1890,1074.49,3431.47,227.54,880.40,862.40
1892,1074.73,3433.59,218.46,881.90,864.00
1894,1074.98,3435.71,147.74,883.90,869.00
1896,1075.22,3437.83,234.15,881.40,864.40
1898,1075.47,3439.95,215.39,881.20,866.00
1900,1075.71,3442.06,435.53,885.10,864.80
1902,1075.96,3444.17,300.34,880.20,863.30
1904,1076.20,3446.28,296.13,876.50,858.50
1906,1076.44,3448.38,92.95,882.30,870.50
1908,1076.69,3450.49,142.15,882.40,868.80
1910,1076.93,3452.59,180.34,880.50,866.50
1912,1077.17,3454.69,225.50,877.50,863.50
1914,1077.42,3456.79,274.62,879.60,865.20
1916,1077.66,3458.88,366.17,879.10,861.90
1918,1077.90,3460.97,148.48,876.10,864.00
1920,1078.15,3463.06,106.74,879.70,868.80
1922,1078.39,3465.15,226.63,879.10,865.10
1924,1078.63,3467.23,426.08,877.00,858.90
1926,1078.87,3469.32,190.05,878.00,866.40
1928,1079.12,3471.40,146.85,876.70,866.20
1930,1079.36,3473.47,296.72,884.70,870.40
1932,1079.60,3475.55,290.92,876.80,863.10
1934,1079.84,3477.62,227.04,877.80,865.80
1936,1080.08,3479.69,279.58,877.10,863.50
1938,1080.33,3481.76,238.30,875.60,863.20
1940,1080.57,3483.83,255.15,876.00,863.70
1942,1080.81,3485.89,361.88,877.40,863.30
1944,1081.05,3487.95,287.17,879.10,867.30
1946,1081.29,3490.01,338.43,876.70,863.80
1948,1081.53,3492.07,339.42,877.90,864.20
1950,1081.77,3494.12,60.08,871.30,864.50
1952,1082.01,3496.18,85.35,874.20,866.70
1954,1082.25,3498.23,253.44,873.00,861.40
1956,1082.49,3500.27,185.64,875.10,866.00
1958,1082.73,3502.32,332.23,872.70,860.50
1960,1082.97,3504.36,205.50,876.10,867.00
1962,1083.21,3506.40,365.55,874.90,862.70
1964,1083.45,3508.44,324.24,870.40,859.50
1966,1083.69,3510.48,250.93,878.70,869.40
1968,1083.93,3512.51,325.82,877.80,866.80
1970,1084.16,3514.54,290.88,873.20,862.70
1972,1084.40,3516.57,118.46,873.10,866.40
1974,1084.64,3518.60,252.27,873.30,862.80
1976,1084.88,3520.62,31.58,875.10,870.60
1978,1085.12,3522.65,110.71,876.20,869.80
1980,1085.36,3524.67,121.59,871.80,865.80
1982,1085.59,3526.68,446.28,873.40,861.90
1984,1085.83,3528.70,367.90,875.20,865.20
1986,1086.07,3530.71,243.97,871.40,863.40
1988,1086.31,3532.72,359.43,876.30,865.90
1990,1086.54,3534.73,233.29,870.30,862.70
1992,1086.78,3536.74,280.67,877.90,869.40
1994,1087.02,3538.74,113.00,870.90,865.80
1996,1087.25,3540.74,258.37,870.50,862.70
1998,1087.49,3542.74,293.64,873.10,865.20
2000,1087.73,3544.74,290.25,872.60,865.00
2002,1087.96,3546.74,372.94,872.40,862.90
2004,1088.20,3548.73,369.23,877.60,867.40
2006,1088.43,3550.72,385.17,872.70,861.90
2008,1088.67,3552.71,395.40,874.50,864.30
2010,1088.90,3554.69,374.90,867.60,859.10
2012,1089.14,3556.68,481.66,873.70,864.50
2014,1089.38,3558.66,525.82,869.50,859.60
2016,1089.61,3560.64,267.80,867.50,860.70
2018,1089.84,3562.62,309.60,874.30,865.20
2020,1090.08,3564.59,0.00,866.60,864.80
2022,1090.31,3566.56,167.68,867.80,862.20
2024,1090.55,3568.53,295.32,868.60,861.40
2026,1090.78,3570.50,135.91,868.00,863.90
2028,1091.02,3572.47,259.27,866.60,860.70
2030,1091.25,3574.43,252.36,867.80,862.00
2032,1091.48,3576.39,339.72,867.80,860.50
2034,1091.72,3578.35,384.50,866.60,858.00
2036,1091.95,3580.31,56.70,867.00,863.80
2038,1092.18,3582.26,162.31,864.20,859.20
2040,1092.42,3584.22,176.36,863.90,859.20
2042,1092.65,3586.17,558.50,866.70,857.90
2044,1092.88,3588.12,0.00,859.30,858.10
2046,1093.11,3590.06,150.70,861.20,854.50
2047,1093.23,3591.03,32.94,862.70,858.30